onset	duration	sample	trial_type	response_time	stim_file	item_name	serialpos	list	test	answer	experiment	session	subject
0.0	4.204	2094298	E	n/a	n/a	n/a	-999	-999	n/a	n/a	pyFR	0	TJ019
4.204	0.0	2098502	SESS_START	n/a	n/a	n/a	-999	-999	n/a	n/a	pyFR	0	TJ019
4.204	35.031	2098502	B	n/a	n/a	n/a	-999	-999	n/a	n/a	pyFR	0	TJ019
39.235	0.001	2133532	B	n/a	n/a	n/a	-999	-999	n/a	n/a	pyFR	0	TJ019
39.236	71.654	2133533	SESS_START	n/a	n/a	n/a	-999	-999	n/a	n/a	pyFR	0	TJ019
110.89	0.039	2205184	START	n/a	n/a	n/a	n/a	0	[-999 -999 -999]	-999	pyFR	0	TJ019
110.929	5.477	2205223	PROB	n/a	n/a	n/a	n/a	0	[9 6 7]	22	pyFR	0	TJ019
116.406	3.791	2210700	PROB	n/a	n/a	n/a	n/a	0	[9 2 5]	16	pyFR	0	TJ019
120.197	5.009	2214490	PROB	n/a	n/a	n/a	n/a	0	[4 2 7]	13	pyFR	0	TJ019
125.206	3.056	2219499	PROB	n/a	n/a	n/a	n/a	0	[2 1 7]	10	pyFR	0	TJ019
128.262	7.312	2222555	PROB	n/a	n/a	n/a	n/a	0	[7 4 9]	20	pyFR	0	TJ019
135.574	2.923	2229867	PROB	n/a	n/a	n/a	n/a	0	[4 1 7]	12	pyFR	0	TJ019
138.497	3.237	2232790	PROB	n/a	n/a	n/a	n/a	0	[6 3 9]	18	pyFR	0	TJ019
141.734	61.534	2236027	STOP	n/a	n/a	n/a	n/a	0	[-999 -999 -999]	-999	pyFR	0	TJ019
203.268	0.015	2297558	TRIAL	n/a	n/a	n/a	-999	-999	n/a	n/a	pyFR	0	TJ019
203.283	2.822	2297573	ORIENT	n/a	n/a	n/a	-999	-999	n/a	n/a	pyFR	0	TJ019
206.105	2.621	2300395	WORD	n/a	wordpools/wordpool_EN.txt	MAT	1	1	n/a	n/a	pyFR	0	TJ019
208.726	2.455	2303016	WORD	n/a	wordpools/wordpool_EN.txt	STEAK	2	1	n/a	n/a	pyFR	0	TJ019
211.181	2.52	2305471	WORD	n/a	wordpools/wordpool_EN.txt	GEESE	3	1	n/a	n/a	pyFR	0	TJ019
213.701	2.755	2307991	WORD	n/a	wordpools/wordpool_EN.txt	SQUARE	4	1	n/a	n/a	pyFR	0	TJ019
216.456	2.807	2310746	WORD	n/a	wordpools/wordpool_EN.txt	DEER	5	1	n/a	n/a	pyFR	0	TJ019
219.263	2.453	2313552	WORD	n/a	wordpools/wordpool_EN.txt	JAR	6	1	n/a	n/a	pyFR	0	TJ019
221.716	2.522	2316005	WORD	n/a	wordpools/wordpool_EN.txt	RAKE	7	1	n/a	n/a	pyFR	0	TJ019
224.238	2.755	2318527	WORD	n/a	wordpools/wordpool_EN.txt	THUMB	8	1	n/a	n/a	pyFR	0	TJ019
226.993	2.688	2321282	WORD	n/a	wordpools/wordpool_EN.txt	STRING	9	1	n/a	n/a	pyFR	0	TJ019
229.681	2.606	2323970	WORD	n/a	wordpools/wordpool_EN.txt	CAT	10	1	n/a	n/a	pyFR	0	TJ019
232.287	2.771	2326576	WORD	n/a	wordpools/wordpool_EN.txt	BOOK	11	1	n/a	n/a	pyFR	0	TJ019
235.058	2.554	2329347	WORD	n/a	wordpools/wordpool_EN.txt	MAIL	12	1	n/a	n/a	pyFR	0	TJ019
237.612	2.439	2331901	WORD	n/a	wordpools/wordpool_EN.txt	SPOON	13	1	n/a	n/a	pyFR	0	TJ019
240.051	2.687	2334340	WORD	n/a	wordpools/wordpool_EN.txt	FLUTE	14	1	n/a	n/a	pyFR	0	TJ019
242.738	1.606	2337027	WORD	n/a	wordpools/wordpool_EN.txt	FRUIT	15	1	n/a	n/a	pyFR	0	TJ019
244.344	1.0	2338632	START	n/a	n/a	n/a	n/a	1	[-999 -999 -999]	-999	pyFR	0	TJ019
245.344	3.238	2339632	PROB	n/a	n/a	n/a	n/a	1	[3 1 3]	7	pyFR	0	TJ019
248.582	2.522	2342870	PROB	n/a	n/a	n/a	n/a	1	[3 6 2]	11	pyFR	0	TJ019
251.104	2.871	2345392	PROB	n/a	n/a	n/a	n/a	1	[4 3 3]	10	pyFR	0	TJ019
253.975	3.04	2348263	PROB	n/a	n/a	n/a	n/a	1	[4 3 7]	14	pyFR	0	TJ019
257.015	10.383	2351303	PROB	n/a	n/a	n/a	n/a	1	[9 6 9]	24	pyFR	0	TJ019
267.398	1.456	2361686	STOP	n/a	n/a	n/a	n/a	1	[-999 -999 -999]	-999	pyFR	0	TJ019
268.854	1.136	2363141	REC_START	n/a	n/a	n/a	-999	-999	n/a	n/a	pyFR	0	TJ019
269.99	0.729	2364277	REC_WORD	0.729	n/a	STEAK	-999	1	n/a	n/a	pyFR	0	TJ019
270.719	1.238	2365006	REC_WORD	1.238	n/a	GEESE	-999	1	n/a	n/a	pyFR	0	TJ019
271.957	1.636	2366244	REC_WORD	1.636	n/a	STRING	-999	1	n/a	n/a	pyFR	0	TJ019
273.593	14.576	2367880	REC_WORD	14.576	n/a	FLUTE	-999	1	n/a	n/a	pyFR	0	TJ019
288.169	0.488	2382456	REC_WORD	0.488	n/a	MAIL	-999	1	n/a	n/a	pyFR	0	TJ019
288.657	13.118	2382944	REC_WORD	13.118	n/a	<>	-999	1	n/a	n/a	pyFR	0	TJ019
301.775	2.19	2396061	REC_WORD	2.19	n/a	<>	-999	1	n/a	n/a	pyFR	0	TJ019
303.965	1.0	2398251	REC_WORD	1.0	n/a	<>	-999	1	n/a	n/a	pyFR	0	TJ019
304.965	1.0	2399251	REC_WORD	1.0	n/a	<>	-999	1	n/a	n/a	pyFR	0	TJ019
305.965	1.0	2400251	REC_WORD	1.0	n/a	<>	-999	1	n/a	n/a	pyFR	0	TJ019
306.965	1.0	2401251	REC_WORD	1.0	n/a	<>	-999	1	n/a	n/a	pyFR	0	TJ019
307.965	1.0	2402251	REC_WORD	1.0	n/a	<>	-999	1	n/a	n/a	pyFR	0	TJ019
308.965	1.0	2403251	REC_WORD	1.0	n/a	<>	-999	1	n/a	n/a	pyFR	0	TJ019
309.965	1.352	2404251	REC_WORD	1.352	n/a	<>	-999	1	n/a	n/a	pyFR	0	TJ019
311.317	1.0	2405603	REC_WORD	1.0	n/a	<>	-999	1	n/a	n/a	pyFR	0	TJ019
312.317	1.0	2406603	REC_WORD	1.0	n/a	<>	-999	1	n/a	n/a	pyFR	0	TJ019
313.317	4.176	2407603	REC_WORD	4.176	n/a	<>	-999	1	n/a	n/a	pyFR	0	TJ019
317.493	0.016	2411779	TRIAL	n/a	n/a	n/a	-999	-999	n/a	n/a	pyFR	0	TJ019
317.509	2.905	2411795	ORIENT	n/a	n/a	n/a	-999	-999	n/a	n/a	pyFR	0	TJ019
320.414	2.589	2414699	WORD	n/a	wordpools/wordpool_EN.txt	BOAT	1	2	n/a	n/a	pyFR	0	TJ019
323.003	2.754	2417288	WORD	n/a	wordpools/wordpool_EN.txt	CLOUD	2	2	n/a	n/a	pyFR	0	TJ019
325.757	2.589	2420042	WORD	n/a	wordpools/wordpool_EN.txt	SPEAR	3	2	n/a	n/a	pyFR	0	TJ019
328.346	2.471	2422631	WORD	n/a	wordpools/wordpool_EN.txt	SHIRT	4	2	n/a	n/a	pyFR	0	TJ019
330.817	2.522	2425102	WORD	n/a	wordpools/wordpool_EN.txt	POOL	5	2	n/a	n/a	pyFR	0	TJ019
333.339	2.738	2427624	WORD	n/a	wordpools/wordpool_EN.txt	SNAKE	6	2	n/a	n/a	pyFR	0	TJ019
336.077	2.754	2430362	WORD	n/a	wordpools/wordpool_EN.txt	ANT	7	2	n/a	n/a	pyFR	0	TJ019
338.831	2.772	2433116	WORD	n/a	wordpools/wordpool_EN.txt	BOWL	8	2	n/a	n/a	pyFR	0	TJ019
341.603	2.456	2435888	WORD	n/a	wordpools/wordpool_EN.txt	TOAST	9	2	n/a	n/a	pyFR	0	TJ019
344.059	2.67	2438343	WORD	n/a	wordpools/wordpool_EN.txt	WORLD	10	2	n/a	n/a	pyFR	0	TJ019
346.729	2.772	2441013	WORD	n/a	wordpools/wordpool_EN.txt	PEAR	11	2	n/a	n/a	pyFR	0	TJ019
349.501	2.656	2443785	WORD	n/a	wordpools/wordpool_EN.txt	CLIFF	12	2	n/a	n/a	pyFR	0	TJ019
352.157	2.754	2446441	WORD	n/a	wordpools/wordpool_EN.txt	SKI	13	2	n/a	n/a	pyFR	0	TJ019
354.911	2.805	2449195	WORD	n/a	wordpools/wordpool_EN.txt	ROPE	14	2	n/a	n/a	pyFR	0	TJ019
357.716	1.605	2452000	WORD	n/a	wordpools/wordpool_EN.txt	TRUCK	15	2	n/a	n/a	pyFR	0	TJ019
359.321	0.851	2453605	START	n/a	n/a	n/a	n/a	2	[-999 -999 -999]	-999	pyFR	0	TJ019
360.172	4.423	2454456	PROB	n/a	n/a	n/a	n/a	2	[6 6 5]	17	pyFR	0	TJ019
364.595	2.839	2458879	PROB	n/a	n/a	n/a	n/a	2	[1 5 1]	7	pyFR	0	TJ019
367.434	4.558	2461718	PROB	n/a	n/a	n/a	n/a	2	[9 9 5]	23	pyFR	0	TJ019
371.992	3.774	2466275	PROB	n/a	n/a	n/a	n/a	2	[9 4 1]	14	pyFR	0	TJ019
375.766	2.805	2470049	PROB	n/a	n/a	n/a	n/a	2	[2 3 3]	8	pyFR	0	TJ019
378.571	2.979	2472854	PROB	n/a	n/a	n/a	n/a	2	[2 4 8]	14	pyFR	0	TJ019
381.55	1.046	2475833	STOP	n/a	n/a	n/a	n/a	2	[-999 -999 -999]	-999	pyFR	0	TJ019
382.596	1.773	2476879	REC_START	n/a	n/a	n/a	-999	-999	n/a	n/a	pyFR	0	TJ019
384.369	0.268	2478652	REC_WORD	0.268	n/a	BOAT	-999	2	n/a	n/a	pyFR	0	TJ019
384.637	0.429	2478920	REC_WORD	0.429	n/a	CLOUD	-999	2	n/a	n/a	pyFR	0	TJ019
385.066	0.404	2479349	REC_WORD	0.404	n/a	SHIRT	-999	2	n/a	n/a	pyFR	0	TJ019
385.47	2.528	2479753	REC_WORD	2.528	n/a	SNAKE	-999	2	n/a	n/a	pyFR	0	TJ019
387.998	11.341	2482281	REC_WORD	11.341	n/a	ROPE	-999	2	n/a	n/a	pyFR	0	TJ019
399.339	31.831	2493621	REC_WORD	31.831	n/a	THUMB	-999	2	n/a	n/a	pyFR	0	TJ019
431.17	0.015	2525451	TRIAL	n/a	n/a	n/a	-999	-999	n/a	n/a	pyFR	0	TJ019
431.185	2.822	2525466	ORIENT	n/a	n/a	n/a	-999	-999	n/a	n/a	pyFR	0	TJ019
434.007	2.654	2528288	WORD	n/a	wordpools/wordpool_EN.txt	FARM	1	3	n/a	n/a	pyFR	0	TJ019
436.661	2.673	2530942	WORD	n/a	wordpools/wordpool_EN.txt	BED	2	3	n/a	n/a	pyFR	0	TJ019
439.334	2.721	2533615	WORD	n/a	wordpools/wordpool_EN.txt	LEAF	3	3	n/a	n/a	pyFR	0	TJ019
442.055	2.437	2536336	WORD	n/a	wordpools/wordpool_EN.txt	WEED	4	3	n/a	n/a	pyFR	0	TJ019
444.492	2.639	2538772	WORD	n/a	wordpools/wordpool_EN.txt	BANK	5	3	n/a	n/a	pyFR	0	TJ019
447.131	2.654	2541411	WORD	n/a	wordpools/wordpool_EN.txt	DOLL	6	3	n/a	n/a	pyFR	0	TJ019
449.785	2.755	2544065	WORD	n/a	wordpools/wordpool_EN.txt	DOG	7	3	n/a	n/a	pyFR	0	TJ019
452.54	2.706	2546820	WORD	n/a	wordpools/wordpool_EN.txt	PALM	8	3	n/a	n/a	pyFR	0	TJ019
455.246	2.437	2549526	WORD	n/a	wordpools/wordpool_EN.txt	STICK	9	3	n/a	n/a	pyFR	0	TJ019
457.683	2.639	2551963	WORD	n/a	wordpools/wordpool_EN.txt	FACE	10	3	n/a	n/a	pyFR	0	TJ019
460.322	2.521	2554602	WORD	n/a	wordpools/wordpool_EN.txt	BEE	11	3	n/a	n/a	pyFR	0	TJ019
462.843	2.638	2557123	WORD	n/a	wordpools/wordpool_EN.txt	CASH	12	3	n/a	n/a	pyFR	0	TJ019
465.481	2.739	2559761	WORD	n/a	wordpools/wordpool_EN.txt	LAMP	13	3	n/a	n/a	pyFR	0	TJ019
468.22	2.788	2562499	WORD	n/a	wordpools/wordpool_EN.txt	LAND	14	3	n/a	n/a	pyFR	0	TJ019
471.008	1.621	2565287	WORD	n/a	wordpools/wordpool_EN.txt	GLOVE	15	3	n/a	n/a	pyFR	0	TJ019
472.629	1.05	2566908	START	n/a	n/a	n/a	n/a	3	[-999 -999 -999]	-999	pyFR	0	TJ019
473.679	4.409	2567958	PROB	n/a	n/a	n/a	n/a	3	[4 5 9]	18	pyFR	0	TJ019
478.088	5.793	2572367	PROB	n/a	n/a	n/a	n/a	3	[3 9 4]	16	pyFR	0	TJ019
483.881	3.557	2578160	PROB	n/a	n/a	n/a	n/a	3	[6 5 6]	17	pyFR	0	TJ019
487.438	3.891	2581717	PROB	n/a	n/a	n/a	n/a	3	[8 5 2]	15	pyFR	0	TJ019
491.329	1.91	2585608	PROB	n/a	n/a	n/a	n/a	3	[2 1 1]	4	pyFR	0	TJ019
493.239	1.212	2587517	STOP	n/a	n/a	n/a	n/a	3	[-999 -999 -999]	-999	pyFR	0	TJ019
494.451	2.209	2588729	REC_START	n/a	n/a	n/a	-999	-999	n/a	n/a	pyFR	0	TJ019
496.66	0.471	2590938	REC_WORD	0.471	n/a	FARM	-999	3	n/a	n/a	pyFR	0	TJ019
497.131	0.417	2591409	REC_WORD	0.417	n/a	BED	-999	3	n/a	n/a	pyFR	0	TJ019
497.548	1.622	2591826	REC_WORD	1.622	n/a	DOG	-999	3	n/a	n/a	pyFR	0	TJ019
499.17	1.306	2593448	REC_WORD	1.306	n/a	CASH	-999	3	n/a	n/a	pyFR	0	TJ019
500.476	15.464	2594754	REC_WORD	15.464	n/a	LEAF	-999	3	n/a	n/a	pyFR	0	TJ019
515.94	1.0	2610218	REC_WORD	1.0	n/a	<>	-999	3	n/a	n/a	pyFR	0	TJ019
516.94	15.889	2611218	REC_WORD	15.889	n/a	<>	-999	3	n/a	n/a	pyFR	0	TJ019
532.829	9.778	2627106	REC_WORD	9.778	n/a	WEED	-999	3	n/a	n/a	pyFR	0	TJ019
542.607	0.015	2636884	TRIAL	n/a	n/a	n/a	-999	-999	n/a	n/a	pyFR	0	TJ019
542.622	2.922	2636899	ORIENT	n/a	n/a	n/a	-999	-999	n/a	n/a	pyFR	0	TJ019
545.544	2.673	2639820	WORD	n/a	wordpools/wordpool_EN.txt	LAKE	1	4	n/a	n/a	pyFR	0	TJ019
548.217	2.704	2642493	WORD	n/a	wordpools/wordpool_EN.txt	CLAY	2	4	n/a	n/a	pyFR	0	TJ019
550.921	2.672	2645197	WORD	n/a	wordpools/wordpool_EN.txt	ARK	3	4	n/a	n/a	pyFR	0	TJ019
553.593	2.739	2647869	WORD	n/a	wordpools/wordpool_EN.txt	DRUM	4	4	n/a	n/a	pyFR	0	TJ019
556.332	2.487	2650608	WORD	n/a	wordpools/wordpool_EN.txt	PEN	5	4	n/a	n/a	pyFR	0	TJ019
558.819	2.772	2653095	WORD	n/a	wordpools/wordpool_EN.txt	WORM	6	4	n/a	n/a	pyFR	0	TJ019
561.591	2.472	2655867	WORD	n/a	wordpools/wordpool_EN.txt	GLASS	7	4	n/a	n/a	pyFR	0	TJ019
564.063	2.654	2658339	WORD	n/a	wordpools/wordpool_EN.txt	CARD	8	4	n/a	n/a	pyFR	0	TJ019
566.717	2.522	2660993	WORD	n/a	wordpools/wordpool_EN.txt	FOG	9	4	n/a	n/a	pyFR	0	TJ019
569.239	2.772	2663514	WORD	n/a	wordpools/wordpool_EN.txt	LAMB	10	4	n/a	n/a	pyFR	0	TJ019
572.011	2.704	2666286	WORD	n/a	wordpools/wordpool_EN.txt	BEAN	11	4	n/a	n/a	pyFR	0	TJ019
574.715	2.738	2668990	WORD	n/a	wordpools/wordpool_EN.txt	JEEP	12	4	n/a	n/a	pyFR	0	TJ019
577.453	2.756	2671728	WORD	n/a	wordpools/wordpool_EN.txt	BUSH	13	4	n/a	n/a	pyFR	0	TJ019
580.209	2.704	2674484	WORD	n/a	wordpools/wordpool_EN.txt	STEAM	14	4	n/a	n/a	pyFR	0	TJ019
582.913	1.621	2677188	WORD	n/a	wordpools/wordpool_EN.txt	LIP	15	4	n/a	n/a	pyFR	0	TJ019
584.534	1.051	2678809	START	n/a	n/a	n/a	n/a	4	[-999 -999 -999]	-999	pyFR	0	TJ019
585.585	3.055	2679860	PROB	n/a	n/a	n/a	n/a	4	[7 1 4]	12	pyFR	0	TJ019
588.64	5.026	2682915	PROB	n/a	n/a	n/a	n/a	4	[4 4 7]	15	pyFR	0	TJ019
593.666	3.123	2687940	PROB	n/a	n/a	n/a	n/a	4	[1 4 5]	10	pyFR	0	TJ019
596.789	6.412	2691063	PROB	n/a	n/a	n/a	n/a	4	[8 6 7]	21	pyFR	0	TJ019
603.201	5.189	2697475	PROB	n/a	n/a	n/a	n/a	4	[9 7 7]	23	pyFR	0	TJ019
608.39	1.189	2702664	STOP	n/a	n/a	n/a	n/a	4	[-999 -999 -999]	-999	pyFR	0	TJ019
609.579	1.753	2703853	REC_START	n/a	n/a	n/a	-999	-999	n/a	n/a	pyFR	0	TJ019
611.332	0.308	2705606	REC_WORD	0.308	n/a	LAKE	-999	4	n/a	n/a	pyFR	0	TJ019
611.64	0.548	2705914	REC_WORD	0.548	n/a	CLAY	-999	4	n/a	n/a	pyFR	0	TJ019
612.188	1.596	2706462	REC_WORD	1.596	n/a	ARK	-999	4	n/a	n/a	pyFR	0	TJ019
613.784	0.36	2708058	REC_WORD	0.36	n/a	DEN	-999	4	n/a	n/a	pyFR	0	TJ019
614.144	1.013	2708418	REC_WORD	1.013	n/a	LEAF	-999	4	n/a	n/a	pyFR	0	TJ019
615.157	12.068	2709431	REC_WORD	12.068	n/a	STEAM	-999	4	n/a	n/a	pyFR	0	TJ019
627.225	30.027	2721498	REC_WORD	30.027	n/a	FOG	-999	4	n/a	n/a	pyFR	0	TJ019
657.252	0.015	2751524	TRIAL	n/a	n/a	n/a	-999	-999	n/a	n/a	pyFR	0	TJ019
657.267	2.839	2751539	ORIENT	n/a	n/a	n/a	-999	-999	n/a	n/a	pyFR	0	TJ019
660.106	2.587	2754378	WORD	n/a	wordpools/wordpool_EN.txt	CONE	1	5	n/a	n/a	pyFR	0	TJ019
662.693	2.539	2756965	WORD	n/a	wordpools/wordpool_EN.txt	GOLD	2	5	n/a	n/a	pyFR	0	TJ019
665.232	2.805	2759504	WORD	n/a	wordpools/wordpool_EN.txt	TENT	3	5	n/a	n/a	pyFR	0	TJ019
668.037	2.654	2762308	WORD	n/a	wordpools/wordpool_EN.txt	PIN	4	5	n/a	n/a	pyFR	0	TJ019
670.691	2.623	2764962	WORD	n/a	wordpools/wordpool_EN.txt	CAGE	5	5	n/a	n/a	pyFR	0	TJ019
673.314	2.821	2767585	WORD	n/a	wordpools/wordpool_EN.txt	BRICK	6	5	n/a	n/a	pyFR	0	TJ019
676.135	2.487	2770406	WORD	n/a	wordpools/wordpool_EN.txt	TOOTH	7	5	n/a	n/a	pyFR	0	TJ019
678.622	2.489	2772893	WORD	n/a	wordpools/wordpool_EN.txt	SWORD	8	5	n/a	n/a	pyFR	0	TJ019
681.111	2.554	2775382	WORD	n/a	wordpools/wordpool_EN.txt	PEA	9	5	n/a	n/a	pyFR	0	TJ019
683.665	2.722	2777936	WORD	n/a	wordpools/wordpool_EN.txt	RIB	10	5	n/a	n/a	pyFR	0	TJ019
686.387	2.639	2780658	WORD	n/a	wordpools/wordpool_EN.txt	STEM	11	5	n/a	n/a	pyFR	0	TJ019
689.026	2.553	2783297	WORD	n/a	wordpools/wordpool_EN.txt	BROOM	12	5	n/a	n/a	pyFR	0	TJ019
691.579	2.573	2785850	WORD	n/a	wordpools/wordpool_EN.txt	BLUSH	13	5	n/a	n/a	pyFR	0	TJ019
694.152	2.72	2788422	WORD	n/a	wordpools/wordpool_EN.txt	FOX	14	5	n/a	n/a	pyFR	0	TJ019
696.872	1.605	2791142	WORD	n/a	wordpools/wordpool_EN.txt	CROWN	15	5	n/a	n/a	pyFR	0	TJ019
698.477	1.017	2792747	START	n/a	n/a	n/a	n/a	5	[-999 -999 -999]	-999	pyFR	0	TJ019
699.494	5.143	2793764	PROB	n/a	n/a	n/a	n/a	5	[4 4 7]	15	pyFR	0	TJ019
704.637	3.507	2798907	PROB	n/a	n/a	n/a	n/a	5	[8 9 1]	18	pyFR	0	TJ019
708.144	2.587	2802414	PROB	n/a	n/a	n/a	n/a	5	[1 4 3]	8	pyFR	0	TJ019
710.731	2.906	2805001	PROB	n/a	n/a	n/a	n/a	5	[1 1 8]	10	pyFR	0	TJ019
713.637	2.354	2807907	PROB	n/a	n/a	n/a	n/a	5	[1 6 2]	9	pyFR	0	TJ019
715.991	2.951	2810261	PROB	n/a	n/a	n/a	n/a	5	[7 7 5]	19	pyFR	0	TJ019
718.942	1.057	2813211	STOP	n/a	n/a	n/a	n/a	5	[-999 -999 -999]	-999	pyFR	0	TJ019
719.999	4.557	2814268	REC_START	n/a	n/a	n/a	-999	-999	n/a	n/a	pyFR	0	TJ019
724.556	1.0	2818825	REC_WORD	1.0	n/a	<>	-999	5	n/a	n/a	pyFR	0	TJ019
725.556	1.723	2819825	REC_WORD	1.723	n/a	<>	-999	5	n/a	n/a	pyFR	0	TJ019
727.279	0.398	2821548	REC_WORD	0.398	n/a	CONE	-999	5	n/a	n/a	pyFR	0	TJ019
727.677	2.803	2821946	REC_WORD	2.803	n/a	FOG	-999	5	n/a	n/a	pyFR	0	TJ019
730.48	5.618	2824749	REC_WORD	5.618	n/a	RIB	-999	5	n/a	n/a	pyFR	0	TJ019
736.098	0.426	2830367	REC_WORD	0.426	n/a	<>	-999	5	n/a	n/a	pyFR	0	TJ019
736.524	0.529	2830793	REC_WORD	0.529	n/a	TOOTH	-999	5	n/a	n/a	pyFR	0	TJ019
737.053	0.768	2831322	REC_WORD	0.768	n/a	<>	-999	5	n/a	n/a	pyFR	0	TJ019
737.821	18.587	2832090	REC_WORD	18.587	n/a	TOOTH	-999	5	n/a	n/a	pyFR	0	TJ019
756.408	1.0	2850676	REC_WORD	1.0	n/a	STEAK	-999	5	n/a	n/a	pyFR	0	TJ019
757.408	76.284	2851676	REC_WORD	76.284	n/a	<>	-999	5	n/a	n/a	pyFR	0	TJ019
833.692	0.015	2927957	TRIAL	n/a	n/a	n/a	-999	-999	n/a	n/a	pyFR	0	TJ019
833.707	2.939	2927972	ORIENT	n/a	n/a	n/a	-999	-999	n/a	n/a	pyFR	0	TJ019
836.646	2.472	2930911	WORD	n/a	wordpools/wordpool_EN.txt	VASE	1	6	n/a	n/a	pyFR	0	TJ019
839.118	2.704	2933383	WORD	n/a	wordpools/wordpool_EN.txt	SMOKE	2	6	n/a	n/a	pyFR	0	TJ019
841.822	2.605	2936087	WORD	n/a	wordpools/wordpool_EN.txt	SOUP	3	6	n/a	n/a	pyFR	0	TJ019
844.427	2.656	2938691	WORD	n/a	wordpools/wordpool_EN.txt	GIRL	4	6	n/a	n/a	pyFR	0	TJ019
847.083	2.704	2941347	WORD	n/a	wordpools/wordpool_EN.txt	SHEET	5	6	n/a	n/a	pyFR	0	TJ019
849.787	2.621	2944051	WORD	n/a	wordpools/wordpool_EN.txt	KITE	6	6	n/a	n/a	pyFR	0	TJ019
852.408	2.773	2946672	WORD	n/a	wordpools/wordpool_EN.txt	SINK	7	6	n/a	n/a	pyFR	0	TJ019
855.181	2.587	2949445	WORD	n/a	wordpools/wordpool_EN.txt	SNOW	8	6	n/a	n/a	pyFR	0	TJ019
857.768	2.539	2952032	WORD	n/a	wordpools/wordpool_EN.txt	GATE	9	6	n/a	n/a	pyFR	0	TJ019
860.307	2.687	2954571	WORD	n/a	wordpools/wordpool_EN.txt	BRUSH	10	6	n/a	n/a	pyFR	0	TJ019
862.994	2.772	2957258	WORD	n/a	wordpools/wordpool_EN.txt	ROAD	11	6	n/a	n/a	pyFR	0	TJ019
865.766	2.705	2960030	WORD	n/a	wordpools/wordpool_EN.txt	CUP	12	6	n/a	n/a	pyFR	0	TJ019
868.471	2.455	2962734	WORD	n/a	wordpools/wordpool_EN.txt	WING	13	6	n/a	n/a	pyFR	0	TJ019
870.926	2.504	2965189	WORD	n/a	wordpools/wordpool_EN.txt	MOTH	14	6	n/a	n/a	pyFR	0	TJ019
873.43	1.606	2967693	WORD	n/a	wordpools/wordpool_EN.txt	BEAK	15	6	n/a	n/a	pyFR	0	TJ019
875.036	1.184	2969299	START	n/a	n/a	n/a	n/a	6	[-999 -999 -999]	-999	pyFR	0	TJ019
876.22	3.022	2970483	PROB	n/a	n/a	n/a	n/a	6	[3 1 2]	6	pyFR	0	TJ019
879.242	6.227	2973505	PROB	n/a	n/a	n/a	n/a	6	[7 4 9]	20	pyFR	0	TJ019
885.469	2.84	2979732	PROB	n/a	n/a	n/a	n/a	6	[4 9 1]	14	pyFR	0	TJ019
888.309	2.67	2982572	PROB	n/a	n/a	n/a	n/a	6	[2 4 7]	13	pyFR	0	TJ019
890.979	2.939	2985242	PROB	n/a	n/a	n/a	n/a	6	[9 3 6]	18	pyFR	0	TJ019
893.918	2.04	2988180	PROB	n/a	n/a	n/a	n/a	6	[3 4 6]	13	pyFR	0	TJ019
895.958	1.151	2990220	STOP	n/a	n/a	n/a	n/a	6	[-999 -999 -999]	-999	pyFR	0	TJ019
897.109	2.975	2991371	REC_START	n/a	n/a	n/a	-999	-999	n/a	n/a	pyFR	0	TJ019
900.084	1.067	2994346	REC_WORD	1.067	n/a	<>	-999	6	n/a	n/a	pyFR	0	TJ019
901.151	5.154	2995413	REC_WORD	5.154	n/a	<>	-999	6	n/a	n/a	pyFR	0	TJ019
906.305	0.294	3000567	REC_WORD	0.294	n/a	<>	-999	6	n/a	n/a	pyFR	0	TJ019
906.599	0.655	3000861	REC_WORD	0.655	n/a	GOAT	-999	6	n/a	n/a	pyFR	0	TJ019
907.254	1.225	3001516	REC_WORD	1.225	n/a	<>	-999	6	n/a	n/a	pyFR	0	TJ019
908.479	4.481	3002741	REC_WORD	4.481	n/a	FACE	-999	6	n/a	n/a	pyFR	0	TJ019
912.96	4.441	3007222	REC_WORD	4.441	n/a	SOUP	-999	6	n/a	n/a	pyFR	0	TJ019
917.401	28.33	3011663	REC_WORD	28.33	n/a	SHIRT	-999	6	n/a	n/a	pyFR	0	TJ019
945.731	0.015	3039991	TRIAL	n/a	n/a	n/a	-999	-999	n/a	n/a	pyFR	0	TJ019
945.746	2.623	3040006	ORIENT	n/a	n/a	n/a	-999	-999	n/a	n/a	pyFR	0	TJ019
948.369	2.604	3042629	WORD	n/a	wordpools/wordpool_EN.txt	TOOL	1	7	n/a	n/a	pyFR	0	TJ019
950.973	2.471	3045233	WORD	n/a	wordpools/wordpool_EN.txt	BOMB	2	7	n/a	n/a	pyFR	0	TJ019
953.444	2.589	3047704	WORD	n/a	wordpools/wordpool_EN.txt	PASTE	3	7	n/a	n/a	pyFR	0	TJ019
956.033	2.771	3050293	WORD	n/a	wordpools/wordpool_EN.txt	BARN	4	7	n/a	n/a	pyFR	0	TJ019
958.804	2.721	3053064	WORD	n/a	wordpools/wordpool_EN.txt	WHALE	5	7	n/a	n/a	pyFR	0	TJ019
961.525	2.539	3055785	WORD	n/a	wordpools/wordpool_EN.txt	FLEA	6	7	n/a	n/a	pyFR	0	TJ019
964.064	2.721	3058324	WORD	n/a	wordpools/wordpool_EN.txt	BOOT	7	7	n/a	n/a	pyFR	0	TJ019
966.785	2.738	3061045	WORD	n/a	wordpools/wordpool_EN.txt	DITCH	8	7	n/a	n/a	pyFR	0	TJ019
969.523	2.506	3063782	WORD	n/a	wordpools/wordpool_EN.txt	THREAD	9	7	n/a	n/a	pyFR	0	TJ019
972.029	2.721	3066288	WORD	n/a	wordpools/wordpool_EN.txt	FORT	10	7	n/a	n/a	pyFR	0	TJ019
974.75	2.772	3069009	WORD	n/a	wordpools/wordpool_EN.txt	YARD	11	7	n/a	n/a	pyFR	0	TJ019
977.522	2.639	3071781	WORD	n/a	wordpools/wordpool_EN.txt	ELF	12	7	n/a	n/a	pyFR	0	TJ019
980.161	2.687	3074420	WORD	n/a	wordpools/wordpool_EN.txt	PLANE	13	7	n/a	n/a	pyFR	0	TJ019
982.848	2.489	3077107	WORD	n/a	wordpools/wordpool_EN.txt	SEAT	14	7	n/a	n/a	pyFR	0	TJ019
985.337	1.62	3079596	WORD	n/a	wordpools/wordpool_EN.txt	SOCK	15	7	n/a	n/a	pyFR	0	TJ019
986.957	1.168	3081216	START	n/a	n/a	n/a	n/a	7	[-999 -999 -999]	-999	pyFR	0	TJ019
988.125	4.457	3082384	PROB	n/a	n/a	n/a	n/a	7	[3 5 9]	17	pyFR	0	TJ019
992.582	2.606	3086841	PROB	n/a	n/a	n/a	n/a	7	[5 6 5]	16	pyFR	0	TJ019
995.188	2.37	3089446	PROB	n/a	n/a	n/a	n/a	7	[1 2 6]	9	pyFR	0	TJ019
997.558	4.375	3091816	PROB	n/a	n/a	n/a	n/a	7	[5 9 4]	18	pyFR	0	TJ019
1001.933	3.59	3096191	PROB	n/a	n/a	n/a	n/a	7	[8 5 1]	14	pyFR	0	TJ019
1005.523	2.331	3099781	PROB	n/a	n/a	n/a	n/a	7	[3 2 9]	14	pyFR	0	TJ019
1007.854	1.059	3102112	STOP	n/a	n/a	n/a	n/a	7	[-999 -999 -999]	-999	pyFR	0	TJ019
1008.913	1.194	3103171	REC_START	n/a	n/a	n/a	-999	-999	n/a	n/a	pyFR	0	TJ019
1010.107	3.116	3104365	REC_WORD	3.116	n/a	TOOL	-999	7	n/a	n/a	pyFR	0	TJ019
1013.223	3.44	3107481	REC_WORD	3.44	n/a	BARN	-999	7	n/a	n/a	pyFR	0	TJ019
1016.663	15.306	3110921	REC_WORD	15.306	n/a	SOCK	-999	7	n/a	n/a	pyFR	0	TJ019
1031.969	21.318	3126226	REC_WORD	21.318	n/a	YARD	-999	7	n/a	n/a	pyFR	0	TJ019
1053.287	3.331	3147543	REC_WORD	3.331	n/a	SHAPE	-999	7	n/a	n/a	pyFR	0	TJ019
1056.618	0.015	3150874	TRIAL	n/a	n/a	n/a	-999	-999	n/a	n/a	pyFR	0	TJ019
1056.633	2.923	3150889	ORIENT	n/a	n/a	n/a	-999	-999	n/a	n/a	pyFR	0	TJ019
1059.556	2.806	3153812	WORD	n/a	wordpools/wordpool_EN.txt	MOON	1	8	n/a	n/a	pyFR	0	TJ019
1062.362	2.587	3156618	WORD	n/a	wordpools/wordpool_EN.txt	HAND	2	8	n/a	n/a	pyFR	0	TJ019
1064.949	2.604	3159205	WORD	n/a	wordpools/wordpool_EN.txt	OAR	3	8	n/a	n/a	pyFR	0	TJ019
1067.553	2.673	3161809	WORD	n/a	wordpools/wordpool_EN.txt	BOARD	4	8	n/a	n/a	pyFR	0	TJ019
1070.226	2.789	3164481	WORD	n/a	wordpools/wordpool_EN.txt	PLATE	5	8	n/a	n/a	pyFR	0	TJ019
1073.015	2.587	3167270	WORD	n/a	wordpools/wordpool_EN.txt	DOCK	6	8	n/a	n/a	pyFR	0	TJ019
1075.602	2.555	3169857	WORD	n/a	wordpools/wordpool_EN.txt	PIPE	7	8	n/a	n/a	pyFR	0	TJ019
1078.157	2.571	3172412	WORD	n/a	wordpools/wordpool_EN.txt	PRINCE	8	8	n/a	n/a	pyFR	0	TJ019
1080.728	2.772	3174983	WORD	n/a	wordpools/wordpool_EN.txt	SHRIMP	9	8	n/a	n/a	pyFR	0	TJ019
1083.5	2.756	3177755	WORD	n/a	wordpools/wordpool_EN.txt	MAP	10	8	n/a	n/a	pyFR	0	TJ019
1086.256	2.603	3180511	WORD	n/a	wordpools/wordpool_EN.txt	VEST	11	8	n/a	n/a	pyFR	0	TJ019
1088.859	2.722	3183114	WORD	n/a	wordpools/wordpool_EN.txt	MUG	12	8	n/a	n/a	pyFR	0	TJ019
1091.581	2.472	3185836	WORD	n/a	wordpools/wordpool_EN.txt	CRANE	13	8	n/a	n/a	pyFR	0	TJ019
1094.053	2.521	3188307	WORD	n/a	wordpools/wordpool_EN.txt	OWL	14	8	n/a	n/a	pyFR	0	TJ019
1096.574	1.605	3190828	WORD	n/a	wordpools/wordpool_EN.txt	JAIL	15	8	n/a	n/a	pyFR	0	TJ019
1098.179	0.934	3192433	START	n/a	n/a	n/a	n/a	8	[-999 -999 -999]	-999	pyFR	0	TJ019
1099.113	3.288	3193367	PROB	n/a	n/a	n/a	n/a	8	[8 1 3]	12	pyFR	0	TJ019
1102.401	2.823	3196655	PROB	n/a	n/a	n/a	n/a	8	[6 5 4]	15	pyFR	0	TJ019
1105.224	2.553	3199478	PROB	n/a	n/a	n/a	n/a	8	[3 1 4]	8	pyFR	0	TJ019
1107.777	2.339	3202031	PROB	n/a	n/a	n/a	n/a	8	[5 5 6]	16	pyFR	0	TJ019
1110.116	1.635	3204370	PROB	n/a	n/a	n/a	n/a	8	[2 2 2]	6	pyFR	0	TJ019
1111.751	3.941	3206005	PROB	n/a	n/a	n/a	n/a	8	[6 7 5]	18	pyFR	0	TJ019
1115.692	1.654	3209946	PROB	n/a	n/a	n/a	n/a	8	[1 8 2]	11	pyFR	0	TJ019
1117.346	3.013	3211600	PROB	n/a	n/a	n/a	n/a	8	[4 7 8]	19	pyFR	0	TJ019
1120.359	1.211	3214612	STOP	n/a	n/a	n/a	n/a	8	[-999 -999 -999]	-999	pyFR	0	TJ019
1121.57	2.4	3215823	REC_START	n/a	n/a	n/a	-999	-999	n/a	n/a	pyFR	0	TJ019
1123.97	0.467	3218223	REC_WORD	0.467	n/a	JAIL	-999	8	n/a	n/a	pyFR	0	TJ019
1124.437	4.884	3218690	REC_WORD	4.884	n/a	CRANE	-999	8	n/a	n/a	pyFR	0	TJ019
1129.321	13.581	3223574	REC_WORD	13.581	n/a	OWL	-999	8	n/a	n/a	pyFR	0	TJ019
1142.902	0.266	3237154	REC_WORD	0.266	n/a	<>	-999	8	n/a	n/a	pyFR	0	TJ019
1143.168	0.55	3237420	REC_WORD	0.55	n/a	MOON	-999	8	n/a	n/a	pyFR	0	TJ019
1143.718	17.901	3237970	REC_WORD	17.901	n/a	<>	-999	8	n/a	n/a	pyFR	0	TJ019
1161.619	1.0	3255871	REC_WORD	1.0	n/a	<>	-999	8	n/a	n/a	pyFR	0	TJ019
1162.619	2.914	3256871	REC_WORD	2.914	n/a	<>	-999	8	n/a	n/a	pyFR	0	TJ019
1165.533	5.912	3259785	REC_WORD	5.912	n/a	<>	-999	8	n/a	n/a	pyFR	0	TJ019
1171.445	0.016	3265696	TRIAL	n/a	n/a	n/a	-999	-999	n/a	n/a	pyFR	0	TJ019
1171.461	2.922	3265712	ORIENT	n/a	n/a	n/a	-999	-999	n/a	n/a	pyFR	0	TJ019
1174.383	2.421	3268634	WORD	n/a	wordpools/wordpool_EN.txt	BEACH	1	9	n/a	n/a	pyFR	0	TJ019
1176.804	2.456	3271055	WORD	n/a	wordpools/wordpool_EN.txt	LAWN	2	9	n/a	n/a	pyFR	0	TJ019
1179.26	2.537	3273511	WORD	n/a	wordpools/wordpool_EN.txt	CAVE	3	9	n/a	n/a	pyFR	0	TJ019
1181.797	2.489	3276048	WORD	n/a	wordpools/wordpool_EN.txt	POND	4	9	n/a	n/a	pyFR	0	TJ019
1184.286	2.436	3278537	WORD	n/a	wordpools/wordpool_EN.txt	FAN	5	9	n/a	n/a	pyFR	0	TJ019
1186.722	2.523	3280973	WORD	n/a	wordpools/wordpool_EN.txt	TOY	6	9	n/a	n/a	pyFR	0	TJ019
1189.245	2.437	3283496	WORD	n/a	wordpools/wordpool_EN.txt	BELL	7	9	n/a	n/a	pyFR	0	TJ019
1191.682	2.639	3285933	WORD	n/a	wordpools/wordpool_EN.txt	PIT	8	9	n/a	n/a	pyFR	0	TJ019
1194.321	2.537	3288571	WORD	n/a	wordpools/wordpool_EN.txt	WAVE	9	9	n/a	n/a	pyFR	0	TJ019
1196.858	2.655	3291108	WORD	n/a	wordpools/wordpool_EN.txt	WOLF	10	9	n/a	n/a	pyFR	0	TJ019
1199.513	2.539	3293763	WORD	n/a	wordpools/wordpool_EN.txt	NAIL	11	9	n/a	n/a	pyFR	0	TJ019
1202.052	2.553	3296302	WORD	n/a	wordpools/wordpool_EN.txt	SPARK	12	9	n/a	n/a	pyFR	0	TJ019
1204.605	2.539	3298855	WORD	n/a	wordpools/wordpool_EN.txt	NET	13	9	n/a	n/a	pyFR	0	TJ019
1207.144	2.571	3301394	WORD	n/a	wordpools/wordpool_EN.txt	SLEEVE	14	9	n/a	n/a	pyFR	0	TJ019
1209.715	1.622	3303965	WORD	n/a	wordpools/wordpool_EN.txt	GRASS	15	9	n/a	n/a	pyFR	0	TJ019
1211.337	0.833	3305587	START	n/a	n/a	n/a	n/a	9	[-999 -999 -999]	-999	pyFR	0	TJ019
1212.17	6.828	3306420	PROB	n/a	n/a	n/a	n/a	9	[4 4 5]	13	pyFR	0	TJ019
1218.998	3.291	3313247	PROB	n/a	n/a	n/a	n/a	9	[7 5 6]	18	pyFR	0	TJ019
1222.289	2.086	3316538	PROB	n/a	n/a	n/a	n/a	9	[1 1 3]	5	pyFR	0	TJ019
1224.375	3.206	3318624	PROB	n/a	n/a	n/a	n/a	9	[4 8 3]	15	pyFR	0	TJ019
1227.581	3.356	3321830	PROB	n/a	n/a	n/a	n/a	9	[5 8 3]	16	pyFR	0	TJ019
1230.937	5.366	3325186	PROB	n/a	n/a	n/a	n/a	9	[7 9 3]	19	pyFR	0	TJ019
1236.303	1.048	3330552	STOP	n/a	n/a	n/a	n/a	9	[-999 -999 -999]	-999	pyFR	0	TJ019
1237.351	1.311	3331600	REC_START	n/a	n/a	n/a	-999	-999	n/a	n/a	pyFR	0	TJ019
1238.662	2.011	3332911	REC_WORD	2.011	n/a	GRASS	-999	9	n/a	n/a	pyFR	0	TJ019
1240.673	2.396	3334922	REC_WORD	2.396	n/a	TOOL	-999	9	n/a	n/a	pyFR	0	TJ019
1243.069	7.832	3337317	REC_WORD	7.832	n/a	SLEEVE	-999	9	n/a	n/a	pyFR	0	TJ019
1250.901	9.159	3345149	REC_WORD	9.159	n/a	<>	-999	9	n/a	n/a	pyFR	0	TJ019
1260.06	24.995	3354308	REC_WORD	24.995	n/a	TOY	-999	9	n/a	n/a	pyFR	0	TJ019
1285.055	0.016	3379302	TRIAL	n/a	n/a	n/a	-999	-999	n/a	n/a	pyFR	0	TJ019
1285.071	2.787	3379318	ORIENT	n/a	n/a	n/a	-999	-999	n/a	n/a	pyFR	0	TJ019
1287.858	2.572	3382105	WORD	n/a	wordpools/wordpool_EN.txt	BRIDGE	1	10	n/a	n/a	pyFR	0	TJ019
1290.43	2.504	3384677	WORD	n/a	wordpools/wordpool_EN.txt	FISH	2	10	n/a	n/a	pyFR	0	TJ019
1292.934	2.538	3387180	WORD	n/a	wordpools/wordpool_EN.txt	TIE	3	10	n/a	n/a	pyFR	0	TJ019
1295.472	2.488	3389718	WORD	n/a	wordpools/wordpool_EN.txt	BAT	4	10	n/a	n/a	pyFR	0	TJ019
1297.96	2.555	3392206	WORD	n/a	wordpools/wordpool_EN.txt	CHAIR	5	10	n/a	n/a	pyFR	0	TJ019
1300.515	2.673	3394761	WORD	n/a	wordpools/wordpool_EN.txt	PURSE	6	10	n/a	n/a	pyFR	0	TJ019
1303.188	2.62	3397434	WORD	n/a	wordpools/wordpool_EN.txt	DOOR	7	10	n/a	n/a	pyFR	0	TJ019
1305.808	2.455	3400054	WORD	n/a	wordpools/wordpool_EN.txt	KING	8	10	n/a	n/a	pyFR	0	TJ019
1308.263	2.554	3402509	WORD	n/a	wordpools/wordpool_EN.txt	SOAP	9	10	n/a	n/a	pyFR	0	TJ019
1310.817	2.556	3405063	WORD	n/a	wordpools/wordpool_EN.txt	BATH	10	10	n/a	n/a	pyFR	0	TJ019
1313.373	2.722	3407619	WORD	n/a	wordpools/wordpool_EN.txt	SHOE	11	10	n/a	n/a	pyFR	0	TJ019
1316.095	2.67	3410341	WORD	n/a	wordpools/wordpool_EN.txt	SAIL	12	10	n/a	n/a	pyFR	0	TJ019
1318.765	2.556	3413010	WORD	n/a	wordpools/wordpool_EN.txt	TRASH	13	10	n/a	n/a	pyFR	0	TJ019
1321.321	2.487	3415566	WORD	n/a	wordpools/wordpool_EN.txt	DIME	14	10	n/a	n/a	pyFR	0	TJ019
1323.808	1.621	3418053	WORD	n/a	wordpools/wordpool_EN.txt	FUR	15	10	n/a	n/a	pyFR	0	TJ019
1325.429	1.034	3419674	START	n/a	n/a	n/a	n/a	10	[-999 -999 -999]	-999	pyFR	0	TJ019
1326.463	2.856	3420708	PROB	n/a	n/a	n/a	n/a	10	[1 6 1]	8	pyFR	0	TJ019
1329.319	2.32	3423564	PROB	n/a	n/a	n/a	n/a	10	[4 1 6]	11	pyFR	0	TJ019
1331.639	3.172	3425884	PROB	n/a	n/a	n/a	n/a	10	[7 1 3]	11	pyFR	0	TJ019
1334.811	2.956	3429056	PROB	n/a	n/a	n/a	n/a	10	[8 2 7]	17	pyFR	0	TJ019
1337.767	2.255	3432012	PROB	n/a	n/a	n/a	n/a	10	[5 4 1]	10	pyFR	0	TJ019
1340.022	2.187	3434267	PROB	n/a	n/a	n/a	n/a	10	[9 9 2]	20	pyFR	0	TJ019
1342.209	4.293	3436454	PROB	n/a	n/a	n/a	n/a	10	[5 4 7]	16	pyFR	0	TJ019
1346.502	1.2	3440746	STOP	n/a	n/a	n/a	n/a	10	[-999 -999 -999]	-999	pyFR	0	TJ019
1347.702	3.993	3441946	REC_START	n/a	n/a	n/a	-999	-999	n/a	n/a	pyFR	0	TJ019
1351.695	3.682	3445939	REC_WORD	3.682	n/a	<>	-999	10	n/a	n/a	pyFR	0	TJ019
1355.377	0.756	3449621	REC_WORD	0.756	n/a	<>	-999	10	n/a	n/a	pyFR	0	TJ019
1356.133	6.934	3450377	REC_WORD	6.934	n/a	SAIL	-999	10	n/a	n/a	pyFR	0	TJ019
1363.067	9.383	3457311	REC_WORD	9.383	n/a	<>	-999	10	n/a	n/a	pyFR	0	TJ019
1372.45	1.0	3466693	REC_WORD	1.0	n/a	<>	-999	10	n/a	n/a	pyFR	0	TJ019
1373.45	16.352	3467693	REC_WORD	16.352	n/a	<>	-999	10	n/a	n/a	pyFR	0	TJ019
1389.802	1.0	3484045	REC_WORD	1.0	n/a	<>	-999	10	n/a	n/a	pyFR	0	TJ019
1390.802	6.242	3485045	REC_WORD	6.242	n/a	<>	-999	10	n/a	n/a	pyFR	0	TJ019
1397.044	0.016	3491286	TRIAL	n/a	n/a	n/a	-999	-999	n/a	n/a	pyFR	0	TJ019
1397.06	2.771	3491302	ORIENT	n/a	n/a	n/a	-999	-999	n/a	n/a	pyFR	0	TJ019
1399.831	2.738	3494073	WORD	n/a	wordpools/wordpool_EN.txt	EEL	1	11	n/a	n/a	pyFR	0	TJ019
1402.569	2.656	3496811	WORD	n/a	wordpools/wordpool_EN.txt	CALF	2	11	n/a	n/a	pyFR	0	TJ019
1405.225	2.621	3499467	WORD	n/a	wordpools/wordpool_EN.txt	JUDGE	3	11	n/a	n/a	pyFR	0	TJ019
1407.846	2.438	3502088	WORD	n/a	wordpools/wordpool_EN.txt	BOX	4	11	n/a	n/a	pyFR	0	TJ019
1410.284	2.571	3504526	WORD	n/a	wordpools/wordpool_EN.txt	DAD	5	11	n/a	n/a	pyFR	0	TJ019
1412.855	2.638	3507097	WORD	n/a	wordpools/wordpool_EN.txt	TREE	6	11	n/a	n/a	pyFR	0	TJ019
1415.493	2.438	3509735	WORD	n/a	wordpools/wordpool_EN.txt	CORN	7	11	n/a	n/a	pyFR	0	TJ019
1417.931	2.571	3512172	WORD	n/a	wordpools/wordpool_EN.txt	STORE	8	11	n/a	n/a	pyFR	0	TJ019
1420.502	2.773	3514743	WORD	n/a	wordpools/wordpool_EN.txt	ROSE	9	11	n/a	n/a	pyFR	0	TJ019
1423.275	2.772	3517516	WORD	n/a	wordpools/wordpool_EN.txt	CAR	10	11	n/a	n/a	pyFR	0	TJ019
1426.047	2.603	3520288	WORD	n/a	wordpools/wordpool_EN.txt	PIG	11	11	n/a	n/a	pyFR	0	TJ019
1428.65	2.656	3522891	WORD	n/a	wordpools/wordpool_EN.txt	MOLE	12	11	n/a	n/a	pyFR	0	TJ019
1431.306	2.554	3525547	WORD	n/a	wordpools/wordpool_EN.txt	ROOT	13	11	n/a	n/a	pyFR	0	TJ019
1433.86	2.588	3528101	WORD	n/a	wordpools/wordpool_EN.txt	BLOOM	14	11	n/a	n/a	pyFR	0	TJ019
1436.448	1.605	3530689	WORD	n/a	wordpools/wordpool_EN.txt	DUCK	15	11	n/a	n/a	pyFR	0	TJ019
1438.053	0.9	3532294	START	n/a	n/a	n/a	n/a	11	[-999 -999 -999]	-999	pyFR	0	TJ019
1438.953	5.177	3533194	PROB	n/a	n/a	n/a	n/a	11	[6 3 8]	17	pyFR	0	TJ019
1444.13	2.004	3538370	PROB	n/a	n/a	n/a	n/a	11	[3 1 7]	11	pyFR	0	TJ019
1446.134	1.852	3540374	PROB	n/a	n/a	n/a	n/a	11	[4 3 6]	13	pyFR	0	TJ019
1447.986	2.205	3542226	PROB	n/a	n/a	n/a	n/a	11	[7 6 1]	12	pyFR	0	TJ019
1450.191	3.372	3544431	PROB	n/a	n/a	n/a	n/a	11	[1 6 5]	12	pyFR	0	TJ019
1453.563	3.907	3547803	PROB	n/a	n/a	n/a	n/a	11	[8 8 4]	20	pyFR	0	TJ019
1457.47	3.936	3551710	PROB	n/a	n/a	n/a	n/a	11	[4 7 6]	17	pyFR	0	TJ019
1461.406	1.174	3555646	STOP	n/a	n/a	n/a	n/a	11	[-999 -999 -999]	-999	pyFR	0	TJ019
1462.58	0.966	3556820	REC_START	n/a	n/a	n/a	-999	-999	n/a	n/a	pyFR	0	TJ019
1463.546	0.886	3557786	REC_WORD	0.886	n/a	TREE	-999	11	n/a	n/a	pyFR	0	TJ019
1464.432	7.109	3558672	REC_WORD	7.109	n/a	ROSE	-999	11	n/a	n/a	pyFR	0	TJ019
1471.541	18.048	3565780	REC_WORD	18.048	n/a	CALF	-999	11	n/a	n/a	pyFR	0	TJ019
1489.589	10.004	3583828	REC_WORD	10.004	n/a	LEG	-999	11	n/a	n/a	pyFR	0	TJ019
1499.593	11.343	3593831	REC_WORD	11.343	n/a	BROOM	-999	11	n/a	n/a	pyFR	0	TJ019
1510.936	0.015	3605174	TRIAL	n/a	n/a	n/a	-999	-999	n/a	n/a	pyFR	0	TJ019
1510.951	2.956	3605189	ORIENT	n/a	n/a	n/a	-999	-999	n/a	n/a	pyFR	0	TJ019
1513.907	2.621	3608145	WORD	n/a	wordpools/wordpool_EN.txt	WOOD	1	12	n/a	n/a	pyFR	0	TJ019
1516.528	2.79	3610766	WORD	n/a	wordpools/wordpool_EN.txt	HORSE	2	12	n/a	n/a	pyFR	0	TJ019
1519.318	2.654	3613555	WORD	n/a	wordpools/wordpool_EN.txt	DRESS	3	12	n/a	n/a	pyFR	0	TJ019
1521.972	2.655	3616209	WORD	n/a	wordpools/wordpool_EN.txt	ROOM	4	12	n/a	n/a	pyFR	0	TJ019
1524.627	2.489	3618864	WORD	n/a	wordpools/wordpool_EN.txt	MOUTH	5	12	n/a	n/a	pyFR	0	TJ019
1527.116	2.52	3621353	WORD	n/a	wordpools/wordpool_EN.txt	CLOWN	6	12	n/a	n/a	pyFR	0	TJ019
1529.636	2.772	3623873	WORD	n/a	wordpools/wordpool_EN.txt	HOLE	7	12	n/a	n/a	pyFR	0	TJ019
1532.408	2.538	3626645	WORD	n/a	wordpools/wordpool_EN.txt	BREAD	8	12	n/a	n/a	pyFR	0	TJ019
1534.946	2.755	3629183	WORD	n/a	wordpools/wordpool_EN.txt	NOSE	9	12	n/a	n/a	pyFR	0	TJ019
1537.701	2.455	3631938	WORD	n/a	wordpools/wordpool_EN.txt	HOSE	10	12	n/a	n/a	pyFR	0	TJ019
1540.156	2.771	3634393	WORD	n/a	wordpools/wordpool_EN.txt	SPRING	11	12	n/a	n/a	pyFR	0	TJ019
1542.927	2.439	3637163	WORD	n/a	wordpools/wordpool_EN.txt	PARK	12	12	n/a	n/a	pyFR	0	TJ019
1545.366	2.604	3639602	WORD	n/a	wordpools/wordpool_EN.txt	SHARK	13	12	n/a	n/a	pyFR	0	TJ019
1547.97	2.721	3642206	WORD	n/a	wordpools/wordpool_EN.txt	ROCK	14	12	n/a	n/a	pyFR	0	TJ019
1550.691	1.606	3644927	WORD	n/a	wordpools/wordpool_EN.txt	HAWK	15	12	n/a	n/a	pyFR	0	TJ019
1552.297	1.166	3646533	START	n/a	n/a	n/a	n/a	12	[-999 -999 -999]	-999	pyFR	0	TJ019
1553.463	3.808	3647699	PROB	n/a	n/a	n/a	n/a	12	[2 9 8]	19	pyFR	0	TJ019
1557.271	4.257	3651507	PROB	n/a	n/a	n/a	n/a	12	[6 8 9]	23	pyFR	0	TJ019
1561.528	5.143	3655764	PROB	n/a	n/a	n/a	n/a	12	[2 8 7]	17	pyFR	0	TJ019
1566.671	2.988	3660907	PROB	n/a	n/a	n/a	n/a	12	[4 1 8]	13	pyFR	0	TJ019
1569.659	4.043	3663894	PROB	n/a	n/a	n/a	n/a	12	[8 7 8]	23	pyFR	0	TJ019
1573.702	1.067	3667937	STOP	n/a	n/a	n/a	n/a	12	[-999 -999 -999]	-999	pyFR	0	TJ019
1574.769	1.45	3669004	REC_START	n/a	n/a	n/a	-999	-999	n/a	n/a	pyFR	0	TJ019
1576.219	0.287	3670454	REC_WORD	0.287	n/a	WOOD	-999	12	n/a	n/a	pyFR	0	TJ019
1576.506	0.861	3670741	REC_WORD	0.861	n/a	HORSE	-999	12	n/a	n/a	pyFR	0	TJ019
1577.367	0.457	3671602	REC_WORD	0.457	n/a	DRESS	-999	12	n/a	n/a	pyFR	0	TJ019
1577.824	1.474	3672059	REC_WORD	1.474	n/a	ROOM	-999	12	n/a	n/a	pyFR	0	TJ019
1579.298	4.791	3673533	REC_WORD	4.791	n/a	ROCK	-999	12	n/a	n/a	pyFR	0	TJ019
1584.089	21.303	3678324	REC_WORD	21.303	n/a	NOSE	-999	12	n/a	n/a	pyFR	0	TJ019
1605.392	0.439	3699626	REC_WORD	0.439	n/a	CLOWN	-999	12	n/a	n/a	pyFR	0	TJ019
1605.831	1.0	3700065	REC_WORD	1.0	n/a	<>	-999	12	n/a	n/a	pyFR	0	TJ019
1606.831	150.725	3701065	REC_WORD	150.725	n/a	<>	-999	12	n/a	n/a	pyFR	0	TJ019
1757.556	0.015	3851784	TRIAL	n/a	n/a	n/a	-999	-999	n/a	n/a	pyFR	0	TJ019
1757.571	2.673	3851799	ORIENT	n/a	n/a	n/a	-999	-999	n/a	n/a	pyFR	0	TJ019
1760.244	2.62	3854472	WORD	n/a	wordpools/wordpool_EN.txt	GUARD	1	13	n/a	n/a	pyFR	0	TJ019
1762.864	2.555	3857092	WORD	n/a	wordpools/wordpool_EN.txt	PEACH	2	13	n/a	n/a	pyFR	0	TJ019
1765.419	2.623	3859647	WORD	n/a	wordpools/wordpool_EN.txt	CROW	3	13	n/a	n/a	pyFR	0	TJ019
1768.042	2.737	3862269	WORD	n/a	wordpools/wordpool_EN.txt	VINE	4	13	n/a	n/a	pyFR	0	TJ019
1770.779	2.722	3865006	WORD	n/a	wordpools/wordpool_EN.txt	JET	5	13	n/a	n/a	pyFR	0	TJ019
1773.501	2.806	3867728	WORD	n/a	wordpools/wordpool_EN.txt	NEST	6	13	n/a	n/a	pyFR	0	TJ019
1776.307	2.654	3870534	WORD	n/a	wordpools/wordpool_EN.txt	STAIR	7	13	n/a	n/a	pyFR	0	TJ019
1778.961	2.504	3873188	WORD	n/a	wordpools/wordpool_EN.txt	SWAMP	8	13	n/a	n/a	pyFR	0	TJ019
1781.465	2.589	3875692	WORD	n/a	wordpools/wordpool_EN.txt	SEAL	9	13	n/a	n/a	pyFR	0	TJ019
1784.054	2.754	3878281	WORD	n/a	wordpools/wordpool_EN.txt	PIE	10	13	n/a	n/a	pyFR	0	TJ019
1786.808	2.489	3881035	WORD	n/a	wordpools/wordpool_EN.txt	HOOK	11	13	n/a	n/a	pyFR	0	TJ019
1789.297	2.537	3883524	WORD	n/a	wordpools/wordpool_EN.txt	SLUSH	12	13	n/a	n/a	pyFR	0	TJ019
1791.834	2.789	3886061	WORD	n/a	wordpools/wordpool_EN.txt	CART	13	13	n/a	n/a	pyFR	0	TJ019
1794.623	2.672	3888849	WORD	n/a	wordpools/wordpool_EN.txt	STORM	14	13	n/a	n/a	pyFR	0	TJ019
1797.295	1.621	3891521	WORD	n/a	wordpools/wordpool_EN.txt	FLAME	15	13	n/a	n/a	pyFR	0	TJ019
1798.916	1.016	3893142	START	n/a	n/a	n/a	n/a	13	[-999 -999 -999]	-999	pyFR	0	TJ019
1799.932	3.924	3894158	PROB	n/a	n/a	n/a	n/a	13	[2 8 5]	15	pyFR	0	TJ019
1803.856	2.289	3898082	PROB	n/a	n/a	n/a	n/a	13	[2 5 4]	11	pyFR	0	TJ019
1806.145	1.954	3900371	PROB	n/a	n/a	n/a	n/a	13	[6 3 3]	12	pyFR	0	TJ019
1808.099	3.022	3902325	PROB	n/a	n/a	n/a	n/a	13	[9 4 2]	15	pyFR	0	TJ019
1811.121	2.888	3905347	PROB	n/a	n/a	n/a	n/a	13	[9 3 6]	18	pyFR	0	TJ019
1814.009	1.92	3908235	PROB	n/a	n/a	n/a	n/a	13	[3 5 4]	12	pyFR	0	TJ019
1815.929	3.15	3910155	PROB	n/a	n/a	n/a	n/a	13	[5 9 1]	14	pyFR	0	TJ019
1819.079	1.076	3913304	STOP	n/a	n/a	n/a	n/a	13	[-999 -999 -999]	-999	pyFR	0	TJ019
1820.155	1.313	3914380	REC_START	n/a	n/a	n/a	-999	-999	n/a	n/a	pyFR	0	TJ019
1821.468	0.121	3915693	REC_WORD	0.121	n/a	<>	-999	13	n/a	n/a	pyFR	0	TJ019
1821.589	1.071	3915814	REC_WORD	1.071	n/a	SLUSH	-999	13	n/a	n/a	pyFR	0	TJ019
1822.66	0.732	3916885	REC_WORD	0.732	n/a	PIE	-999	13	n/a	n/a	pyFR	0	TJ019
1823.392	5.075	3917617	REC_WORD	5.075	n/a	PEACH	-999	13	n/a	n/a	pyFR	0	TJ019
1828.467	3.028	3922692	REC_WORD	3.028	n/a	JET	-999	13	n/a	n/a	pyFR	0	TJ019
1831.495	8.855	3925720	REC_WORD	8.855	n/a	STAIR	-999	13	n/a	n/a	pyFR	0	TJ019
1840.35	18.792	3934575	REC_WORD	18.792	n/a	<>	-999	13	n/a	n/a	pyFR	0	TJ019
1859.142	4.204	3953366	REC_WORD	4.204	n/a	<>	-999	13	n/a	n/a	pyFR	0	TJ019
1863.346	0.328	3957570	REC_WORD	0.328	n/a	<>	-999	13	n/a	n/a	pyFR	0	TJ019
1863.674	0.255	3957898	REC_WORD	0.255	n/a	WOOD	-999	13	n/a	n/a	pyFR	0	TJ019
1863.929	4.097	3958153	REC_WORD	4.097	n/a	<>	-999	13	n/a	n/a	pyFR	0	TJ019
1868.026	0.016	3962249	TRIAL	n/a	n/a	n/a	-999	-999	n/a	n/a	pyFR	0	TJ019
1868.042	2.754	3962265	ORIENT	n/a	n/a	n/a	-999	-999	n/a	n/a	pyFR	0	TJ019
1870.796	2.506	3965019	WORD	n/a	wordpools/wordpool_EN.txt	ZOO	1	14	n/a	n/a	pyFR	0	TJ019
1873.302	2.487	3967525	WORD	n/a	wordpools/wordpool_EN.txt	WAND	2	14	n/a	n/a	pyFR	0	TJ019
1875.789	2.705	3970012	WORD	n/a	wordpools/wordpool_EN.txt	SUIT	3	14	n/a	n/a	pyFR	0	TJ019
1878.494	2.437	3972717	WORD	n/a	wordpools/wordpool_EN.txt	HOOF	4	14	n/a	n/a	pyFR	0	TJ019
1880.931	2.739	3975154	WORD	n/a	wordpools/wordpool_EN.txt	BAG	5	14	n/a	n/a	pyFR	0	TJ019
1883.67	2.721	3977893	WORD	n/a	wordpools/wordpool_EN.txt	TEETH	6	14	n/a	n/a	pyFR	0	TJ019
1886.391	2.69	3980614	WORD	n/a	wordpools/wordpool_EN.txt	COW	7	14	n/a	n/a	pyFR	0	TJ019
1889.081	2.804	3983304	WORD	n/a	wordpools/wordpool_EN.txt	STRAW	8	14	n/a	n/a	pyFR	0	TJ019
1891.885	2.521	3986108	WORD	n/a	wordpools/wordpool_EN.txt	SIGN	9	14	n/a	n/a	pyFR	0	TJ019
1894.406	2.421	3988628	WORD	n/a	wordpools/wordpool_EN.txt	RUG	10	14	n/a	n/a	pyFR	0	TJ019
1896.827	2.638	3991049	WORD	n/a	wordpools/wordpool_EN.txt	CUBE	11	14	n/a	n/a	pyFR	0	TJ019
1899.465	2.64	3993687	WORD	n/a	wordpools/wordpool_EN.txt	SNAIL	12	14	n/a	n/a	pyFR	0	TJ019
1902.105	2.486	3996327	WORD	n/a	wordpools/wordpool_EN.txt	RAIN	13	14	n/a	n/a	pyFR	0	TJ019
1904.591	2.789	3998813	WORD	n/a	wordpools/wordpool_EN.txt	TANK	14	14	n/a	n/a	pyFR	0	TJ019
1907.38	1.621	4001602	WORD	n/a	wordpools/wordpool_EN.txt	STREET	15	14	n/a	n/a	pyFR	0	TJ019
1909.001	1.135	4003223	START	n/a	n/a	n/a	n/a	14	[-999 -999 -999]	-999	pyFR	0	TJ019
1910.136	3.672	4004358	PROB	n/a	n/a	n/a	n/a	14	[3 7 3]	13	pyFR	0	TJ019
1913.808	3.139	4008030	PROB	n/a	n/a	n/a	n/a	14	[2 3 4]	9	pyFR	0	TJ019
1916.947	2.021	4011169	PROB	n/a	n/a	n/a	n/a	14	[2 8 1]	11	pyFR	0	TJ019
1918.968	2.755	4013189	PROB	n/a	n/a	n/a	n/a	14	[5 2 2]	9	pyFR	0	TJ019
1921.723	3.022	4015944	PROB	n/a	n/a	n/a	n/a	14	[9 3 5]	17	pyFR	0	TJ019
1924.745	2.289	4018966	PROB	n/a	n/a	n/a	n/a	14	[3 4 1]	8	pyFR	0	TJ019
1927.034	2.069	4021255	PROB	n/a	n/a	n/a	n/a	14	[3 6 6]	15	pyFR	0	TJ019
1929.103	1.254	4023324	STOP	n/a	n/a	n/a	n/a	14	[-999 -999 -999]	-999	pyFR	0	TJ019
1930.357	3.429	4024578	REC_START	n/a	n/a	n/a	-999	-999	n/a	n/a	pyFR	0	TJ019
1933.786	0.3	4028007	REC_WORD	0.3	n/a	<>	-999	14	n/a	n/a	pyFR	0	TJ019
1934.086	3.217	4028307	REC_WORD	3.217	n/a	TEETH	-999	14	n/a	n/a	pyFR	0	TJ019
1937.303	0.887	4031524	REC_WORD	0.887	n/a	<>	-999	14	n/a	n/a	pyFR	0	TJ019
1938.19	3.799	4032411	REC_WORD	3.799	n/a	BRUSH	-999	14	n/a	n/a	pyFR	0	TJ019
1941.989	0.381	4036210	REC_WORD	0.381	n/a	<>	-999	14	n/a	n/a	pyFR	0	TJ019
1942.37	4.112	4036591	REC_WORD	4.112	n/a	SNAIL	-999	14	n/a	n/a	pyFR	0	TJ019
1946.482	0.658	4040702	REC_WORD	0.658	n/a	<>	-999	14	n/a	n/a	pyFR	0	TJ019
1947.14	3.769	4041360	REC_WORD	3.769	n/a	HOOF	-999	14	n/a	n/a	pyFR	0	TJ019
1950.909	4.783	4045129	REC_WORD	4.783	n/a	<>	-999	14	n/a	n/a	pyFR	0	TJ019
1955.692	0.317	4049912	REC_WORD	0.317	n/a	<>	-999	14	n/a	n/a	pyFR	0	TJ019
1956.009	23.021	4050229	REC_WORD	23.021	n/a	TEETH	-999	14	n/a	n/a	pyFR	0	TJ019
1979.03	0.016	4073249	TRIAL	n/a	n/a	n/a	-999	-999	n/a	n/a	pyFR	0	TJ019
1979.046	2.921	4073265	ORIENT	n/a	n/a	n/a	-999	-999	n/a	n/a	pyFR	0	TJ019
1981.967	2.688	4076186	WORD	n/a	wordpools/wordpool_EN.txt	DESK	1	15	n/a	n/a	pyFR	0	TJ019
1984.655	2.706	4078874	WORD	n/a	wordpools/wordpool_EN.txt	WHEEL	2	15	n/a	n/a	pyFR	0	TJ019
1987.361	2.689	4081580	WORD	n/a	wordpools/wordpool_EN.txt	VAN	3	15	n/a	n/a	pyFR	0	TJ019
1990.05	2.67	4084269	WORD	n/a	wordpools/wordpool_EN.txt	HAT	4	15	n/a	n/a	pyFR	0	TJ019
1992.72	2.772	4086938	WORD	n/a	wordpools/wordpool_EN.txt	FORK	5	15	n/a	n/a	pyFR	0	TJ019
1995.492	2.789	4089710	WORD	n/a	wordpools/wordpool_EN.txt	CANE	6	15	n/a	n/a	pyFR	0	TJ019
1998.281	2.654	4092499	WORD	n/a	wordpools/wordpool_EN.txt	SPONGE	7	15	n/a	n/a	pyFR	0	TJ019
2000.935	2.522	4095153	WORD	n/a	wordpools/wordpool_EN.txt	DART	8	15	n/a	n/a	pyFR	0	TJ019
2003.457	2.822	4097675	WORD	n/a	wordpools/wordpool_EN.txt	CLOCK	9	15	n/a	n/a	pyFR	0	TJ019
2006.279	2.704	4100497	WORD	n/a	wordpools/wordpool_EN.txt	CAPE	10	15	n/a	n/a	pyFR	0	TJ019
2008.983	2.772	4103201	WORD	n/a	wordpools/wordpool_EN.txt	SKUNK	11	15	n/a	n/a	pyFR	0	TJ019
2011.755	2.638	4105973	WORD	n/a	wordpools/wordpool_EN.txt	HEN	12	15	n/a	n/a	pyFR	0	TJ019
2014.393	2.773	4108611	WORD	n/a	wordpools/wordpool_EN.txt	SALT	13	15	n/a	n/a	pyFR	0	TJ019
2017.166	2.839	4111384	WORD	n/a	wordpools/wordpool_EN.txt	WALL	14	15	n/a	n/a	pyFR	0	TJ019
2020.005	1.62	4114222	WORD	n/a	wordpools/wordpool_EN.txt	GOAT	15	15	n/a	n/a	pyFR	0	TJ019
2021.625	1.1	4115842	START	n/a	n/a	n/a	n/a	15	[-999 -999 -999]	-999	pyFR	0	TJ019
2022.725	5.428	4116942	PROB	n/a	n/a	n/a	n/a	15	[7 8 8]	23	pyFR	0	TJ019
2028.153	2.487	4122370	PROB	n/a	n/a	n/a	n/a	15	[5 4 5]	14	pyFR	0	TJ019
2030.64	1.836	4124857	PROB	n/a	n/a	n/a	n/a	15	[7 1 3]	11	pyFR	0	TJ019
2032.476	2.84	4126693	PROB	n/a	n/a	n/a	n/a	15	[1 1 8]	10	pyFR	0	TJ019
2035.316	1.987	4129533	PROB	n/a	n/a	n/a	n/a	15	[2 4 5]	11	pyFR	0	TJ019
2037.303	5.263	4131520	PROB	n/a	n/a	n/a	n/a	15	[7 4 5]	16	pyFR	0	TJ019
2042.566	1.132	4136782	STOP	n/a	n/a	n/a	n/a	15	[-999 -999 -999]	-999	pyFR	0	TJ019
2043.698	7.529	4137914	REC_START	n/a	n/a	n/a	-999	-999	n/a	n/a	pyFR	0	TJ019
2051.227	2.774	4145443	REC_WORD	2.774	n/a	SALT	-999	15	n/a	n/a	pyFR	0	TJ019
2054.001	5.081	4148217	REC_WORD	5.081	n/a	ZOO	-999	15	n/a	n/a	pyFR	0	TJ019
2059.082	9.723	4153298	REC_WORD	9.723	n/a	HEN	-999	15	n/a	n/a	pyFR	0	TJ019
2068.805	9.443	4163020	REC_WORD	9.443	n/a	<>	-999	15	n/a	n/a	pyFR	0	TJ019
2078.248	14.24	4172463	REC_WORD	14.24	n/a	CAPE	-999	15	n/a	n/a	pyFR	0	TJ019
2092.488	0.015	4186703	TRIAL	n/a	n/a	n/a	-999	-999	n/a	n/a	pyFR	0	TJ019
2092.503	2.656	4186718	ORIENT	n/a	n/a	n/a	-999	-999	n/a	n/a	pyFR	0	TJ019
2095.159	2.437	4189373	WORD	n/a	wordpools/wordpool_EN.txt	POLE	1	16	n/a	n/a	pyFR	0	TJ019
2097.596	2.773	4191810	WORD	n/a	wordpools/wordpool_EN.txt	SEED	2	16	n/a	n/a	pyFR	0	TJ019
2100.369	2.503	4194583	WORD	n/a	wordpools/wordpool_EN.txt	QUEEN	3	16	n/a	n/a	pyFR	0	TJ019
2102.872	2.473	4197086	WORD	n/a	wordpools/wordpool_EN.txt	MILK	4	16	n/a	n/a	pyFR	0	TJ019
2105.345	2.822	4199559	WORD	n/a	wordpools/wordpool_EN.txt	HILL	5	16	n/a	n/a	pyFR	0	TJ019
2108.167	2.453	4202381	WORD	n/a	wordpools/wordpool_EN.txt	TEA	6	16	n/a	n/a	pyFR	0	TJ019
2110.62	2.456	4204834	WORD	n/a	wordpools/wordpool_EN.txt	CHEEK	7	16	n/a	n/a	pyFR	0	TJ019
2113.076	2.804	4207290	WORD	n/a	wordpools/wordpool_EN.txt	WEB	8	16	n/a	n/a	pyFR	0	TJ019
2115.88	2.554	4210094	WORD	n/a	wordpools/wordpool_EN.txt	MAZE	9	16	n/a	n/a	pyFR	0	TJ019
2118.434	2.74	4212647	WORD	n/a	wordpools/wordpool_EN.txt	MOOSE	10	16	n/a	n/a	pyFR	0	TJ019
2121.174	2.737	4215387	WORD	n/a	wordpools/wordpool_EN.txt	EGG	11	16	n/a	n/a	pyFR	0	TJ019
2123.911	2.555	4218124	WORD	n/a	wordpools/wordpool_EN.txt	GRAPE	12	16	n/a	n/a	pyFR	0	TJ019
2126.466	2.589	4220679	WORD	n/a	wordpools/wordpool_EN.txt	TRAIN	13	16	n/a	n/a	pyFR	0	TJ019
2129.055	2.487	4223268	WORD	n/a	wordpools/wordpool_EN.txt	SKY	14	16	n/a	n/a	pyFR	0	TJ019
2131.542	1.605	4225755	WORD	n/a	wordpools/wordpool_EN.txt	COIN	15	16	n/a	n/a	pyFR	0	TJ019
2133.147	1.151	4227360	START	n/a	n/a	n/a	n/a	16	[-999 -999 -999]	-999	pyFR	0	TJ019
2134.298	3.589	4228511	PROB	n/a	n/a	n/a	n/a	16	[7 7 7]	21	pyFR	0	TJ019
2137.887	1.887	4232100	PROB	n/a	n/a	n/a	n/a	16	[5 1 6]	12	pyFR	0	TJ019
2139.774	5.327	4233987	PROB	n/a	n/a	n/a	n/a	16	[4 2 8]	14	pyFR	0	TJ019
2145.101	5.342	4239313	PROB	n/a	n/a	n/a	n/a	16	[7 8 3]	18	pyFR	0	TJ019
2150.443	2.388	4244655	PROB	n/a	n/a	n/a	n/a	16	[1 2 5]	8	pyFR	0	TJ019
2152.831	4.743	4247043	PROB	n/a	n/a	n/a	n/a	16	[8 1 5]	14	pyFR	0	TJ019
2157.574	1.185	4251786	STOP	n/a	n/a	n/a	n/a	16	[-999 -999 -999]	-999	pyFR	0	TJ019
2158.759	13.231	4252971	REC_START	n/a	n/a	n/a	-999	-999	n/a	n/a	pyFR	0	TJ019
2171.99	10.311	4266201	REC_WORD	10.311	n/a	POLE	-999	16	n/a	n/a	pyFR	0	TJ019
2182.301	15.936	4276512	REC_WORD	15.936	n/a	SALT	-999	16	n/a	n/a	pyFR	0	TJ019
2198.237	1.0	4292447	REC_WORD	1.0	n/a	<>	-999	16	n/a	n/a	pyFR	0	TJ019
2199.237	1.0	4293447	REC_WORD	1.0	n/a	<>	-999	16	n/a	n/a	pyFR	0	TJ019
2200.237	1.853	4294447	REC_WORD	1.853	n/a	<>	-999	16	n/a	n/a	pyFR	0	TJ019
2202.09	612.008	4296300	REC_WORD	612.008	n/a	<>	-999	16	n/a	n/a	pyFR	0	TJ019
2814.098	0.108	4908284	SESS_END	n/a	n/a	n/a	-999	-999	n/a	n/a	pyFR	0	TJ019
2814.206	0.0	4908392	E	n/a	n/a	n/a	-999	-999	n/a	n/a	pyFR	0	TJ019
