onset	duration	sample	trial_type	response_time	stim_file	item_name	serialpos	list	test	answer	experiment	session	subject
0.0	0.0	1654870	SESS_START	n/a	n/a	n/a	-999	-999	n/a	n/a	pyFR	0	TJ050
0.0	71.035	1654870	B	n/a	n/a	n/a	-999	-999	n/a	n/a	pyFR	0	TJ050
71.035	0.024	1796935	START	n/a	n/a	n/a	n/a	0	[-999 -999 -999]	-999	pyFR	0	TJ050
71.059	5.96	1796983	PROB	n/a	n/a	n/a	n/a	0	[9 1 1]	11	pyFR	0	TJ050
77.019	5.075	1808903	PROB	n/a	n/a	n/a	n/a	0	[4 8 5]	17	pyFR	0	TJ050
82.094	3.957	1819052	PROB	n/a	n/a	n/a	n/a	0	[3 5 4]	19	pyFR	0	TJ050
86.051	5.258	1826966	PROB	n/a	n/a	n/a	n/a	0	[4 7 9]	20	pyFR	0	TJ050
91.309	4.124	1837482	PROB	n/a	n/a	n/a	n/a	0	[4 1 4]	9	pyFR	0	TJ050
95.433	2.437	1845729	PROB	n/a	n/a	n/a	n/a	0	[2 6 1]	7	pyFR	0	TJ050
97.87	13.146	1850603	PROB	n/a	n/a	n/a	n/a	0	[9 6 2]	17	pyFR	0	TJ050
111.016	69.16	1876894	STOP	n/a	n/a	n/a	n/a	0	[-999 -999 -999]	-999	pyFR	0	TJ050
180.176	0.016	2015209	TRIAL	n/a	n/a	n/a	-999	1	n/a	n/a	pyFR	0	TJ050
180.192	2.923	2015241	ORIENT	n/a	n/a	n/a	-999	1	n/a	n/a	pyFR	0	TJ050
183.115	2.737	2021087	WORD	n/a	wordpools/wordpool_EN.txt	NAIL	1	1	n/a	n/a	pyFR	0	TJ050
185.852	2.739	2026561	WORD	n/a	wordpools/wordpool_EN.txt	BAT	2	1	n/a	n/a	pyFR	0	TJ050
188.591	2.837	2032038	WORD	n/a	wordpools/wordpool_EN.txt	SMILE	3	1	n/a	n/a	pyFR	0	TJ050
191.428	2.488	2037712	WORD	n/a	wordpools/wordpool_EN.txt	CLOTH	4	1	n/a	n/a	pyFR	0	TJ050
193.916	2.504	2042688	WORD	n/a	wordpools/wordpool_EN.txt	ZOO	5	1	n/a	n/a	pyFR	0	TJ050
196.42	2.671	2047696	WORD	n/a	wordpools/wordpool_EN.txt	BIRD	6	1	n/a	n/a	pyFR	0	TJ050
199.091	2.704	2053038	WORD	n/a	wordpools/wordpool_EN.txt	COIN	7	1	n/a	n/a	pyFR	0	TJ050
201.795	2.522	2058445	WORD	n/a	wordpools/wordpool_EN.txt	ARK	8	1	n/a	n/a	pyFR	0	TJ050
204.317	2.571	2063489	WORD	n/a	wordpools/wordpool_EN.txt	SEED	9	1	n/a	n/a	pyFR	0	TJ050
206.888	2.504	2068631	WORD	n/a	wordpools/wordpool_EN.txt	PRINCE	10	1	n/a	n/a	pyFR	0	TJ050
209.392	2.704	2073639	WORD	n/a	wordpools/wordpool_EN.txt	FROG	11	1	n/a	n/a	pyFR	0	TJ050
212.096	2.554	2079047	WORD	n/a	wordpools/wordpool_EN.txt	WEB	12	1	n/a	n/a	pyFR	0	TJ050
214.65	2.705	2084154	WORD	n/a	wordpools/wordpool_EN.txt	CUBE	13	1	n/a	n/a	pyFR	0	TJ050
217.355	2.638	2089564	WORD	n/a	wordpools/wordpool_EN.txt	DESK	14	1	n/a	n/a	pyFR	0	TJ050
219.993	1.605	2094840	WORD	n/a	wordpools/wordpool_EN.txt	CAT	15	1	n/a	n/a	pyFR	0	TJ050
221.598	0.899	2098050	START	n/a	n/a	n/a	n/a	1	[-999 -999 -999]	-999	pyFR	0	TJ050
222.497	4.892	2099848	PROB	n/a	n/a	n/a	n/a	1	[4 5 5]	14	pyFR	0	TJ050
227.389	3.522	2109632	PROB	n/a	n/a	n/a	n/a	1	[7 1 8]	16	pyFR	0	TJ050
230.911	2.788	2116675	PROB	n/a	n/a	n/a	n/a	1	[6 1 4]	11	pyFR	0	TJ050
233.699	2.789	2122251	PROB	n/a	n/a	n/a	n/a	1	[9 3 1]	13	pyFR	0	TJ050
236.488	3.038	2127829	PROB	n/a	n/a	n/a	n/a	1	[1 3 1]	5	pyFR	0	TJ050
239.526	3.122	2133905	PROB	n/a	n/a	n/a	n/a	1	[5 3 6]	14	pyFR	0	TJ050
242.648	1.152	2140148	STOP	n/a	n/a	n/a	n/a	1	[-999 -999 -999]	-999	pyFR	0	TJ050
243.8	3.008	2142452	REC_START	n/a	n/a	n/a	-999	1	n/a	n/a	pyFR	0	TJ050
246.808	1.0	2148468	REC_WORD_VV	1.0	n/a	<>	-999	1	n/a	n/a	pyFR	0	TJ050
247.808	1.723	2150468	REC_WORD_VV	1.723	n/a	<>	-999	1	n/a	n/a	pyFR	0	TJ050
249.531	0.937	2153914	REC_WORD	0.937	n/a	NAIL	-999	1	n/a	n/a	pyFR	0	TJ050
250.468	1.19	2155788	REC_WORD	1.19	n/a	BAT	-999	1	n/a	n/a	pyFR	0	TJ050
251.658	1.064	2158168	REC_WORD	1.064	n/a	ARK	-999	1	n/a	n/a	pyFR	0	TJ050
252.722	3.491	2160296	REC_WORD	3.491	n/a	ZOO	-999	1	n/a	n/a	pyFR	0	TJ050
256.213	5.36	2167277	REC_WORD	5.36	n/a	CAT	-999	1	n/a	n/a	pyFR	0	TJ050
261.573	25.174	2177997	REC_WORD	25.174	n/a	PEN	-999	1	n/a	n/a	pyFR	0	TJ050
286.747	20.176	2228343	REC_WORD	20.176	n/a	BAIT	-999	1	n/a	n/a	pyFR	0	TJ050
306.923	0.016	2268694	TRIAL	n/a	n/a	n/a	-999	2	n/a	n/a	pyFR	0	TJ050
306.939	2.622	2268726	ORIENT	n/a	n/a	n/a	-999	2	n/a	n/a	pyFR	0	TJ050
309.561	2.57	2273969	WORD	n/a	wordpools/wordpool_EN.txt	SPEAR	1	2	n/a	n/a	pyFR	0	TJ050
312.131	2.739	2279109	WORD	n/a	wordpools/wordpool_EN.txt	NOSE	2	2	n/a	n/a	pyFR	0	TJ050
314.87	2.705	2284587	WORD	n/a	wordpools/wordpool_EN.txt	CORD	3	2	n/a	n/a	pyFR	0	TJ050
317.575	2.67	2289997	WORD	n/a	wordpools/wordpool_EN.txt	MOON	4	2	n/a	n/a	pyFR	0	TJ050
320.245	2.838	2295337	WORD	n/a	wordpools/wordpool_EN.txt	PEN	5	2	n/a	n/a	pyFR	0	TJ050
323.083	2.454	2301012	WORD	n/a	wordpools/wordpool_EN.txt	PEA	6	2	n/a	n/a	pyFR	0	TJ050
325.537	2.788	2305920	WORD	n/a	wordpools/wordpool_EN.txt	BEAK	7	2	n/a	n/a	pyFR	0	TJ050
328.325	2.822	2311496	WORD	n/a	wordpools/wordpool_EN.txt	PARK	8	2	n/a	n/a	pyFR	0	TJ050
331.147	2.704	2317140	WORD	n/a	wordpools/wordpool_EN.txt	WALL	9	2	n/a	n/a	pyFR	0	TJ050
333.851	2.488	2322548	WORD	n/a	wordpools/wordpool_EN.txt	SHARK	10	2	n/a	n/a	pyFR	0	TJ050
336.339	2.688	2327523	WORD	n/a	wordpools/wordpool_EN.txt	PANTS	11	2	n/a	n/a	pyFR	0	TJ050
339.027	2.47	2332899	WORD	n/a	wordpools/wordpool_EN.txt	MOLE	12	2	n/a	n/a	pyFR	0	TJ050
341.497	2.504	2337839	WORD	n/a	wordpools/wordpool_EN.txt	LAMP	13	2	n/a	n/a	pyFR	0	TJ050
344.001	2.739	2342847	WORD	n/a	wordpools/wordpool_EN.txt	FOAM	14	2	n/a	n/a	pyFR	0	TJ050
346.74	1.62	2348325	WORD	n/a	wordpools/wordpool_EN.txt	KITE	15	2	n/a	n/a	pyFR	0	TJ050
348.36	0.9	2351564	START	n/a	n/a	n/a	n/a	2	[-999 -999 -999]	-999	pyFR	0	TJ050
349.26	4.658	2353364	PROB	n/a	n/a	n/a	n/a	2	[5 8 8]	21	pyFR	0	TJ050
353.918	5.493	2362680	PROB	n/a	n/a	n/a	n/a	2	[4 9 9]	22	pyFR	0	TJ050
359.411	3.923	2373666	PROB	n/a	n/a	n/a	n/a	2	[1 5 9]	14	pyFR	0	TJ050
363.334	3.806	2381511	PROB	n/a	n/a	n/a	n/a	2	[5 1 5]	11	pyFR	0	TJ050
367.14	3.091	2389123	PROB	n/a	n/a	n/a	n/a	2	[2 8 3]	13	pyFR	0	TJ050
370.231	1.167	2395305	STOP	n/a	n/a	n/a	n/a	2	[-999 -999 -999]	-999	pyFR	0	TJ050
371.398	0.862	2397639	REC_START	n/a	n/a	n/a	-999	2	n/a	n/a	pyFR	0	TJ050
372.26	1.213	2399363	REC_WORD	1.213	n/a	NOSE	-999	2	n/a	n/a	pyFR	0	TJ050
373.473	20.657	2401789	REC_WORD	20.657	n/a	CORD	-999	2	n/a	n/a	pyFR	0	TJ050
394.13	2.011	2443101	REC_WORD	2.011	n/a	NAIL	-999	2	n/a	n/a	pyFR	0	TJ050
396.141	4.217	2447123	REC_WORD_VV	4.217	n/a	<>	-999	2	n/a	n/a	pyFR	0	TJ050
400.358	1.311	2455557	REC_WORD	1.311	n/a	BEAK	-999	2	n/a	n/a	pyFR	0	TJ050
401.669	0.748	2458179	REC_WORD	0.748	n/a	PEA	-999	2	n/a	n/a	pyFR	0	TJ050
402.417	3.32	2459674	REC_WORD	3.32	n/a	SPOON	-999	2	n/a	n/a	pyFR	0	TJ050
405.737	10.136	2466314	REC_WORD_VV	10.136	n/a	<>	-999	2	n/a	n/a	pyFR	0	TJ050
415.873	21.002	2486585	REC_WORD_VV	21.002	n/a	<>	-999	2	n/a	n/a	pyFR	0	TJ050
436.875	0.016	2528588	TRIAL	n/a	n/a	n/a	-999	3	n/a	n/a	pyFR	0	TJ050
436.891	3.005	2528620	ORIENT	n/a	n/a	n/a	-999	3	n/a	n/a	pyFR	0	TJ050
439.896	2.472	2534630	WORD	n/a	wordpools/wordpool_EN.txt	CONE	1	3	n/a	n/a	pyFR	0	TJ050
442.368	2.57	2539573	WORD	n/a	wordpools/wordpool_EN.txt	SQUARE	2	3	n/a	n/a	pyFR	0	TJ050
444.938	2.472	2544713	WORD	n/a	wordpools/wordpool_EN.txt	BOAT	3	3	n/a	n/a	pyFR	0	TJ050
447.41	2.687	2549657	WORD	n/a	wordpools/wordpool_EN.txt	SKI	4	3	n/a	n/a	pyFR	0	TJ050
450.097	2.537	2555031	WORD	n/a	wordpools/wordpool_EN.txt	BREAD	5	3	n/a	n/a	pyFR	0	TJ050
452.634	2.739	2560105	WORD	n/a	wordpools/wordpool_EN.txt	EAR	6	3	n/a	n/a	pyFR	0	TJ050
455.373	2.754	2565583	WORD	n/a	wordpools/wordpool_EN.txt	LIP	7	3	n/a	n/a	pyFR	0	TJ050
458.127	2.455	2571090	WORD	n/a	wordpools/wordpool_EN.txt	VEST	8	3	n/a	n/a	pyFR	0	TJ050
460.582	2.637	2576000	WORD	n/a	wordpools/wordpool_EN.txt	BENCH	9	3	n/a	n/a	pyFR	0	TJ050
463.219	2.605	2581274	WORD	n/a	wordpools/wordpool_EN.txt	POND	10	3	n/a	n/a	pyFR	0	TJ050
465.824	2.47	2586484	WORD	n/a	wordpools/wordpool_EN.txt	HORSE	11	3	n/a	n/a	pyFR	0	TJ050
468.294	2.772	2591424	WORD	n/a	wordpools/wordpool_EN.txt	FRUIT	12	3	n/a	n/a	pyFR	0	TJ050
471.066	2.688	2596967	WORD	n/a	wordpools/wordpool_EN.txt	SLIME	13	3	n/a	n/a	pyFR	0	TJ050
473.754	2.637	2602343	WORD	n/a	wordpools/wordpool_EN.txt	PET	14	3	n/a	n/a	pyFR	0	TJ050
476.391	1.621	2607617	WORD	n/a	wordpools/wordpool_EN.txt	HEART	15	3	n/a	n/a	pyFR	0	TJ050
478.012	0.851	2610859	START	n/a	n/a	n/a	n/a	3	[-999 -999 -999]	-999	pyFR	0	TJ050
478.863	5.541	2612561	PROB	n/a	n/a	n/a	n/a	3	[6 2 6]	14	pyFR	0	TJ050
484.404	2.471	2623642	PROB	n/a	n/a	n/a	n/a	3	[9 9 2]	11	pyFR	0	TJ050
486.875	2.706	2628584	PROB	n/a	n/a	n/a	n/a	3	[3 4 6]	13	pyFR	0	TJ050
489.581	2.586	2633996	PROB	n/a	n/a	n/a	n/a	3	[9 3 2]	15	pyFR	0	TJ050
492.167	4.041	2639168	PROB	n/a	n/a	n/a	n/a	3	[4 3 7]	14	pyFR	0	TJ050
496.208	3.56	2647249	PROB	n/a	n/a	n/a	n/a	3	[4 2 4]	10	pyFR	0	TJ050
499.768	1.165	2654369	STOP	n/a	n/a	n/a	n/a	3	[-999 -999 -999]	-999	pyFR	0	TJ050
500.933	0.584	2656699	REC_START	n/a	n/a	n/a	-999	3	n/a	n/a	pyFR	0	TJ050
501.517	1.421	2657867	REC_WORD_VV	1.421	n/a	<>	-999	3	n/a	n/a	pyFR	0	TJ050
502.938	1.188	2660709	REC_WORD	1.188	n/a	LIP	-999	3	n/a	n/a	pyFR	0	TJ050
504.126	2.243	2663085	REC_WORD	2.243	n/a	EAR	-999	3	n/a	n/a	pyFR	0	TJ050
506.369	1.671	2667571	REC_WORD	1.671	n/a	HEART	-999	3	n/a	n/a	pyFR	0	TJ050
508.04	0.952	2670913	REC_WORD	0.952	n/a	SMILE	-999	3	n/a	n/a	pyFR	0	TJ050
508.992	1.224	2672817	REC_WORD	1.224	n/a	BOAT	-999	3	n/a	n/a	pyFR	0	TJ050
510.216	0.911	2675264	REC_WORD	0.911	n/a	CONE	-999	3	n/a	n/a	pyFR	0	TJ050
511.127	4.84	2677086	REC_WORD	4.84	n/a	SKI	-999	3	n/a	n/a	pyFR	0	TJ050
515.967	20.039	2686766	REC_WORD_VV	20.039	n/a	<>	-999	3	n/a	n/a	pyFR	0	TJ050
536.006	0.891	2726842	REC_WORD_VV	0.891	n/a	<>	-999	3	n/a	n/a	pyFR	0	TJ050
536.897	1.0	2728624	REC_WORD	1.0	n/a	SMILE	-999	3	n/a	n/a	pyFR	0	TJ050
537.897	7.061	2730624	REC_WORD_VV	7.061	n/a	<>	-999	3	n/a	n/a	pyFR	0	TJ050
544.958	26.026	2744746	REC_WORD_VV	26.026	n/a	<>	-999	3	n/a	n/a	pyFR	0	TJ050
570.984	0.016	2796796	TRIAL	n/a	n/a	n/a	-999	4	n/a	n/a	pyFR	0	TJ050
571.0	2.855	2796828	ORIENT	n/a	n/a	n/a	-999	4	n/a	n/a	pyFR	0	TJ050
573.855	2.671	2802538	WORD	n/a	wordpools/wordpool_EN.txt	STOVE	1	4	n/a	n/a	pyFR	0	TJ050
576.526	2.505	2807879	WORD	n/a	wordpools/wordpool_EN.txt	SEAT	2	4	n/a	n/a	pyFR	0	TJ050
579.031	2.621	2812889	WORD	n/a	wordpools/wordpool_EN.txt	LOCK	3	4	n/a	n/a	pyFR	0	TJ050
581.652	2.838	2818131	WORD	n/a	wordpools/wordpool_EN.txt	BRANCH	4	4	n/a	n/a	pyFR	0	TJ050
584.49	2.604	2823807	WORD	n/a	wordpools/wordpool_EN.txt	BLUSH	5	4	n/a	n/a	pyFR	0	TJ050
587.094	2.489	2829015	WORD	n/a	wordpools/wordpool_EN.txt	BADGE	6	4	n/a	n/a	pyFR	0	TJ050
589.583	2.436	2833993	WORD	n/a	wordpools/wordpool_EN.txt	CRANE	7	4	n/a	n/a	pyFR	0	TJ050
592.019	2.521	2838864	WORD	n/a	wordpools/wordpool_EN.txt	OWL	8	4	n/a	n/a	pyFR	0	TJ050
594.54	2.604	2843906	WORD	n/a	wordpools/wordpool_EN.txt	HOOK	9	4	n/a	n/a	pyFR	0	TJ050
597.144	2.471	2849114	WORD	n/a	wordpools/wordpool_EN.txt	YARD	10	4	n/a	n/a	pyFR	0	TJ050
599.615	2.688	2854056	WORD	n/a	wordpools/wordpool_EN.txt	GLOVE	11	4	n/a	n/a	pyFR	0	TJ050
602.303	2.788	2859432	WORD	n/a	wordpools/wordpool_EN.txt	SALT	12	4	n/a	n/a	pyFR	0	TJ050
605.091	2.655	2865007	WORD	n/a	wordpools/wordpool_EN.txt	SOAP	13	4	n/a	n/a	pyFR	0	TJ050
607.746	2.587	2870317	WORD	n/a	wordpools/wordpool_EN.txt	STAIR	14	4	n/a	n/a	pyFR	0	TJ050
610.333	1.621	2875491	WORD	n/a	wordpools/wordpool_EN.txt	QUEEN	15	4	n/a	n/a	pyFR	0	TJ050
611.954	0.95	2878733	START	n/a	n/a	n/a	n/a	4	[-999 -999 -999]	-999	pyFR	0	TJ050
612.904	4.374	2880633	PROB	n/a	n/a	n/a	n/a	4	[4 3 4]	11	pyFR	0	TJ050
617.278	3.506	2889380	PROB	n/a	n/a	n/a	n/a	4	[6 1 2]	9	pyFR	0	TJ050
620.784	4.09	2896392	PROB	n/a	n/a	n/a	n/a	4	[8 9 1]	18	pyFR	0	TJ050
624.874	3.039	2904572	PROB	n/a	n/a	n/a	n/a	4	[8 4 7]	19	pyFR	0	TJ050
627.913	3.005	2910650	PROB	n/a	n/a	n/a	n/a	4	[6 3 4]	14	pyFR	0	TJ050
630.918	3.314	2916659	PROB	n/a	n/a	n/a	n/a	4	[9 7 2]	18	pyFR	0	TJ050
634.232	1.094	2923287	STOP	n/a	n/a	n/a	n/a	4	[-999 -999 -999]	-999	pyFR	0	TJ050
635.326	2.146	2925475	REC_START	n/a	n/a	n/a	-999	4	n/a	n/a	pyFR	0	TJ050
637.472	3.885	2929767	REC_WORD	3.885	n/a	STOVE	-999	4	n/a	n/a	pyFR	0	TJ050
641.357	18.783	2937537	REC_WORD	18.783	n/a	BENCH	-999	4	n/a	n/a	pyFR	0	TJ050
660.14	1.072	2975101	REC_WORD	1.072	n/a	STOVE	-999	4	n/a	n/a	pyFR	0	TJ050
661.212	3.201	2977245	REC_WORD	3.201	n/a	BENCH	-999	4	n/a	n/a	pyFR	0	TJ050
664.413	1.196	2983647	REC_WORD	1.196	n/a	CRANE	-999	4	n/a	n/a	pyFR	0	TJ050
665.609	0.832	2986039	REC_WORD	0.832	n/a	OWL	-999	4	n/a	n/a	pyFR	0	TJ050
666.441	59.07	2987703	REC_WORD	59.07	n/a	HOOK	-999	4	n/a	n/a	pyFR	0	TJ050
725.511	0.016	3105838	TRIAL	n/a	n/a	n/a	-999	5	n/a	n/a	pyFR	0	TJ050
725.527	2.888	3105870	ORIENT	n/a	n/a	n/a	-999	5	n/a	n/a	pyFR	0	TJ050
728.415	2.521	3111646	WORD	n/a	wordpools/wordpool_EN.txt	DITCH	1	5	n/a	n/a	pyFR	0	TJ050
730.936	2.555	3116688	WORD	n/a	wordpools/wordpool_EN.txt	BROOM	2	5	n/a	n/a	pyFR	0	TJ050
733.491	2.537	3121798	WORD	n/a	wordpools/wordpool_EN.txt	SPARK	3	5	n/a	n/a	pyFR	0	TJ050
736.028	2.572	3126872	WORD	n/a	wordpools/wordpool_EN.txt	SHRIMP	4	5	n/a	n/a	pyFR	0	TJ050
738.6	2.47	3132015	WORD	n/a	wordpools/wordpool_EN.txt	MOUTH	5	5	n/a	n/a	pyFR	0	TJ050
741.07	2.538	3136955	WORD	n/a	wordpools/wordpool_EN.txt	FOOD	6	5	n/a	n/a	pyFR	0	TJ050
743.608	2.487	3142031	WORD	n/a	wordpools/wordpool_EN.txt	PEARL	7	5	n/a	n/a	pyFR	0	TJ050
746.095	2.505	3147005	WORD	n/a	wordpools/wordpool_EN.txt	FOX	8	5	n/a	n/a	pyFR	0	TJ050
748.6	2.637	3152015	WORD	n/a	wordpools/wordpool_EN.txt	SOCK	9	5	n/a	n/a	pyFR	0	TJ050
751.237	2.454	3157288	WORD	n/a	wordpools/wordpool_EN.txt	CAGE	10	5	n/a	n/a	pyFR	0	TJ050
753.691	2.755	3162196	WORD	n/a	wordpools/wordpool_EN.txt	CHAIR	11	5	n/a	n/a	pyFR	0	TJ050
756.446	2.504	3167706	WORD	n/a	wordpools/wordpool_EN.txt	TOOL	12	5	n/a	n/a	pyFR	0	TJ050
758.95	2.738	3172714	WORD	n/a	wordpools/wordpool_EN.txt	SCHOOL	13	5	n/a	n/a	pyFR	0	TJ050
761.688	2.654	3178190	WORD	n/a	wordpools/wordpool_EN.txt	CUP	14	5	n/a	n/a	pyFR	0	TJ050
764.342	1.621	3183497	WORD	n/a	wordpools/wordpool_EN.txt	TRAIN	15	5	n/a	n/a	pyFR	0	TJ050
765.963	1.117	3186739	START	n/a	n/a	n/a	n/a	5	[-999 -999 -999]	-999	pyFR	0	TJ050
767.08	4.224	3188973	PROB	n/a	n/a	n/a	n/a	5	[6 8 7]	21	pyFR	0	TJ050
771.304	3.172	3197421	PROB	n/a	n/a	n/a	n/a	5	[2 9 1]	12	pyFR	0	TJ050
774.476	3.155	3203765	PROB	n/a	n/a	n/a	n/a	5	[6 7 5]	18	pyFR	0	TJ050
777.631	2.554	3210074	PROB	n/a	n/a	n/a	n/a	5	[4 1 3]	8	pyFR	0	TJ050
780.185	2.588	3215182	PROB	n/a	n/a	n/a	n/a	5	[5 4 4]	13	pyFR	0	TJ050
782.773	2.371	3220358	PROB	n/a	n/a	n/a	n/a	5	[6 1 6]	13	pyFR	0	TJ050
785.144	4.256	3225100	PROB	n/a	n/a	n/a	n/a	5	[6 9 9]	20	pyFR	0	TJ050
789.4	1.171	3233612	STOP	n/a	n/a	n/a	n/a	5	[-999 -999 -999]	-999	pyFR	0	TJ050
790.571	0.711	3235954	REC_START	n/a	n/a	n/a	-999	5	n/a	n/a	pyFR	0	TJ050
791.282	1.437	3237375	REC_WORD_VV	1.437	n/a	<>	-999	5	n/a	n/a	pyFR	0	TJ050
792.719	0.764	3240249	REC_WORD	0.764	n/a	MOUTH	-999	5	n/a	n/a	pyFR	0	TJ050
793.483	1.246	3241777	REC_WORD	1.246	n/a	SHRIMP	-999	5	n/a	n/a	pyFR	0	TJ050
794.729	0.929	3244269	REC_WORD	0.929	n/a	TOOL	-999	5	n/a	n/a	pyFR	0	TJ050
795.658	4.107	3246127	REC_WORD	4.107	n/a	SCHOOL	-999	5	n/a	n/a	pyFR	0	TJ050
799.765	3.501	3254341	REC_WORD	3.501	n/a	TRAIN	-999	5	n/a	n/a	pyFR	0	TJ050
803.266	75.019	3261343	REC_WORD_VV	75.019	n/a	<>	-999	5	n/a	n/a	pyFR	0	TJ050
878.285	0.016	3411375	TRIAL	n/a	n/a	n/a	-999	6	n/a	n/a	pyFR	0	TJ050
878.301	2.771	3411407	ORIENT	n/a	n/a	n/a	-999	6	n/a	n/a	pyFR	0	TJ050
881.072	2.705	3416949	WORD	n/a	wordpools/wordpool_EN.txt	GRAPE	1	6	n/a	n/a	pyFR	0	TJ050
883.777	2.588	3422359	WORD	n/a	wordpools/wordpool_EN.txt	ROOF	2	6	n/a	n/a	pyFR	0	TJ050
886.365	2.754	3427534	WORD	n/a	wordpools/wordpool_EN.txt	CORN	3	6	n/a	n/a	pyFR	0	TJ050
889.119	2.838	3433042	WORD	n/a	wordpools/wordpool_EN.txt	HOUSE	4	6	n/a	n/a	pyFR	0	TJ050
891.957	2.622	3438718	WORD	n/a	wordpools/wordpool_EN.txt	PIG	5	6	n/a	n/a	pyFR	0	TJ050
894.579	2.571	3443962	WORD	n/a	wordpools/wordpool_EN.txt	HORN	6	6	n/a	n/a	pyFR	0	TJ050
897.15	2.471	3449104	WORD	n/a	wordpools/wordpool_EN.txt	WING	7	6	n/a	n/a	pyFR	0	TJ050
899.621	2.453	3454045	WORD	n/a	wordpools/wordpool_EN.txt	GRASS	8	6	n/a	n/a	pyFR	0	TJ050
902.074	2.688	3458951	WORD	n/a	wordpools/wordpool_EN.txt	EEL	9	6	n/a	n/a	pyFR	0	TJ050
904.762	2.622	3464327	WORD	n/a	wordpools/wordpool_EN.txt	STICK	10	6	n/a	n/a	pyFR	0	TJ050
907.384	2.537	3469571	WORD	n/a	wordpools/wordpool_EN.txt	JUICE	11	6	n/a	n/a	pyFR	0	TJ050
909.921	2.821	3474645	WORD	n/a	wordpools/wordpool_EN.txt	FENCE	12	6	n/a	n/a	pyFR	0	TJ050
912.742	2.605	3480286	WORD	n/a	wordpools/wordpool_EN.txt	PIN	13	6	n/a	n/a	pyFR	0	TJ050
915.347	2.521	3485496	WORD	n/a	wordpools/wordpool_EN.txt	STEAM	14	6	n/a	n/a	pyFR	0	TJ050
917.868	1.62	3490538	WORD	n/a	wordpools/wordpool_EN.txt	EGG	15	6	n/a	n/a	pyFR	0	TJ050
919.488	0.9	3493778	START	n/a	n/a	n/a	n/a	6	[-999 -999 -999]	-999	pyFR	0	TJ050
920.388	3.055	3495578	PROB	n/a	n/a	n/a	n/a	6	[1 4 7]	12	pyFR	0	TJ050
923.443	6.162	3501688	PROB	n/a	n/a	n/a	n/a	6	[4 9 9]	22	pyFR	0	TJ050
929.605	3.638	3514011	PROB	n/a	n/a	n/a	n/a	6	[5 1 8]	14	pyFR	0	TJ050
933.243	3.69	3521287	PROB	n/a	n/a	n/a	n/a	6	[1 2 7]	10	pyFR	0	TJ050
936.933	2.81	3528667	PROB	n/a	n/a	n/a	n/a	6	[8 1 2]	11	pyFR	0	TJ050
939.743	1.064	3534286	STOP	n/a	n/a	n/a	n/a	6	[-999 -999 -999]	-999	pyFR	0	TJ050
940.807	0.465	3536414	REC_START	n/a	n/a	n/a	-999	6	n/a	n/a	pyFR	0	TJ050
941.272	1.563	3537344	REC_WORD_VV	1.563	n/a	<>	-999	6	n/a	n/a	pyFR	0	TJ050
942.835	0.888	3540470	REC_WORD	0.888	n/a	PIG	-999	6	n/a	n/a	pyFR	0	TJ050
943.723	2.272	3542246	REC_WORD	2.272	n/a	GRAPE	-999	6	n/a	n/a	pyFR	0	TJ050
945.995	2.003	3546790	REC_WORD	2.003	n/a	WING	-999	6	n/a	n/a	pyFR	0	TJ050
947.998	12.952	3550796	REC_WORD	12.952	n/a	ROOF	-999	6	n/a	n/a	pyFR	0	TJ050
960.95	1.676	3576699	REC_WORD	1.676	n/a	HOUSE	-999	6	n/a	n/a	pyFR	0	TJ050
962.626	7.461	3580051	REC_WORD_VV	7.461	n/a	<>	-999	6	n/a	n/a	pyFR	0	TJ050
970.087	2.414	3594972	REC_WORD_VV	2.414	n/a	<>	-999	6	n/a	n/a	pyFR	0	TJ050
972.501	32.881	3599800	REC_WORD	32.881	n/a	MOUTH	-999	6	n/a	n/a	pyFR	0	TJ050
1005.382	0.016	3665560	TRIAL	n/a	n/a	n/a	-999	7	n/a	n/a	pyFR	0	TJ050
1005.398	2.921	3665592	ORIENT	n/a	n/a	n/a	-999	7	n/a	n/a	pyFR	0	TJ050
1008.319	2.755	3671433	WORD	n/a	wordpools/wordpool_EN.txt	ROOT	1	7	n/a	n/a	pyFR	0	TJ050
1011.074	2.705	3676943	WORD	n/a	wordpools/wordpool_EN.txt	BOX	2	7	n/a	n/a	pyFR	0	TJ050
1013.779	2.822	3682353	WORD	n/a	wordpools/wordpool_EN.txt	RIB	3	7	n/a	n/a	pyFR	0	TJ050
1016.601	2.654	3687997	WORD	n/a	wordpools/wordpool_EN.txt	VAN	4	7	n/a	n/a	pyFR	0	TJ050
1019.255	2.571	3693304	WORD	n/a	wordpools/wordpool_EN.txt	SHELL	5	7	n/a	n/a	pyFR	0	TJ050
1021.826	2.671	3698446	WORD	n/a	wordpools/wordpool_EN.txt	GATE	6	7	n/a	n/a	pyFR	0	TJ050
1024.497	2.572	3703788	WORD	n/a	wordpools/wordpool_EN.txt	POOL	7	7	n/a	n/a	pyFR	0	TJ050
1027.069	2.753	3708932	WORD	n/a	wordpools/wordpool_EN.txt	TRAY	8	7	n/a	n/a	pyFR	0	TJ050
1029.822	2.672	3714438	WORD	n/a	wordpools/wordpool_EN.txt	CLOUD	9	7	n/a	n/a	pyFR	0	TJ050
1032.494	2.804	3719781	WORD	n/a	wordpools/wordpool_EN.txt	FOG	10	7	n/a	n/a	pyFR	0	TJ050
1035.298	2.839	3725389	WORD	n/a	wordpools/wordpool_EN.txt	JAR	11	7	n/a	n/a	pyFR	0	TJ050
1038.137	2.671	3731067	WORD	n/a	wordpools/wordpool_EN.txt	SPONGE	12	7	n/a	n/a	pyFR	0	TJ050
1040.808	2.454	3736409	WORD	n/a	wordpools/wordpool_EN.txt	CARD	13	7	n/a	n/a	pyFR	0	TJ050
1043.262	2.437	3741317	WORD	n/a	wordpools/wordpool_EN.txt	STAR	14	7	n/a	n/a	pyFR	0	TJ050
1045.699	1.621	3746191	WORD	n/a	wordpools/wordpool_EN.txt	COAT	15	7	n/a	n/a	pyFR	0	TJ050
1047.32	0.884	3749432	START	n/a	n/a	n/a	n/a	7	[-999 -999 -999]	-999	pyFR	0	TJ050
1048.204	3.088	3751200	PROB	n/a	n/a	n/a	n/a	7	[2 5 2]	9	pyFR	0	TJ050
1051.292	3.322	3757376	PROB	n/a	n/a	n/a	n/a	7	[3 3 6]	12	pyFR	0	TJ050
1054.614	2.304	3764020	PROB	n/a	n/a	n/a	n/a	7	[3 2 2]	7	pyFR	0	TJ050
1056.918	3.439	3768628	PROB	n/a	n/a	n/a	n/a	7	[2 3 3]	8	pyFR	0	TJ050
1060.357	2.871	3775505	PROB	n/a	n/a	n/a	n/a	7	[2 6 3]	11	pyFR	0	TJ050
1063.228	4.108	3781247	PROB	n/a	n/a	n/a	n/a	7	[9 6 6]	21	pyFR	0	TJ050
1067.336	1.169	3789463	STOP	n/a	n/a	n/a	n/a	7	[-999 -999 -999]	-999	pyFR	0	TJ050
1068.505	0.971	3791801	REC_START	n/a	n/a	n/a	-999	7	n/a	n/a	pyFR	0	TJ050
1069.476	0.311	3793743	REC_WORD_VV	0.311	n/a	<>	-999	7	n/a	n/a	pyFR	0	TJ050
1069.787	2.027	3794365	REC_WORD	2.027	n/a	FOG	-999	7	n/a	n/a	pyFR	0	TJ050
1071.814	1.625	3798419	REC_WORD	1.625	n/a	JAR	-999	7	n/a	n/a	pyFR	0	TJ050
1073.439	1.379	3801668	REC_WORD	1.379	n/a	VAN	-999	7	n/a	n/a	pyFR	0	TJ050
1074.818	24.777	3804426	REC_WORD	24.777	n/a	RIB	-999	7	n/a	n/a	pyFR	0	TJ050
1099.595	27.909	3853978	REC_WORD	27.909	n/a	ROOT	-999	7	n/a	n/a	pyFR	0	TJ050
1127.504	0.016	3909794	TRIAL	n/a	n/a	n/a	-999	8	n/a	n/a	pyFR	0	TJ050
1127.52	2.704	3909826	ORIENT	n/a	n/a	n/a	-999	8	n/a	n/a	pyFR	0	TJ050
1130.224	2.789	3915234	WORD	n/a	wordpools/wordpool_EN.txt	CALF	1	8	n/a	n/a	pyFR	0	TJ050
1133.013	2.471	3920812	WORD	n/a	wordpools/wordpool_EN.txt	TOY	2	8	n/a	n/a	pyFR	0	TJ050
1135.484	2.471	3925754	WORD	n/a	wordpools/wordpool_EN.txt	SHIP	3	8	n/a	n/a	pyFR	0	TJ050
1137.955	2.537	3930696	WORD	n/a	wordpools/wordpool_EN.txt	PLATE	4	8	n/a	n/a	pyFR	0	TJ050
1140.492	2.604	3935769	WORD	n/a	wordpools/wordpool_EN.txt	STORM	5	8	n/a	n/a	pyFR	0	TJ050
1143.096	2.772	3940977	WORD	n/a	wordpools/wordpool_EN.txt	GEESE	6	8	n/a	n/a	pyFR	0	TJ050
1145.868	2.572	3946521	WORD	n/a	wordpools/wordpool_EN.txt	FLOOR	7	8	n/a	n/a	pyFR	0	TJ050
1148.44	2.703	3951665	WORD	n/a	wordpools/wordpool_EN.txt	TEA	8	8	n/a	n/a	pyFR	0	TJ050
1151.143	2.805	3957071	WORD	n/a	wordpools/wordpool_EN.txt	STONE	9	8	n/a	n/a	pyFR	0	TJ050
1153.948	2.838	3962680	WORD	n/a	wordpools/wordpool_EN.txt	GIRL	10	8	n/a	n/a	pyFR	0	TJ050
1156.786	2.538	3968356	WORD	n/a	wordpools/wordpool_EN.txt	SHIRT	11	8	n/a	n/a	pyFR	0	TJ050
1159.324	2.521	3973432	WORD	n/a	wordpools/wordpool_EN.txt	MOOSE	12	8	n/a	n/a	pyFR	0	TJ050
1161.845	2.637	3978474	WORD	n/a	wordpools/wordpool_EN.txt	WHALE	13	8	n/a	n/a	pyFR	0	TJ050
1164.482	2.772	3983748	WORD	n/a	wordpools/wordpool_EN.txt	BRUSH	14	8	n/a	n/a	pyFR	0	TJ050
1167.254	1.62	3989291	WORD	n/a	wordpools/wordpool_EN.txt	CASH	15	8	n/a	n/a	pyFR	0	TJ050
1168.874	0.968	3992531	START	n/a	n/a	n/a	n/a	8	[-999 -999 -999]	-999	pyFR	0	TJ050
1169.842	6.644	3994467	PROB	n/a	n/a	n/a	n/a	8	[9 5 8]	22	pyFR	0	TJ050
1176.486	3.356	4007755	PROB	n/a	n/a	n/a	n/a	8	[9 1 1]	11	pyFR	0	TJ050
1179.842	2.036	4014467	PROB	n/a	n/a	n/a	n/a	8	[3 3 6]	12	pyFR	0	TJ050
1181.878	2.821	4018538	PROB	n/a	n/a	n/a	n/a	8	[4 4 1]	9	pyFR	0	TJ050
1184.699	3.089	4024180	PROB	n/a	n/a	n/a	n/a	8	[8 1 4]	13	pyFR	0	TJ050
1187.788	5.036	4030358	PROB	n/a	n/a	n/a	n/a	8	[6 8 8]	24	pyFR	0	TJ050
1192.824	1.092	4040430	STOP	n/a	n/a	n/a	n/a	8	[-999 -999 -999]	-999	pyFR	0	TJ050
1193.916	1.616	4042613	REC_START	n/a	n/a	n/a	-999	8	n/a	n/a	pyFR	0	TJ050
1195.532	1.086	4045845	REC_WORD	1.086	n/a	WHALE	-999	8	n/a	n/a	pyFR	0	TJ050
1196.618	1.112	4048017	REC_WORD	1.112	n/a	BRUSH	-999	8	n/a	n/a	pyFR	0	TJ050
1197.73	2.678	4050241	REC_WORD	2.678	n/a	CALF	-999	8	n/a	n/a	pyFR	0	TJ050
1200.408	22.963	4055597	REC_WORD	22.963	n/a	CASH	-999	8	n/a	n/a	pyFR	0	TJ050
1223.371	2.514	4101521	REC_WORD	2.514	n/a	SHRIMP	-999	8	n/a	n/a	pyFR	0	TJ050
1225.885	4.2	4106549	REC_WORD_VV	4.2	n/a	<>	-999	8	n/a	n/a	pyFR	0	TJ050
1230.085	1.0	4114949	REC_WORD	1.0	n/a	MONEY	-999	8	n/a	n/a	pyFR	0	TJ050
1231.085	46.171	4116949	REC_WORD_VV	46.171	n/a	<>	-999	8	n/a	n/a	pyFR	0	TJ050
1277.256	0.016	4209287	TRIAL	n/a	n/a	n/a	-999	9	n/a	n/a	pyFR	0	TJ050
1277.272	2.939	4209319	ORIENT	n/a	n/a	n/a	-999	9	n/a	n/a	pyFR	0	TJ050
1280.211	2.821	4215197	WORD	n/a	wordpools/wordpool_EN.txt	HAT	1	9	n/a	n/a	pyFR	0	TJ050
1283.032	2.771	4220839	WORD	n/a	wordpools/wordpool_EN.txt	DOG	2	9	n/a	n/a	pyFR	0	TJ050
1285.803	2.571	4226381	WORD	n/a	wordpools/wordpool_EN.txt	MAZE	3	9	n/a	n/a	pyFR	0	TJ050
1288.374	2.471	4231522	WORD	n/a	wordpools/wordpool_EN.txt	JUDGE	4	9	n/a	n/a	pyFR	0	TJ050
1290.845	2.722	4236464	WORD	n/a	wordpools/wordpool_EN.txt	FUR	5	9	n/a	n/a	pyFR	0	TJ050
1293.567	2.704	4241908	WORD	n/a	wordpools/wordpool_EN.txt	MUD	6	9	n/a	n/a	pyFR	0	TJ050
1296.271	2.654	4247316	WORD	n/a	wordpools/wordpool_EN.txt	COW	7	9	n/a	n/a	pyFR	0	TJ050
1298.925	2.755	4252624	WORD	n/a	wordpools/wordpool_EN.txt	BATH	8	9	n/a	n/a	pyFR	0	TJ050
1301.68	2.738	4258133	WORD	n/a	wordpools/wordpool_EN.txt	FLEA	9	9	n/a	n/a	pyFR	0	TJ050
1304.418	2.554	4263609	WORD	n/a	wordpools/wordpool_EN.txt	TRUCK	10	9	n/a	n/a	pyFR	0	TJ050
1306.972	2.672	4268717	WORD	n/a	wordpools/wordpool_EN.txt	GOAT	11	9	n/a	n/a	pyFR	0	TJ050
1309.644	2.437	4274061	WORD	n/a	wordpools/wordpool_EN.txt	WORM	12	9	n/a	n/a	pyFR	0	TJ050
1312.081	2.738	4278935	WORD	n/a	wordpools/wordpool_EN.txt	FORT	13	9	n/a	n/a	pyFR	0	TJ050
1314.819	2.454	4284410	WORD	n/a	wordpools/wordpool_EN.txt	SHOE	14	9	n/a	n/a	pyFR	0	TJ050
1317.273	1.62	4289318	WORD	n/a	wordpools/wordpool_EN.txt	CLOWN	15	9	n/a	n/a	pyFR	0	TJ050
1318.893	1.101	4292558	START	n/a	n/a	n/a	n/a	9	[-999 -999 -999]	-999	pyFR	0	TJ050
1319.994	4.674	4294760	PROB	n/a	n/a	n/a	n/a	9	[6 6 4]	16	pyFR	0	TJ050
1324.668	3.223	4304108	PROB	n/a	n/a	n/a	n/a	9	[4 3 3]	10	pyFR	0	TJ050
1327.891	2.888	4310553	PROB	n/a	n/a	n/a	n/a	9	[6 7 8]	21	pyFR	0	TJ050
1330.779	2.087	4316329	PROB	n/a	n/a	n/a	n/a	9	[6 4 2]	12	pyFR	0	TJ050
1332.866	3.889	4320503	PROB	n/a	n/a	n/a	n/a	9	[8 4 2]	14	pyFR	0	TJ050
1336.755	6.445	4328281	PROB	n/a	n/a	n/a	n/a	9	[5 7 3]	15	pyFR	0	TJ050
1343.2	1.119	4341170	STOP	n/a	n/a	n/a	n/a	9	[-999 -999 -999]	-999	pyFR	0	TJ050
1344.319	5.478	4343408	REC_START	n/a	n/a	n/a	-999	9	n/a	n/a	pyFR	0	TJ050
1349.797	4.827	4354364	REC_WORD_VV	4.827	n/a	<>	-999	9	n/a	n/a	pyFR	0	TJ050
1354.624	1.545	4364017	REC_WORD	1.545	n/a	CALF	-999	9	n/a	n/a	pyFR	0	TJ050
1356.169	3.868	4367107	REC_WORD	3.868	n/a	SPOON	-999	9	n/a	n/a	pyFR	0	TJ050
1360.037	3.419	4374843	REC_WORD	3.419	n/a	CAR	-999	9	n/a	n/a	pyFR	0	TJ050
1363.456	2.521	4381681	REC_WORD_VV	2.521	n/a	<>	-999	9	n/a	n/a	pyFR	0	TJ050
1365.977	18.015	4386723	REC_WORD	18.015	n/a	HIVE	-999	9	n/a	n/a	pyFR	0	TJ050
1383.992	1.165	4422751	REC_WORD	1.165	n/a	EEL	-999	9	n/a	n/a	pyFR	0	TJ050
1385.157	39.28	4425081	REC_WORD_VV	39.28	n/a	<>	-999	9	n/a	n/a	pyFR	0	TJ050
1424.437	0.016	4503638	TRIAL	n/a	n/a	n/a	-999	10	n/a	n/a	pyFR	0	TJ050
1424.453	2.855	4503670	ORIENT	n/a	n/a	n/a	-999	10	n/a	n/a	pyFR	0	TJ050
1427.308	2.588	4509380	WORD	n/a	wordpools/wordpool_EN.txt	PEAR	1	10	n/a	n/a	pyFR	0	TJ050
1429.896	2.604	4514556	WORD	n/a	wordpools/wordpool_EN.txt	ROOM	2	10	n/a	n/a	pyFR	0	TJ050
1432.5	2.505	4519764	WORD	n/a	wordpools/wordpool_EN.txt	SMOKE	3	10	n/a	n/a	pyFR	0	TJ050
1435.005	2.47	4524773	WORD	n/a	wordpools/wordpool_EN.txt	RAKE	4	10	n/a	n/a	pyFR	0	TJ050
1437.475	2.471	4529713	WORD	n/a	wordpools/wordpool_EN.txt	PURSE	5	10	n/a	n/a	pyFR	0	TJ050
1439.946	2.521	4534655	WORD	n/a	wordpools/wordpool_EN.txt	HOLE	6	10	n/a	n/a	pyFR	0	TJ050
1442.467	2.771	4539697	WORD	n/a	wordpools/wordpool_EN.txt	BAG	7	10	n/a	n/a	pyFR	0	TJ050
1445.238	2.504	4545239	WORD	n/a	wordpools/wordpool_EN.txt	SAIL	8	10	n/a	n/a	pyFR	0	TJ050
1447.742	2.823	4550247	WORD	n/a	wordpools/wordpool_EN.txt	GUARD	9	10	n/a	n/a	pyFR	0	TJ050
1450.565	2.487	4555892	WORD	n/a	wordpools/wordpool_EN.txt	BLOOM	10	10	n/a	n/a	pyFR	0	TJ050
1453.052	2.704	4560866	WORD	n/a	wordpools/wordpool_EN.txt	PLANE	11	10	n/a	n/a	pyFR	0	TJ050
1455.756	2.538	4566274	WORD	n/a	wordpools/wordpool_EN.txt	DRUM	12	10	n/a	n/a	pyFR	0	TJ050
1458.294	2.571	4571350	WORD	n/a	wordpools/wordpool_EN.txt	CLIFF	13	10	n/a	n/a	pyFR	0	TJ050
1460.865	2.571	4576492	WORD	n/a	wordpools/wordpool_EN.txt	BED	14	10	n/a	n/a	pyFR	0	TJ050
1463.436	1.62	4581633	WORD	n/a	wordpools/wordpool_EN.txt	FAN	15	10	n/a	n/a	pyFR	0	TJ050
1465.056	0.984	4584873	START	n/a	n/a	n/a	n/a	10	[-999 -999 -999]	-999	pyFR	0	TJ050
1466.04	2.771	4586841	PROB	n/a	n/a	n/a	n/a	10	[3 2 2]	7	pyFR	0	TJ050
1468.811	3.205	4592383	PROB	n/a	n/a	n/a	n/a	10	[4 2 5]	11	pyFR	0	TJ050
1472.016	4.576	4598793	PROB	n/a	n/a	n/a	n/a	10	[9 6 1]	16	pyFR	0	TJ050
1476.592	2.47	4607944	PROB	n/a	n/a	n/a	n/a	10	[4 4 1]	9	pyFR	0	TJ050
1479.062	2.721	4612884	PROB	n/a	n/a	n/a	n/a	10	[7 6 8]	21	pyFR	0	TJ050
1481.783	4.705	4618326	PROB	n/a	n/a	n/a	n/a	10	[7 7 5]	19	pyFR	0	TJ050
1486.488	1.055	4627736	STOP	n/a	n/a	n/a	n/a	10	[-999 -999 -999]	-999	pyFR	0	TJ050
1487.543	0.0	4629846	REC_START	n/a	n/a	n/a	-999	10	n/a	n/a	pyFR	0	TJ050
1487.543	1.745	4629846	REC_WORD_VV	1.745	n/a	<>	-999	10	n/a	n/a	pyFR	0	TJ050
1489.288	1.278	4633335	REC_WORD	1.278	n/a	BLOOM	-999	10	n/a	n/a	pyFR	0	TJ050
1490.566	1.325	4635891	REC_WORD	1.325	n/a	FOG	-999	10	n/a	n/a	pyFR	0	TJ050
1491.891	0.582	4638541	REC_WORD_VV	0.582	n/a	<>	-999	10	n/a	n/a	pyFR	0	TJ050
1492.473	13.195	4639705	REC_WORD	13.195	n/a	PLANE	-999	10	n/a	n/a	pyFR	0	TJ050
1505.668	0.429	4666094	REC_WORD	0.429	n/a	BED	-999	10	n/a	n/a	pyFR	0	TJ050
1506.097	44.92	4666952	REC_WORD	44.92	n/a	FAN	-999	10	n/a	n/a	pyFR	0	TJ050
1551.017	0.016	4756789	TRIAL	n/a	n/a	n/a	-999	11	n/a	n/a	pyFR	0	TJ050
1551.033	2.704	4756821	ORIENT	n/a	n/a	n/a	-999	11	n/a	n/a	pyFR	0	TJ050
1553.737	2.572	4762229	WORD	n/a	wordpools/wordpool_EN.txt	BOOT	1	11	n/a	n/a	pyFR	0	TJ050
1556.309	2.554	4767372	WORD	n/a	wordpools/wordpool_EN.txt	CHIN	2	11	n/a	n/a	pyFR	0	TJ050
1558.863	2.804	4772480	WORD	n/a	wordpools/wordpool_EN.txt	SLUSH	3	11	n/a	n/a	pyFR	0	TJ050
1561.667	2.789	4778088	WORD	n/a	wordpools/wordpool_EN.txt	PALM	4	11	n/a	n/a	pyFR	0	TJ050
1564.456	2.821	4783666	WORD	n/a	wordpools/wordpool_EN.txt	RAIN	5	11	n/a	n/a	pyFR	0	TJ050
1567.277	2.488	4789308	WORD	n/a	wordpools/wordpool_EN.txt	GOLD	6	11	n/a	n/a	pyFR	0	TJ050
1569.765	2.571	4794283	WORD	n/a	wordpools/wordpool_EN.txt	DEER	7	11	n/a	n/a	pyFR	0	TJ050
1572.336	2.52	4799425	WORD	n/a	wordpools/wordpool_EN.txt	MUG	8	11	n/a	n/a	pyFR	0	TJ050
1574.856	2.688	4804465	WORD	n/a	wordpools/wordpool_EN.txt	DRESS	9	11	n/a	n/a	pyFR	0	TJ050
1577.544	2.771	4809841	WORD	n/a	wordpools/wordpool_EN.txt	TOOTH	10	11	n/a	n/a	pyFR	0	TJ050
1580.315	2.605	4815383	WORD	n/a	wordpools/wordpool_EN.txt	LAND	11	11	n/a	n/a	pyFR	0	TJ050
1582.92	2.488	4820592	WORD	n/a	wordpools/wordpool_EN.txt	STRING	12	11	n/a	n/a	pyFR	0	TJ050
1585.408	2.804	4825568	WORD	n/a	wordpools/wordpool_EN.txt	OAK	13	11	n/a	n/a	pyFR	0	TJ050
1588.212	2.472	4831176	WORD	n/a	wordpools/wordpool_EN.txt	MOUSE	14	11	n/a	n/a	pyFR	0	TJ050
1590.684	1.62	4836120	WORD	n/a	wordpools/wordpool_EN.txt	FILM	15	11	n/a	n/a	pyFR	0	TJ050
1592.304	1.1	4839360	START	n/a	n/a	n/a	n/a	11	[-999 -999 -999]	-999	pyFR	0	TJ050
1593.404	4.391	4841560	PROB	n/a	n/a	n/a	n/a	11	[3 7 9]	19	pyFR	0	TJ050
1597.795	2.921	4850341	PROB	n/a	n/a	n/a	n/a	11	[6 1 8]	15	pyFR	0	TJ050
1600.716	2.671	4856183	PROB	n/a	n/a	n/a	n/a	11	[7 6 5]	18	pyFR	0	TJ050
1603.387	3.273	4861525	PROB	n/a	n/a	n/a	n/a	11	[3 1 6]	10	pyFR	0	TJ050
1606.66	3.305	4868071	PROB	n/a	n/a	n/a	n/a	11	[5 2 1]	8	pyFR	0	TJ050
1609.965	2.287	4874680	PROB	n/a	n/a	n/a	n/a	11	[1 3 2]	6	pyFR	0	TJ050
1612.252	3.731	4879254	PROB	n/a	n/a	n/a	n/a	11	[8 9 2]	19	pyFR	0	TJ050
1615.983	1.212	4886716	STOP	n/a	n/a	n/a	n/a	11	[-999 -999 -999]	-999	pyFR	0	TJ050
1617.195	0.448	4889140	REC_START	n/a	n/a	n/a	-999	11	n/a	n/a	pyFR	0	TJ050
1617.643	1.393	4890036	REC_WORD_VV	1.393	n/a	<>	-999	11	n/a	n/a	pyFR	0	TJ050
1619.036	0.982	4892822	REC_WORD	0.982	n/a	BOOT	-999	11	n/a	n/a	pyFR	0	TJ050
1620.018	4.197	4894786	REC_WORD	4.197	n/a	PALM	-999	11	n/a	n/a	pyFR	0	TJ050
1624.215	2.521	4903179	REC_WORD	2.521	n/a	SLUSH	-999	11	n/a	n/a	pyFR	0	TJ050
1626.736	2.546	4908221	REC_WORD	2.546	n/a	LAND	-999	11	n/a	n/a	pyFR	0	TJ050
1629.282	5.064	4913313	REC_WORD	5.064	n/a	WING	-999	11	n/a	n/a	pyFR	0	TJ050
1634.346	2.146	4923441	REC_WORD	2.146	n/a	CHIN	-999	11	n/a	n/a	pyFR	0	TJ050
1636.492	2.692	4927732	REC_WORD	2.692	n/a	MUG	-999	11	n/a	n/a	pyFR	0	TJ050
1639.184	37.311	4933116	REC_WORD_VV	37.311	n/a	<>	-999	11	n/a	n/a	pyFR	0	TJ050
1676.495	0.015	5007735	TRIAL	n/a	n/a	n/a	-999	12	n/a	n/a	pyFR	0	TJ050
1676.51	2.989	5007765	ORIENT	n/a	n/a	n/a	-999	12	n/a	n/a	pyFR	0	TJ050
1679.499	2.471	5013743	WORD	n/a	wordpools/wordpool_EN.txt	PLANT	1	12	n/a	n/a	pyFR	0	TJ050
1681.97	2.772	5018685	WORD	n/a	wordpools/wordpool_EN.txt	THUMB	2	12	n/a	n/a	pyFR	0	TJ050
1684.742	2.721	5024229	WORD	n/a	wordpools/wordpool_EN.txt	WORLD	3	12	n/a	n/a	pyFR	0	TJ050
1687.463	2.437	5029671	WORD	n/a	wordpools/wordpool_EN.txt	STOOL	4	12	n/a	n/a	pyFR	0	TJ050
1689.9	2.438	5034544	WORD	n/a	wordpools/wordpool_EN.txt	MILK	5	12	n/a	n/a	pyFR	0	TJ050
1692.338	2.47	5039420	WORD	n/a	wordpools/wordpool_EN.txt	DART	6	12	n/a	n/a	pyFR	0	TJ050
1694.808	2.655	5044360	WORD	n/a	wordpools/wordpool_EN.txt	SOUP	7	12	n/a	n/a	pyFR	0	TJ050
1697.463	2.487	5049670	WORD	n/a	wordpools/wordpool_EN.txt	BOMB	8	12	n/a	n/a	pyFR	0	TJ050
1699.95	2.722	5054644	WORD	n/a	wordpools/wordpool_EN.txt	TOAD	9	12	n/a	n/a	pyFR	0	TJ050
1702.672	2.571	5060088	WORD	n/a	wordpools/wordpool_EN.txt	FARM	10	12	n/a	n/a	pyFR	0	TJ050
1705.243	2.654	5065229	WORD	n/a	wordpools/wordpool_EN.txt	BOOK	11	12	n/a	n/a	pyFR	0	TJ050
1707.897	2.554	5070537	WORD	n/a	wordpools/wordpool_EN.txt	SEAL	12	12	n/a	n/a	pyFR	0	TJ050
1710.451	2.438	5075645	WORD	n/a	wordpools/wordpool_EN.txt	JEEP	13	12	n/a	n/a	pyFR	0	TJ050
1712.889	2.454	5080521	WORD	n/a	wordpools/wordpool_EN.txt	BEE	14	12	n/a	n/a	pyFR	0	TJ050
1715.343	1.62	5085429	WORD	n/a	wordpools/wordpool_EN.txt	SKY	15	12	n/a	n/a	pyFR	0	TJ050
1716.963	1.085	5088668	START	n/a	n/a	n/a	n/a	12	[-999 -999 -999]	-999	pyFR	0	TJ050
1718.048	4.34	5090838	PROB	n/a	n/a	n/a	n/a	12	[7 8 5]	20	pyFR	0	TJ050
1722.388	2.036	5099518	PROB	n/a	n/a	n/a	n/a	12	[1 3 1]	5	pyFR	0	TJ050
1724.424	2.722	5103590	PROB	n/a	n/a	n/a	n/a	12	[8 8 4]	20	pyFR	0	TJ050
1727.146	3.573	5109034	PROB	n/a	n/a	n/a	n/a	12	[6 6 1]	13	pyFR	0	TJ050
1730.719	2.203	5116179	PROB	n/a	n/a	n/a	n/a	12	[4 1 9]	14	pyFR	0	TJ050
1732.922	2.471	5120585	PROB	n/a	n/a	n/a	n/a	12	[2 1 3]	6	pyFR	0	TJ050
1735.393	3.118	5125527	PROB	n/a	n/a	n/a	n/a	12	[1 7 2]	10	pyFR	0	TJ050
1738.511	1.173	5131763	STOP	n/a	n/a	n/a	n/a	12	[-999 -999 -999]	-999	pyFR	0	TJ050
1739.684	0.0	5134109	REC_WORD_VV	0.0	n/a	<>	-999	12	n/a	n/a	pyFR	0	TJ050
1739.684	1.165	5134109	REC_START	n/a	n/a	n/a	-999	12	n/a	n/a	pyFR	0	TJ050
1740.849	1.507	5136439	REC_WORD	1.507	n/a	SEAL	-999	12	n/a	n/a	pyFR	0	TJ050
1742.356	8.963	5139453	REC_WORD	8.963	n/a	JEEP	-999	12	n/a	n/a	pyFR	0	TJ050
1751.319	0.901	5157378	REC_WORD	0.901	n/a	SEAL	-999	12	n/a	n/a	pyFR	0	TJ050
1752.22	9.707	5159180	REC_WORD	9.707	n/a	JEEP	-999	12	n/a	n/a	pyFR	0	TJ050
1761.927	0.892	5178593	REC_WORD	0.892	n/a	WORLD	-999	12	n/a	n/a	pyFR	0	TJ050
1762.819	59.554	5180377	REC_WORD	59.554	n/a	BOMB	-999	12	n/a	n/a	pyFR	0	TJ050
1822.373	0.017	5299481	TRIAL	n/a	n/a	n/a	-999	13	n/a	n/a	pyFR	0	TJ050
1822.39	3.005	5299515	ORIENT	n/a	n/a	n/a	-999	13	n/a	n/a	pyFR	0	TJ050
1825.395	2.604	5305524	WORD	n/a	wordpools/wordpool_EN.txt	DAD	1	13	n/a	n/a	pyFR	0	TJ050
1827.999	2.472	5310732	WORD	n/a	wordpools/wordpool_EN.txt	AXE	2	13	n/a	n/a	pyFR	0	TJ050
1830.471	2.503	5315676	WORD	n/a	wordpools/wordpool_EN.txt	SEA	3	13	n/a	n/a	pyFR	0	TJ050
1832.974	2.754	5320682	WORD	n/a	wordpools/wordpool_EN.txt	ROAD	4	13	n/a	n/a	pyFR	0	TJ050
1835.728	2.655	5326190	WORD	n/a	wordpools/wordpool_EN.txt	NET	5	13	n/a	n/a	pyFR	0	TJ050
1838.383	2.504	5331499	WORD	n/a	wordpools/wordpool_EN.txt	HAWK	6	13	n/a	n/a	pyFR	0	TJ050
1840.887	2.538	5336507	WORD	n/a	wordpools/wordpool_EN.txt	FLAG	7	13	n/a	n/a	pyFR	0	TJ050
1843.425	2.738	5341583	WORD	n/a	wordpools/wordpool_EN.txt	TOAST	8	13	n/a	n/a	pyFR	0	TJ050
1846.163	2.788	5347059	WORD	n/a	wordpools/wordpool_EN.txt	SNOW	9	13	n/a	n/a	pyFR	0	TJ050
1848.951	2.571	5352635	WORD	n/a	wordpools/wordpool_EN.txt	ELF	10	13	n/a	n/a	pyFR	0	TJ050
1851.522	2.821	5357776	WORD	n/a	wordpools/wordpool_EN.txt	SPOON	11	13	n/a	n/a	pyFR	0	TJ050
1854.343	2.822	5363418	WORD	n/a	wordpools/wordpool_EN.txt	JET	12	13	n/a	n/a	pyFR	0	TJ050
1857.165	2.471	5369062	WORD	n/a	wordpools/wordpool_EN.txt	CLAY	13	13	n/a	n/a	pyFR	0	TJ050
1859.636	2.537	5374004	WORD	n/a	wordpools/wordpool_EN.txt	BARN	14	13	n/a	n/a	pyFR	0	TJ050
1862.173	1.621	5379078	WORD	n/a	wordpools/wordpool_EN.txt	SWORD	15	13	n/a	n/a	pyFR	0	TJ050
1863.794	1.134	5382320	START	n/a	n/a	n/a	n/a	13	[-999 -999 -999]	-999	pyFR	0	TJ050
1864.928	4.157	5384587	PROB	n/a	n/a	n/a	n/a	13	[3 6 7]	16	pyFR	0	TJ050
1869.085	4.307	5392901	PROB	n/a	n/a	n/a	n/a	13	[8 2 8]	18	pyFR	0	TJ050
1873.392	2.487	5401515	PROB	n/a	n/a	n/a	n/a	13	[2 8 4]	14	pyFR	0	TJ050
1875.879	2.505	5406489	PROB	n/a	n/a	n/a	n/a	13	[1 3 2]	6	pyFR	0	TJ050
1878.384	3.288	5411498	PROB	n/a	n/a	n/a	n/a	13	[1 7 2]	10	pyFR	0	TJ050
1881.672	3.056	5418074	PROB	n/a	n/a	n/a	n/a	13	[7 5 2]	14	pyFR	0	TJ050
1884.728	1.186	5424186	STOP	n/a	n/a	n/a	n/a	13	[-999 -999 -999]	-999	pyFR	0	TJ050
1885.914	0.238	5426558	REC_START	n/a	n/a	n/a	-999	13	n/a	n/a	pyFR	0	TJ050
1886.152	2.36	5427034	REC_WORD_VV	2.36	n/a	<>	-999	13	n/a	n/a	pyFR	0	TJ050
1888.512	1.8	5431754	REC_WORD	1.8	n/a	AXE	-999	13	n/a	n/a	pyFR	0	TJ050
1890.312	5.038	5435354	REC_WORD	5.038	n/a	DAD	-999	13	n/a	n/a	pyFR	0	TJ050
1895.35	7.222	5445429	REC_WORD	7.222	n/a	PLANE	-999	13	n/a	n/a	pyFR	0	TJ050
1902.572	75.847	5459873	REC_WORD	75.847	n/a	ELF	-999	13	n/a	n/a	pyFR	0	TJ050
1978.419	0.016	5611561	TRIAL	n/a	n/a	n/a	-999	14	n/a	n/a	pyFR	0	TJ050
1978.435	2.638	5611593	ORIENT	n/a	n/a	n/a	-999	14	n/a	n/a	pyFR	0	TJ050
1981.073	2.772	5616869	WORD	n/a	wordpools/wordpool_EN.txt	MOTH	1	14	n/a	n/a	pyFR	0	TJ050
1983.845	2.805	5622413	WORD	n/a	wordpools/wordpool_EN.txt	TRASH	2	14	n/a	n/a	pyFR	0	TJ050
1986.65	2.804	5628022	WORD	n/a	wordpools/wordpool_EN.txt	BANK	3	14	n/a	n/a	pyFR	0	TJ050
1989.454	2.822	5633630	WORD	n/a	wordpools/wordpool_EN.txt	BALL	4	14	n/a	n/a	pyFR	0	TJ050
1992.276	2.671	5639274	WORD	n/a	wordpools/wordpool_EN.txt	HOSE	5	14	n/a	n/a	pyFR	0	TJ050
1994.947	2.788	5644616	WORD	n/a	wordpools/wordpool_EN.txt	SHIELD	6	14	n/a	n/a	pyFR	0	TJ050
1997.735	2.738	5650192	WORD	n/a	wordpools/wordpool_EN.txt	FORK	7	14	n/a	n/a	pyFR	0	TJ050
2000.473	2.537	5655667	WORD	n/a	wordpools/wordpool_EN.txt	JAIL	8	14	n/a	n/a	pyFR	0	TJ050
2003.01	2.805	5660741	WORD	n/a	wordpools/wordpool_EN.txt	SIGN	9	14	n/a	n/a	pyFR	0	TJ050
2005.815	2.688	5666351	WORD	n/a	wordpools/wordpool_EN.txt	APE	10	14	n/a	n/a	pyFR	0	TJ050
2008.503	2.638	5671727	WORD	n/a	wordpools/wordpool_EN.txt	VASE	11	14	n/a	n/a	pyFR	0	TJ050
2011.141	2.704	5677003	WORD	n/a	wordpools/wordpool_EN.txt	CAKE	12	14	n/a	n/a	pyFR	0	TJ050
2013.845	2.504	5682410	WORD	n/a	wordpools/wordpool_EN.txt	ROSE	13	14	n/a	n/a	pyFR	0	TJ050
2016.349	2.755	5687418	WORD	n/a	wordpools/wordpool_EN.txt	SWAMP	14	14	n/a	n/a	pyFR	0	TJ050
2019.104	1.62	5692928	WORD	n/a	wordpools/wordpool_EN.txt	WOLF	15	14	n/a	n/a	pyFR	0	TJ050
2020.724	0.852	5696168	START	n/a	n/a	n/a	n/a	14	[-999 -999 -999]	-999	pyFR	0	TJ050
2021.576	6.51	5697872	PROB	n/a	n/a	n/a	n/a	14	[4 4 9]	17	pyFR	0	TJ050
2028.086	4.491	5710891	PROB	n/a	n/a	n/a	n/a	14	[9 8 4]	21	pyFR	0	TJ050
2032.577	2.921	5719873	PROB	n/a	n/a	n/a	n/a	14	[5 3 8]	16	pyFR	0	TJ050
2035.498	2.705	5725715	PROB	n/a	n/a	n/a	n/a	14	[7 3 1]	11	pyFR	0	TJ050
2038.203	2.98	5731125	PROB	n/a	n/a	n/a	n/a	14	[7 4 8]	19	pyFR	0	TJ050
2041.183	1.111	5737084	STOP	n/a	n/a	n/a	n/a	14	[-999 -999 -999]	-999	pyFR	0	TJ050
2042.294	0.408	5739306	REC_START	n/a	n/a	n/a	-999	14	n/a	n/a	pyFR	0	TJ050
2042.702	0.68	5740122	REC_WORD_VV	0.68	n/a	<>	-999	14	n/a	n/a	pyFR	0	TJ050
2043.382	0.941	5741482	REC_WORD	0.941	n/a	WOLF	-999	14	n/a	n/a	pyFR	0	TJ050
2044.323	1.029	5743364	REC_WORD	1.029	n/a	MOTH	-999	14	n/a	n/a	pyFR	0	TJ050
2045.352	3.754	5745422	REC_WORD	3.754	n/a	TRASH	-999	14	n/a	n/a	pyFR	0	TJ050
2049.106	2.172	5752930	REC_WORD	2.172	n/a	HOSE	-999	14	n/a	n/a	pyFR	0	TJ050
2051.278	3.067	5757274	REC_WORD	3.067	n/a	SHIELD	-999	14	n/a	n/a	pyFR	0	TJ050
2054.345	2.589	5763407	REC_WORD_VV	2.589	n/a	<>	-999	14	n/a	n/a	pyFR	0	TJ050
2056.934	71.487	5768585	REC_WORD	71.487	n/a	APE	-999	14	n/a	n/a	pyFR	0	TJ050
2128.421	0.017	5911554	TRIAL	n/a	n/a	n/a	-999	15	n/a	n/a	pyFR	0	TJ050
2128.438	2.955	5911588	ORIENT	n/a	n/a	n/a	-999	15	n/a	n/a	pyFR	0	TJ050
2131.393	2.821	5917498	WORD	n/a	wordpools/wordpool_EN.txt	NEST	1	15	n/a	n/a	pyFR	0	TJ050
2134.214	2.738	5923139	WORD	n/a	wordpools/wordpool_EN.txt	COUCH	2	15	n/a	n/a	pyFR	0	TJ050
2136.952	2.689	5928615	WORD	n/a	wordpools/wordpool_EN.txt	WEED	3	15	n/a	n/a	pyFR	0	TJ050
2139.641	2.821	5933993	WORD	n/a	wordpools/wordpool_EN.txt	HAND	4	15	n/a	n/a	pyFR	0	TJ050
2142.462	2.571	5939635	WORD	n/a	wordpools/wordpool_EN.txt	BUSH	5	15	n/a	n/a	pyFR	0	TJ050
2145.033	2.704	5944777	WORD	n/a	wordpools/wordpool_EN.txt	WHEEL	6	15	n/a	n/a	pyFR	0	TJ050
2147.737	2.754	5950184	WORD	n/a	wordpools/wordpool_EN.txt	ICE	7	15	n/a	n/a	pyFR	0	TJ050
2150.491	2.689	5955692	WORD	n/a	wordpools/wordpool_EN.txt	PIE	8	15	n/a	n/a	pyFR	0	TJ050
2153.18	2.52	5961070	WORD	n/a	wordpools/wordpool_EN.txt	DIME	9	15	n/a	n/a	pyFR	0	TJ050
2155.7	2.789	5966110	WORD	n/a	wordpools/wordpool_EN.txt	SINK	10	15	n/a	n/a	pyFR	0	TJ050
2158.489	2.754	5971688	WORD	n/a	wordpools/wordpool_EN.txt	PIT	11	15	n/a	n/a	pyFR	0	TJ050
2161.243	2.504	5977195	WORD	n/a	wordpools/wordpool_EN.txt	STEM	12	15	n/a	n/a	pyFR	0	TJ050
2163.747	2.755	5982203	WORD	n/a	wordpools/wordpool_EN.txt	CAVE	13	15	n/a	n/a	pyFR	0	TJ050
2166.502	2.771	5987713	WORD	n/a	wordpools/wordpool_EN.txt	LEG	14	15	n/a	n/a	pyFR	0	TJ050
2169.273	1.621	5993255	WORD	n/a	wordpools/wordpool_EN.txt	RICE	15	15	n/a	n/a	pyFR	0	TJ050
2170.894	0.884	5996497	START	n/a	n/a	n/a	n/a	15	[-999 -999 -999]	-999	pyFR	0	TJ050
2171.778	3.288	5998265	PROB	n/a	n/a	n/a	n/a	15	[1 7 3]	11	pyFR	0	TJ050
2175.066	2.721	6004840	PROB	n/a	n/a	n/a	n/a	15	[2 8 7]	17	pyFR	0	TJ050
2177.787	2.773	6010282	PROB	n/a	n/a	n/a	n/a	15	[2 9 2]	13	pyFR	0	TJ050
2180.56	3.421	6015828	PROB	n/a	n/a	n/a	n/a	15	[8 9 3]	20	pyFR	0	TJ050
2183.981	2.371	6022670	PROB	n/a	n/a	n/a	n/a	15	[1 2 8]	11	pyFR	0	TJ050
2186.352	2.655	6027411	PROB	n/a	n/a	n/a	n/a	15	[8 4 3]	17	pyFR	0	TJ050
2189.007	5.097	6032721	PROB	n/a	n/a	n/a	n/a	15	[6 6 9]	22	pyFR	0	TJ050
2194.104	1.23	6042915	STOP	n/a	n/a	n/a	n/a	15	[-999 -999 -999]	-999	pyFR	0	TJ050
2195.334	0.452	6045375	REC_START	n/a	n/a	n/a	-999	15	n/a	n/a	pyFR	0	TJ050
2195.786	0.729	6046279	REC_WORD_VV	0.729	n/a	<>	-999	15	n/a	n/a	pyFR	0	TJ050
2196.515	1.066	6047737	REC_WORD	1.066	n/a	NEST	-999	15	n/a	n/a	pyFR	0	TJ050
2197.581	2.273	6049869	REC_WORD	2.273	n/a	COUCH	-999	15	n/a	n/a	pyFR	0	TJ050
2199.854	0.643	6054414	REC_WORD	0.643	n/a	WEED	-999	15	n/a	n/a	pyFR	0	TJ050
2200.497	2.458	6055700	REC_WORD	2.458	n/a	LEG	-999	15	n/a	n/a	pyFR	0	TJ050
2202.955	6.762	6060616	REC_WORD_VV	6.762	n/a	<>	-999	15	n/a	n/a	pyFR	0	TJ050
2209.717	89.844	6074140	REC_WORD	89.844	n/a	TRASH	-999	15	n/a	n/a	pyFR	0	TJ050
2299.561	0.016	6253821	TRIAL	n/a	n/a	n/a	-999	16	n/a	n/a	pyFR	0	TJ050
2299.577	2.804	6253853	ORIENT	n/a	n/a	n/a	-999	16	n/a	n/a	pyFR	0	TJ050
2302.381	2.521	6259461	WORD	n/a	wordpools/wordpool_EN.txt	STREET	1	16	n/a	n/a	pyFR	0	TJ050
2304.902	2.771	6264503	WORD	n/a	wordpools/wordpool_EN.txt	LAKE	2	16	n/a	n/a	pyFR	0	TJ050
2307.673	2.471	6270044	WORD	n/a	wordpools/wordpool_EN.txt	MAT	3	16	n/a	n/a	pyFR	0	TJ050
2310.144	2.521	6274986	WORD	n/a	wordpools/wordpool_EN.txt	BOARD	4	16	n/a	n/a	pyFR	0	TJ050
2312.665	2.454	6280028	WORD	n/a	wordpools/wordpool_EN.txt	TAIL	5	16	n/a	n/a	pyFR	0	TJ050
2315.119	2.721	6284936	WORD	n/a	wordpools/wordpool_EN.txt	TENT	6	16	n/a	n/a	pyFR	0	TJ050
2317.84	2.638	6290378	WORD	n/a	wordpools/wordpool_EN.txt	MULE	7	16	n/a	n/a	pyFR	0	TJ050
2320.478	2.754	6295653	WORD	n/a	wordpools/wordpool_EN.txt	THREAD	8	16	n/a	n/a	pyFR	0	TJ050
2323.232	2.471	6301161	WORD	n/a	wordpools/wordpool_EN.txt	BAND	9	16	n/a	n/a	pyFR	0	TJ050
2325.703	2.722	6306103	WORD	n/a	wordpools/wordpool_EN.txt	BOY	10	16	n/a	n/a	pyFR	0	TJ050
2328.425	2.737	6311547	WORD	n/a	wordpools/wordpool_EN.txt	FACE	11	16	n/a	n/a	pyFR	0	TJ050
2331.162	2.571	6317021	WORD	n/a	wordpools/wordpool_EN.txt	FUDGE	12	16	n/a	n/a	pyFR	0	TJ050
2333.733	2.755	6322162	WORD	n/a	wordpools/wordpool_EN.txt	BEAR	13	16	n/a	n/a	pyFR	0	TJ050
2336.488	2.554	6327672	WORD	n/a	wordpools/wordpool_EN.txt	CHIEF	14	16	n/a	n/a	pyFR	0	TJ050
2339.042	1.621	6332780	WORD	n/a	wordpools/wordpool_EN.txt	PHONE	15	16	n/a	n/a	pyFR	0	TJ050
2340.663	0.967	6336022	START	n/a	n/a	n/a	n/a	16	[-999 -999 -999]	-999	pyFR	0	TJ050
2341.63	3.138	6337956	PROB	n/a	n/a	n/a	n/a	16	[2 4 1]	7	pyFR	0	TJ050
2344.768	3.039	6344232	PROB	n/a	n/a	n/a	n/a	16	[9 1 6]	16	pyFR	0	TJ050
2347.807	2.972	6350309	PROB	n/a	n/a	n/a	n/a	16	[8 8 7]	23	pyFR	0	TJ050
2350.779	2.554	6356253	PROB	n/a	n/a	n/a	n/a	16	[4 1 4]	9	pyFR	0	TJ050
2353.333	2.354	6361361	PROB	n/a	n/a	n/a	n/a	16	[1 2 6]	9	pyFR	0	TJ050
2355.687	3.723	6366069	PROB	n/a	n/a	n/a	n/a	16	[8 6 5]	19	pyFR	0	TJ050
2359.41	3.685	6373515	PROB	n/a	n/a	n/a	n/a	16	[4 6 5]	15	pyFR	0	TJ050
2363.095	1.09	6380884	STOP	n/a	n/a	n/a	n/a	16	[-999 -999 -999]	-999	pyFR	0	TJ050
2364.185	0.517	6383064	REC_START	n/a	n/a	n/a	-999	16	n/a	n/a	pyFR	0	TJ050
2364.702	0.9	6384098	REC_WORD_VV	0.9	n/a	<>	-999	16	n/a	n/a	pyFR	0	TJ050
2365.602	1.075	6385898	REC_WORD	1.075	n/a	CHIEF	-999	16	n/a	n/a	pyFR	0	TJ050
2366.677	2.028	6388048	REC_WORD	2.028	n/a	BEAR	-999	16	n/a	n/a	pyFR	0	TJ050
2368.705	1.188	6392104	REC_WORD	1.188	n/a	STEM	-999	16	n/a	n/a	pyFR	0	TJ050
2369.893	0.844	6394480	REC_WORD	0.844	n/a	BOY	-999	16	n/a	n/a	pyFR	0	TJ050
2370.737	1.404	6396168	REC_WORD	1.404	n/a	FACE	-999	16	n/a	n/a	pyFR	0	TJ050
2372.141	2.629	6398976	REC_WORD	2.629	n/a	FUDGE	-999	16	n/a	n/a	pyFR	0	TJ050
2374.77	2.415	6404233	REC_WORD_VV	2.415	n/a	<>	-999	16	n/a	n/a	pyFR	0	TJ050
2377.185	2.043	6409063	REC_WORD_VV	2.043	n/a	<>	-999	16	n/a	n/a	pyFR	0	TJ050
2379.228	634.317	6413149	REC_WORD_VV	634.317	n/a	<>	-999	16	n/a	n/a	pyFR	0	TJ050
3013.545	0.086	7681736	SESS_END	n/a	n/a	n/a	-999	16	n/a	n/a	pyFR	0	TJ050
3013.631	0.0	7681908	E	n/a	n/a	n/a	-999	16	n/a	n/a	pyFR	0	TJ050
