onset	duration	sample	trial_type	response_time	stim_file	item_name	serialpos	list	test	answer	experiment	session	subject
0.0	0.0	5205001	B	n/a	n/a	n/a	-999	-999	n/a	n/a	pyFR	0	TJ020
0.0	313.072	5205001	SESS_START	n/a	n/a	n/a	-999	-999	n/a	n/a	pyFR	0	TJ020
313.072	0.041	5518063	START	n/a	n/a	n/a	n/a	0	[-999 -999 -999]	-999	pyFR	0	TJ020
313.113	27.75	5518104	PROB	n/a	n/a	n/a	n/a	0	[8 6 5]	19	pyFR	0	TJ020
340.863	18.3	5545853	PROB	n/a	n/a	n/a	n/a	0	[4 7 8]	19	pyFR	0	TJ020
359.163	122.828	5564152	STOP	n/a	n/a	n/a	n/a	0	[-999 -999 -999]	-999	pyFR	0	TJ020
481.991	0.016	5686976	TRIAL	n/a	n/a	n/a	-999	-999	n/a	n/a	pyFR	0	TJ020
482.007	2.871	5686992	ORIENT	n/a	n/a	n/a	-999	-999	n/a	n/a	pyFR	0	TJ020
484.878	2.755	5689863	WORD	n/a	wordpools/wordpool_EN.txt	MOLE	1	1	n/a	n/a	pyFR	0	TJ020
487.633	2.756	5692618	WORD	n/a	wordpools/wordpool_EN.txt	BOAT	2	1	n/a	n/a	pyFR	0	TJ020
490.389	2.772	5695374	WORD	n/a	wordpools/wordpool_EN.txt	PLANE	3	1	n/a	n/a	pyFR	0	TJ020
493.161	2.687	5698146	WORD	n/a	wordpools/wordpool_EN.txt	SHELL	4	1	n/a	n/a	pyFR	0	TJ020
495.848	2.472	5700832	WORD	n/a	wordpools/wordpool_EN.txt	BOARD	5	1	n/a	n/a	pyFR	0	TJ020
498.32	2.755	5703304	WORD	n/a	wordpools/wordpool_EN.txt	ROOF	6	1	n/a	n/a	pyFR	0	TJ020
501.075	2.704	5706059	WORD	n/a	wordpools/wordpool_EN.txt	CLOWN	7	1	n/a	n/a	pyFR	0	TJ020
503.779	2.439	5708763	WORD	n/a	wordpools/wordpool_EN.txt	JUICE	8	1	n/a	n/a	pyFR	0	TJ020
506.218	2.704	5711202	WORD	n/a	wordpools/wordpool_EN.txt	CONE	9	1	n/a	n/a	pyFR	0	TJ020
508.922	2.472	5713906	WORD	n/a	wordpools/wordpool_EN.txt	SHIELD	10	1	n/a	n/a	pyFR	0	TJ020
511.394	2.42	5716378	WORD	n/a	wordpools/wordpool_EN.txt	HOUSE	11	1	n/a	n/a	pyFR	0	TJ020
513.814	2.539	5718798	WORD	n/a	wordpools/wordpool_EN.txt	MAIL	12	1	n/a	n/a	pyFR	0	TJ020
516.353	2.57	5721337	WORD	n/a	wordpools/wordpool_EN.txt	HAWK	13	1	n/a	n/a	pyFR	0	TJ020
518.923	2.739	5723907	WORD	n/a	wordpools/wordpool_EN.txt	TOOL	14	1	n/a	n/a	pyFR	0	TJ020
521.662	1.605	5726646	WORD	n/a	wordpools/wordpool_EN.txt	BOWL	15	1	n/a	n/a	pyFR	0	TJ020
523.267	1.034	5728251	START	n/a	n/a	n/a	n/a	1	[-999 -999 -999]	-999	pyFR	0	TJ020
524.301	18.968	5729284	PROB	n/a	n/a	n/a	n/a	1	[4 4 7]	15	pyFR	0	TJ020
543.269	13.389	5748252	PROB	n/a	n/a	n/a	n/a	1	[5 7 9]	21	pyFR	0	TJ020
556.658	1.214	5761640	STOP	n/a	n/a	n/a	n/a	1	[-999 -999 -999]	-999	pyFR	0	TJ020
557.872	1.374	5762854	REC_START	n/a	n/a	n/a	-999	-999	n/a	n/a	pyFR	0	TJ020
559.246	1.0	5764228	REC_WORD_VV	1.0	n/a	VV	-999	1	n/a	n/a	pyFR	0	TJ020
560.246	1.528	5765228	REC_WORD_VV	1.528	n/a	VV	-999	1	n/a	n/a	pyFR	0	TJ020
561.774	0.883	5766756	REC_WORD_VV	0.883	n/a	VV	-999	1	n/a	n/a	pyFR	0	TJ020
562.657	1.0	5767639	REC_WORD_VV	1.0	n/a	VV	-999	1	n/a	n/a	pyFR	0	TJ020
563.657	1.0	5768639	REC_WORD_VV	1.0	n/a	VV	-999	1	n/a	n/a	pyFR	0	TJ020
564.657	1.0	5769639	REC_WORD_VV	1.0	n/a	VV	-999	1	n/a	n/a	pyFR	0	TJ020
565.657	0.189	5770639	REC_WORD_VV	0.189	n/a	VV	-999	1	n/a	n/a	pyFR	0	TJ020
565.846	1.214	5770828	REC_WORD	1.214	n/a	MAIL	-999	1	n/a	n/a	pyFR	0	TJ020
567.06	1.961	5772042	REC_WORD	1.961	n/a	BOAT	-999	1	n/a	n/a	pyFR	0	TJ020
569.021	0.911	5774003	REC_WORD	0.911	n/a	SHIELD	-999	1	n/a	n/a	pyFR	0	TJ020
569.932	2.397	5774914	REC_WORD	2.397	n/a	CLOWN	-999	1	n/a	n/a	pyFR	0	TJ020
572.329	0.914	5777311	REC_WORD_VV	0.914	n/a	VV	-999	1	n/a	n/a	pyFR	0	TJ020
573.243	3.092	5778225	REC_WORD	3.092	n/a	BOARD	-999	1	n/a	n/a	pyFR	0	TJ020
576.335	3.312	5781317	REC_WORD_VV	3.312	n/a	VV	-999	1	n/a	n/a	pyFR	0	TJ020
579.647	1.268	5784629	REC_WORD	1.268	n/a	HOUSE	-999	1	n/a	n/a	pyFR	0	TJ020
580.915	1.342	5785897	REC_WORD	1.342	n/a	HOUSE	-999	1	n/a	n/a	pyFR	0	TJ020
582.257	14.018	5787239	REC_WORD_VV	14.018	n/a	VV	-999	1	n/a	n/a	pyFR	0	TJ020
596.275	1.0	5801256	REC_WORD_VV	1.0	n/a	VV	-999	1	n/a	n/a	pyFR	0	TJ020
597.275	2.368	5802256	REC_WORD_VV	2.368	n/a	VV	-999	1	n/a	n/a	pyFR	0	TJ020
599.643	1.206	5804624	REC_WORD_VV	1.206	n/a	VV	-999	1	n/a	n/a	pyFR	0	TJ020
600.849	1.128	5805830	REC_WORD_VV	1.128	n/a	VV	-999	1	n/a	n/a	pyFR	0	TJ020
601.977	18.684	5806958	REC_WORD_VV	18.684	n/a	VV	-999	1	n/a	n/a	pyFR	0	TJ020
620.661	0.016	5825641	TRIAL	n/a	n/a	n/a	-999	-999	n/a	n/a	pyFR	0	TJ020
620.677	2.689	5825657	ORIENT	n/a	n/a	n/a	-999	-999	n/a	n/a	pyFR	0	TJ020
623.366	2.521	5828346	WORD	n/a	wordpools/wordpool_EN.txt	SMILE	1	2	n/a	n/a	pyFR	0	TJ020
625.887	2.755	5830867	WORD	n/a	wordpools/wordpool_EN.txt	SHOE	2	2	n/a	n/a	pyFR	0	TJ020
628.642	2.589	5833622	WORD	n/a	wordpools/wordpool_EN.txt	HEART	3	2	n/a	n/a	pyFR	0	TJ020
631.231	2.722	5836211	WORD	n/a	wordpools/wordpool_EN.txt	WHALE	4	2	n/a	n/a	pyFR	0	TJ020
633.953	2.687	5838933	WORD	n/a	wordpools/wordpool_EN.txt	DOOR	5	2	n/a	n/a	pyFR	0	TJ020
636.64	2.622	5841620	WORD	n/a	wordpools/wordpool_EN.txt	DART	6	2	n/a	n/a	pyFR	0	TJ020
639.262	2.722	5844242	WORD	n/a	wordpools/wordpool_EN.txt	WALL	7	2	n/a	n/a	pyFR	0	TJ020
641.984	2.721	5846964	WORD	n/a	wordpools/wordpool_EN.txt	STOVE	8	2	n/a	n/a	pyFR	0	TJ020
644.705	2.805	5849684	WORD	n/a	wordpools/wordpool_EN.txt	SKUNK	9	2	n/a	n/a	pyFR	0	TJ020
647.51	2.739	5852489	WORD	n/a	wordpools/wordpool_EN.txt	RICE	10	2	n/a	n/a	pyFR	0	TJ020
650.249	2.454	5855228	WORD	n/a	wordpools/wordpool_EN.txt	STORE	11	2	n/a	n/a	pyFR	0	TJ020
652.703	2.721	5857682	WORD	n/a	wordpools/wordpool_EN.txt	BOMB	12	2	n/a	n/a	pyFR	0	TJ020
655.424	2.79	5860403	WORD	n/a	wordpools/wordpool_EN.txt	ROOM	13	2	n/a	n/a	pyFR	0	TJ020
658.214	2.771	5863193	WORD	n/a	wordpools/wordpool_EN.txt	RUG	14	2	n/a	n/a	pyFR	0	TJ020
660.985	1.621	5865964	WORD	n/a	wordpools/wordpool_EN.txt	BAT	15	2	n/a	n/a	pyFR	0	TJ020
662.606	1.184	5867585	START	n/a	n/a	n/a	n/a	2	[-999 -999 -999]	-999	pyFR	0	TJ020
663.79	11.704	5868769	PROB	n/a	n/a	n/a	n/a	2	[9 5 2]	16	pyFR	0	TJ020
675.494	12.396	5880472	PROB	n/a	n/a	n/a	n/a	2	[8 7 9]	24	pyFR	0	TJ020
687.89	1.148	5892868	STOP	n/a	n/a	n/a	n/a	2	[-999 -999 -999]	-999	pyFR	0	TJ020
689.038	2.2	5894016	REC_START	n/a	n/a	n/a	-999	-999	n/a	n/a	pyFR	0	TJ020
691.238	2.11	5896216	REC_WORD	2.11	n/a	BOAT	-999	2	n/a	n/a	pyFR	0	TJ020
693.348	3.683	5898326	REC_WORD	3.683	n/a	HEART	-999	2	n/a	n/a	pyFR	0	TJ020
697.031	2.868	5902009	REC_WORD	2.868	n/a	SHOE	-999	2	n/a	n/a	pyFR	0	TJ020
699.899	5.538	5904877	REC_WORD_VV	5.538	n/a	VV	-999	2	n/a	n/a	pyFR	0	TJ020
705.437	3.792	5910414	REC_WORD	3.792	n/a	MALL	-999	2	n/a	n/a	pyFR	0	TJ020
709.229	5.968	5914206	REC_WORD_VV	5.968	n/a	VV	-999	2	n/a	n/a	pyFR	0	TJ020
715.197	1.085	5920174	REC_WORD	1.085	n/a	RICE	-999	2	n/a	n/a	pyFR	0	TJ020
716.282	1.534	5921259	REC_WORD_VV	1.534	n/a	VV	-999	2	n/a	n/a	pyFR	0	TJ020
717.816	1.755	5922793	REC_WORD	1.755	n/a	RICE	-999	2	n/a	n/a	pyFR	0	TJ020
719.571	9.68	5924548	REC_WORD_VV	9.68	n/a	VV	-999	2	n/a	n/a	pyFR	0	TJ020
729.251	1.0	5934228	REC_WORD_VV	1.0	n/a	VV	-999	2	n/a	n/a	pyFR	0	TJ020
730.251	1.0	5935228	REC_WORD_VV	1.0	n/a	VV	-999	2	n/a	n/a	pyFR	0	TJ020
731.251	1.0	5936228	REC_WORD_VV	1.0	n/a	VV	-999	2	n/a	n/a	pyFR	0	TJ020
732.251	1.0	5937227	REC_WORD_VV	1.0	n/a	VV	-999	2	n/a	n/a	pyFR	0	TJ020
733.251	204.226	5938227	REC_WORD_VV	204.226	n/a	VV	-999	2	n/a	n/a	pyFR	0	TJ020
937.477	0.015	6142447	TRIAL	n/a	n/a	n/a	-999	-999	n/a	n/a	pyFR	0	TJ020
937.492	2.707	6142462	ORIENT	n/a	n/a	n/a	-999	-999	n/a	n/a	pyFR	0	TJ020
940.199	2.603	6145168	WORD	n/a	wordpools/wordpool_EN.txt	SPOON	1	3	n/a	n/a	pyFR	0	TJ020
942.802	2.439	6147771	WORD	n/a	wordpools/wordpool_EN.txt	HORN	2	3	n/a	n/a	pyFR	0	TJ020
945.241	2.47	6150210	WORD	n/a	wordpools/wordpool_EN.txt	WING	3	3	n/a	n/a	pyFR	0	TJ020
947.711	2.473	6152680	WORD	n/a	wordpools/wordpool_EN.txt	WEED	4	3	n/a	n/a	pyFR	0	TJ020
950.184	2.687	6155153	WORD	n/a	wordpools/wordpool_EN.txt	SHIP	5	3	n/a	n/a	pyFR	0	TJ020
952.871	2.788	6157840	WORD	n/a	wordpools/wordpool_EN.txt	WHEEL	6	3	n/a	n/a	pyFR	0	TJ020
955.659	2.723	6160628	WORD	n/a	wordpools/wordpool_EN.txt	PIG	7	3	n/a	n/a	pyFR	0	TJ020
958.382	2.822	6163351	WORD	n/a	wordpools/wordpool_EN.txt	BLUSH	8	3	n/a	n/a	pyFR	0	TJ020
961.204	2.637	6166173	WORD	n/a	wordpools/wordpool_EN.txt	DRUM	9	3	n/a	n/a	pyFR	0	TJ020
963.841	2.506	6168810	WORD	n/a	wordpools/wordpool_EN.txt	EGG	10	3	n/a	n/a	pyFR	0	TJ020
966.347	2.47	6171316	WORD	n/a	wordpools/wordpool_EN.txt	BIRD	11	3	n/a	n/a	pyFR	0	TJ020
968.817	2.621	6173785	WORD	n/a	wordpools/wordpool_EN.txt	ARM	12	3	n/a	n/a	pyFR	0	TJ020
971.438	2.573	6176406	WORD	n/a	wordpools/wordpool_EN.txt	TENT	13	3	n/a	n/a	pyFR	0	TJ020
974.011	2.77	6178979	WORD	n/a	wordpools/wordpool_EN.txt	HOSE	14	3	n/a	n/a	pyFR	0	TJ020
976.781	1.606	6181749	WORD	n/a	wordpools/wordpool_EN.txt	PLATE	15	3	n/a	n/a	pyFR	0	TJ020
978.387	1.166	6183355	START	n/a	n/a	n/a	n/a	3	[-999 -999 -999]	-999	pyFR	0	TJ020
979.553	8.851	6184521	PROB	n/a	n/a	n/a	n/a	3	[4 7 8]	19	pyFR	0	TJ020
988.404	7.647	6193372	PROB	n/a	n/a	n/a	n/a	3	[8 3 4]	15	pyFR	0	TJ020
996.051	8.535	6201019	PROB	n/a	n/a	n/a	n/a	3	[4 8 5]	17	pyFR	0	TJ020
1004.586	1.216	6209553	STOP	n/a	n/a	n/a	n/a	3	[-999 -999 -999]	-999	pyFR	0	TJ020
1005.802	1.894	6210769	REC_START	n/a	n/a	n/a	-999	-999	n/a	n/a	pyFR	0	TJ020
1007.696	0.503	6212663	REC_WORD_VV	0.503	n/a	VV	-999	3	n/a	n/a	pyFR	0	TJ020
1008.199	1.338	6213166	REC_WORD	1.338	n/a	HOSE	-999	3	n/a	n/a	pyFR	0	TJ020
1009.537	1.918	6214504	REC_WORD	1.918	n/a	HORN	-999	3	n/a	n/a	pyFR	0	TJ020
1011.455	2.126	6216422	REC_WORD	2.126	n/a	PIG	-999	3	n/a	n/a	pyFR	0	TJ020
1013.581	1.725	6218548	REC_WORD_VV	1.725	n/a	VV	-999	3	n/a	n/a	pyFR	0	TJ020
1015.306	3.03	6220273	REC_WORD	3.03	n/a	SPOON	-999	3	n/a	n/a	pyFR	0	TJ020
1018.336	2.235	6223303	REC_WORD_VV	2.235	n/a	VV	-999	3	n/a	n/a	pyFR	0	TJ020
1020.571	3.077	6225538	REC_WORD	3.077	n/a	EGG	-999	3	n/a	n/a	pyFR	0	TJ020
1023.648	2.144	6228615	REC_WORD_VV	2.144	n/a	VV	-999	3	n/a	n/a	pyFR	0	TJ020
1025.792	5.019	6230759	REC_WORD	5.019	n/a	DRUM	-999	3	n/a	n/a	pyFR	0	TJ020
1030.811	2.298	6235777	REC_WORD_VV	2.298	n/a	VV	-999	3	n/a	n/a	pyFR	0	TJ020
1033.109	3.855	6238075	REC_WORD	3.855	n/a	SHIP	-999	3	n/a	n/a	pyFR	0	TJ020
1036.964	0.704	6241930	REC_WORD_VV	0.704	n/a	VV	-999	3	n/a	n/a	pyFR	0	TJ020
1037.668	1.376	6242634	REC_WORD	1.376	n/a	PIG	-999	3	n/a	n/a	pyFR	0	TJ020
1039.044	1.068	6244010	REC_WORD	1.068	n/a	SPOON	-999	3	n/a	n/a	pyFR	0	TJ020
1040.112	1.747	6245078	REC_WORD	1.747	n/a	SHIP	-999	3	n/a	n/a	pyFR	0	TJ020
1041.859	2.205	6246825	REC_WORD_VV	2.205	n/a	VV	-999	3	n/a	n/a	pyFR	0	TJ020
1044.064	1.296	6249030	REC_WORD	1.296	n/a	WORM	-999	3	n/a	n/a	pyFR	0	TJ020
1045.36	1.587	6250326	REC_WORD_VV	1.587	n/a	VV	-999	3	n/a	n/a	pyFR	0	TJ020
1046.947	0.767	6251913	REC_WORD_VV	0.767	n/a	VV	-999	3	n/a	n/a	pyFR	0	TJ020
1047.714	10.486	6252680	REC_WORD	10.486	n/a	DRUM	-999	3	n/a	n/a	pyFR	0	TJ020
1058.2	0.015	6263165	TRIAL	n/a	n/a	n/a	-999	-999	n/a	n/a	pyFR	0	TJ020
1058.215	2.906	6263180	ORIENT	n/a	n/a	n/a	-999	-999	n/a	n/a	pyFR	0	TJ020
1061.121	2.603	6266086	WORD	n/a	wordpools/wordpool_EN.txt	FLUTE	1	4	n/a	n/a	pyFR	0	TJ020
1063.724	2.64	6268689	WORD	n/a	wordpools/wordpool_EN.txt	FACE	2	4	n/a	n/a	pyFR	0	TJ020
1066.364	2.671	6271329	WORD	n/a	wordpools/wordpool_EN.txt	SKY	3	4	n/a	n/a	pyFR	0	TJ020
1069.035	2.587	6274000	WORD	n/a	wordpools/wordpool_EN.txt	SEA	4	4	n/a	n/a	pyFR	0	TJ020
1071.622	2.756	6276587	WORD	n/a	wordpools/wordpool_EN.txt	GEESE	5	4	n/a	n/a	pyFR	0	TJ020
1074.378	2.537	6279343	WORD	n/a	wordpools/wordpool_EN.txt	SUN	6	4	n/a	n/a	pyFR	0	TJ020
1076.915	2.439	6281880	WORD	n/a	wordpools/wordpool_EN.txt	EAR	7	4	n/a	n/a	pyFR	0	TJ020
1079.354	2.487	6284319	WORD	n/a	wordpools/wordpool_EN.txt	LEAF	8	4	n/a	n/a	pyFR	0	TJ020
1081.841	2.489	6286806	WORD	n/a	wordpools/wordpool_EN.txt	BRICK	9	4	n/a	n/a	pyFR	0	TJ020
1084.33	2.655	6289295	WORD	n/a	wordpools/wordpool_EN.txt	STEAK	10	4	n/a	n/a	pyFR	0	TJ020
1086.985	2.721	6291950	WORD	n/a	wordpools/wordpool_EN.txt	WORLD	11	4	n/a	n/a	pyFR	0	TJ020
1089.706	2.755	6294670	WORD	n/a	wordpools/wordpool_EN.txt	BRANCH	12	4	n/a	n/a	pyFR	0	TJ020
1092.461	2.622	6297425	WORD	n/a	wordpools/wordpool_EN.txt	SNAIL	13	4	n/a	n/a	pyFR	0	TJ020
1095.083	2.554	6300047	WORD	n/a	wordpools/wordpool_EN.txt	CHAIR	14	4	n/a	n/a	pyFR	0	TJ020
1097.637	1.605	6302601	WORD	n/a	wordpools/wordpool_EN.txt	PIT	15	4	n/a	n/a	pyFR	0	TJ020
1099.242	1.017	6304206	START	n/a	n/a	n/a	n/a	4	[-999 -999 -999]	-999	pyFR	0	TJ020
1100.259	7.647	6305223	PROB	n/a	n/a	n/a	n/a	4	[8 4 4]	16	pyFR	0	TJ020
1107.906	9.151	6312870	PROB	n/a	n/a	n/a	n/a	4	[2 4 7]	13	pyFR	0	TJ020
1117.057	6.338	6322020	PROB	n/a	n/a	n/a	n/a	4	[5 2 2]	9	pyFR	0	TJ020
1123.395	1.125	6328358	STOP	n/a	n/a	n/a	n/a	4	[-999 -999 -999]	-999	pyFR	0	TJ020
1124.52	2.169	6329483	REC_START	n/a	n/a	n/a	-999	-999	n/a	n/a	pyFR	0	TJ020
1126.689	0.981	6331652	REC_WORD	0.981	n/a	FACE	-999	4	n/a	n/a	pyFR	0	TJ020
1127.67	2.804	6332633	REC_WORD	2.804	n/a	EAR	-999	4	n/a	n/a	pyFR	0	TJ020
1130.474	2.3	6335437	REC_WORD	2.3	n/a	WORLD	-999	4	n/a	n/a	pyFR	0	TJ020
1132.774	2.526	6337737	REC_WORD_VV	2.526	n/a	VV	-999	4	n/a	n/a	pyFR	0	TJ020
1135.3	0.982	6340263	REC_WORD_VV	0.982	n/a	VV	-999	4	n/a	n/a	pyFR	0	TJ020
1136.282	2.417	6341245	REC_WORD	2.417	n/a	SEA	-999	4	n/a	n/a	pyFR	0	TJ020
1138.699	2.691	6343662	REC_WORD_VV	2.691	n/a	VV	-999	4	n/a	n/a	pyFR	0	TJ020
1141.39	4.016	6346353	REC_WORD	4.016	n/a	SKY	-999	4	n/a	n/a	pyFR	0	TJ020
1145.406	1.361	6350369	REC_WORD_VV	1.361	n/a	VV	-999	4	n/a	n/a	pyFR	0	TJ020
1146.767	0.524	6351729	REC_WORD_VV	0.524	n/a	VV	-999	4	n/a	n/a	pyFR	0	TJ020
1147.291	1.901	6352253	REC_WORD	1.901	n/a	SKY	-999	4	n/a	n/a	pyFR	0	TJ020
1149.192	3.721	6354154	REC_WORD	3.721	n/a	BRIDGE	-999	4	n/a	n/a	pyFR	0	TJ020
1152.913	1.0	6357875	REC_WORD_VV	1.0	n/a	VV	-999	4	n/a	n/a	pyFR	0	TJ020
1153.913	1.0	6358875	REC_WORD_VV	1.0	n/a	VV	-999	4	n/a	n/a	pyFR	0	TJ020
1154.913	3.905	6359875	REC_WORD_VV	3.905	n/a	VV	-999	4	n/a	n/a	pyFR	0	TJ020
1158.818	1.0	6363780	REC_WORD_VV	1.0	n/a	VV	-999	4	n/a	n/a	pyFR	0	TJ020
1159.818	1.0	6364780	REC_WORD_VV	1.0	n/a	VV	-999	4	n/a	n/a	pyFR	0	TJ020
1160.818	2.152	6365780	REC_WORD_VV	2.152	n/a	VV	-999	4	n/a	n/a	pyFR	0	TJ020
1162.97	9.806	6367932	REC_WORD_VV	9.806	n/a	VV	-999	4	n/a	n/a	pyFR	0	TJ020
1172.776	0.016	6377738	TRIAL	n/a	n/a	n/a	-999	-999	n/a	n/a	pyFR	0	TJ020
1172.792	2.922	6377754	ORIENT	n/a	n/a	n/a	-999	-999	n/a	n/a	pyFR	0	TJ020
1175.714	2.689	6380676	WORD	n/a	wordpools/wordpool_EN.txt	CAR	1	5	n/a	n/a	pyFR	0	TJ020
1178.403	2.537	6383364	WORD	n/a	wordpools/wordpool_EN.txt	FLAME	2	5	n/a	n/a	pyFR	0	TJ020
1180.94	2.555	6385901	WORD	n/a	wordpools/wordpool_EN.txt	FENCE	3	5	n/a	n/a	pyFR	0	TJ020
1183.495	2.789	6388456	WORD	n/a	wordpools/wordpool_EN.txt	BRIDGE	4	5	n/a	n/a	pyFR	0	TJ020
1186.284	2.47	6391245	WORD	n/a	wordpools/wordpool_EN.txt	KITE	5	5	n/a	n/a	pyFR	0	TJ020
1188.754	2.573	6393715	WORD	n/a	wordpools/wordpool_EN.txt	LEG	6	5	n/a	n/a	pyFR	0	TJ020
1191.327	2.553	6396288	WORD	n/a	wordpools/wordpool_EN.txt	STREET	7	5	n/a	n/a	pyFR	0	TJ020
1193.88	2.538	6398841	WORD	n/a	wordpools/wordpool_EN.txt	TOOTH	8	5	n/a	n/a	pyFR	0	TJ020
1196.418	2.74	6401379	WORD	n/a	wordpools/wordpool_EN.txt	DOLL	9	5	n/a	n/a	pyFR	0	TJ020
1199.158	2.67	6404119	WORD	n/a	wordpools/wordpool_EN.txt	ROOT	10	5	n/a	n/a	pyFR	0	TJ020
1201.828	2.439	6406789	WORD	n/a	wordpools/wordpool_EN.txt	ROPE	11	5	n/a	n/a	pyFR	0	TJ020
1204.267	2.62	6409228	WORD	n/a	wordpools/wordpool_EN.txt	CLAY	12	5	n/a	n/a	pyFR	0	TJ020
1206.887	2.473	6411847	WORD	n/a	wordpools/wordpool_EN.txt	SHEET	13	5	n/a	n/a	pyFR	0	TJ020
1209.36	2.771	6414320	WORD	n/a	wordpools/wordpool_EN.txt	PASTE	14	5	n/a	n/a	pyFR	0	TJ020
1212.131	1.621	6417091	WORD	n/a	wordpools/wordpool_EN.txt	PEN	15	5	n/a	n/a	pyFR	0	TJ020
1213.752	0.833	6418712	START	n/a	n/a	n/a	n/a	5	[-999 -999 -999]	-999	pyFR	0	TJ020
1214.585	6.429	6419545	PROB	n/a	n/a	n/a	n/a	5	[1 1 4]	6	pyFR	0	TJ020
1221.014	9.234	6425974	PROB	n/a	n/a	n/a	n/a	5	[8 4 1]	13	pyFR	0	TJ020
1230.248	5.57	6435208	PROB	n/a	n/a	n/a	n/a	5	[9 7 1]	17	pyFR	0	TJ020
1235.818	1.143	6440777	STOP	n/a	n/a	n/a	n/a	5	[-999 -999 -999]	-999	pyFR	0	TJ020
1236.961	2.886	6441920	REC_START	n/a	n/a	n/a	-999	-999	n/a	n/a	pyFR	0	TJ020
1239.847	0.481	6444806	REC_WORD_VV	0.481	n/a	VV	-999	5	n/a	n/a	pyFR	0	TJ020
1240.328	1.366	6445287	REC_WORD	1.366	n/a	BRIDGE	-999	5	n/a	n/a	pyFR	0	TJ020
1241.694	1.252	6446653	REC_WORD_VV	1.252	n/a	VV	-999	5	n/a	n/a	pyFR	0	TJ020
1242.946	2.036	6447905	REC_WORD	2.036	n/a	FLUTE	-999	5	n/a	n/a	pyFR	0	TJ020
1244.982	4.196	6449941	REC_WORD_VV	4.196	n/a	VV	-999	5	n/a	n/a	pyFR	0	TJ020
1249.178	2.038	6454137	REC_WORD	2.038	n/a	PEN	-999	5	n/a	n/a	pyFR	0	TJ020
1251.216	1.623	6456175	REC_WORD	1.623	n/a	PEN	-999	5	n/a	n/a	pyFR	0	TJ020
1252.839	6.513	6457798	REC_WORD_VV	6.513	n/a	VV	-999	5	n/a	n/a	pyFR	0	TJ020
1259.352	1.317	6464311	REC_WORD_VV	1.317	n/a	VV	-999	5	n/a	n/a	pyFR	0	TJ020
1260.669	2.584	6465628	REC_WORD_VV	2.584	n/a	VV	-999	5	n/a	n/a	pyFR	0	TJ020
1263.253	1.206	6468212	REC_WORD	1.206	n/a	FENCE	-999	5	n/a	n/a	pyFR	0	TJ020
1264.459	0.932	6469418	REC_WORD_VV	0.932	n/a	VV	-999	5	n/a	n/a	pyFR	0	TJ020
1265.391	2.478	6470349	REC_WORD	2.478	n/a	FENCE	-999	5	n/a	n/a	pyFR	0	TJ020
1267.869	12.787	6472827	REC_WORD_VV	12.787	n/a	VV	-999	5	n/a	n/a	pyFR	0	TJ020
1280.656	14.929	6485614	REC_WORD	14.929	n/a	CAR	-999	5	n/a	n/a	pyFR	0	TJ020
1295.585	0.016	6500542	TRIAL	n/a	n/a	n/a	-999	-999	n/a	n/a	pyFR	0	TJ020
1295.601	2.739	6500558	ORIENT	n/a	n/a	n/a	-999	-999	n/a	n/a	pyFR	0	TJ020
1298.34	2.772	6503297	WORD	n/a	wordpools/wordpool_EN.txt	TRUCK	1	6	n/a	n/a	pyFR	0	TJ020
1301.112	2.453	6506069	WORD	n/a	wordpools/wordpool_EN.txt	ELF	2	6	n/a	n/a	pyFR	0	TJ020
1303.565	2.589	6508522	WORD	n/a	wordpools/wordpool_EN.txt	NET	3	6	n/a	n/a	pyFR	0	TJ020
1306.154	2.587	6511111	WORD	n/a	wordpools/wordpool_EN.txt	PURSE	4	6	n/a	n/a	pyFR	0	TJ020
1308.741	2.705	6513698	WORD	n/a	wordpools/wordpool_EN.txt	HAND	5	6	n/a	n/a	pyFR	0	TJ020
1311.446	2.773	6516403	WORD	n/a	wordpools/wordpool_EN.txt	BEACH	6	6	n/a	n/a	pyFR	0	TJ020
1314.219	2.687	6519176	WORD	n/a	wordpools/wordpool_EN.txt	STAIR	7	6	n/a	n/a	pyFR	0	TJ020
1316.906	2.439	6521863	WORD	n/a	wordpools/wordpool_EN.txt	SEAL	8	6	n/a	n/a	pyFR	0	TJ020
1319.345	2.755	6524302	WORD	n/a	wordpools/wordpool_EN.txt	POLE	9	6	n/a	n/a	pyFR	0	TJ020
1322.1	2.504	6527057	WORD	n/a	wordpools/wordpool_EN.txt	STEAM	10	6	n/a	n/a	pyFR	0	TJ020
1324.604	2.722	6529560	WORD	n/a	wordpools/wordpool_EN.txt	DEER	11	6	n/a	n/a	pyFR	0	TJ020
1327.326	2.504	6532282	WORD	n/a	wordpools/wordpool_EN.txt	ANT	12	6	n/a	n/a	pyFR	0	TJ020
1329.83	2.588	6534786	WORD	n/a	wordpools/wordpool_EN.txt	NEST	13	6	n/a	n/a	pyFR	0	TJ020
1332.418	2.589	6537374	WORD	n/a	wordpools/wordpool_EN.txt	SHRIMP	14	6	n/a	n/a	pyFR	0	TJ020
1335.007	1.621	6539963	WORD	n/a	wordpools/wordpool_EN.txt	SOAP	15	6	n/a	n/a	pyFR	0	TJ020
1336.628	0.816	6541584	START	n/a	n/a	n/a	n/a	6	[-999 -999 -999]	-999	pyFR	0	TJ020
1337.444	3.858	6542400	PROB	n/a	n/a	n/a	n/a	6	[1 1 7]	9	pyFR	0	TJ020
1341.302	10.435	6546258	PROB	n/a	n/a	n/a	n/a	6	[3 9 6]	18	pyFR	0	TJ020
1351.737	5.61	6556693	PROB	n/a	n/a	n/a	n/a	6	[1 3 4]	8	pyFR	0	TJ020
1357.347	1.253	6562302	STOP	n/a	n/a	n/a	n/a	6	[-999 -999 -999]	-999	pyFR	0	TJ020
1358.6	1.712	6563555	REC_START	n/a	n/a	n/a	-999	-999	n/a	n/a	pyFR	0	TJ020
1360.312	2.226	6565267	REC_WORD	2.226	n/a	ELF	-999	6	n/a	n/a	pyFR	0	TJ020
1362.538	1.599	6567493	REC_WORD_VV	1.599	n/a	VV	-999	6	n/a	n/a	pyFR	0	TJ020
1364.137	0.483	6569092	REC_WORD	0.483	n/a	ELF	-999	6	n/a	n/a	pyFR	0	TJ020
1364.62	5.318	6569575	REC_WORD	5.318	n/a	PURSE	-999	6	n/a	n/a	pyFR	0	TJ020
1369.938	1.298	6574893	REC_WORD_VV	1.298	n/a	VV	-999	6	n/a	n/a	pyFR	0	TJ020
1371.236	0.254	6576191	REC_WORD_VV	0.254	n/a	VV	-999	6	n/a	n/a	pyFR	0	TJ020
1371.49	0.487	6576445	REC_WORD	0.487	n/a	ELF	-999	6	n/a	n/a	pyFR	0	TJ020
1371.977	1.374	6576932	REC_WORD	1.374	n/a	PURSE	-999	6	n/a	n/a	pyFR	0	TJ020
1373.351	0.865	6578306	REC_WORD_VV	0.865	n/a	VV	-999	6	n/a	n/a	pyFR	0	TJ020
1374.216	3.378	6579171	REC_WORD	3.378	n/a	BRIDGE	-999	6	n/a	n/a	pyFR	0	TJ020
1377.594	1.181	6582549	REC_WORD_VV	1.181	n/a	VV	-999	6	n/a	n/a	pyFR	0	TJ020
1378.775	1.028	6583730	REC_WORD	1.028	n/a	CAR	-999	6	n/a	n/a	pyFR	0	TJ020
1379.803	0.216	6584758	REC_WORD_VV	0.216	n/a	VV	-999	6	n/a	n/a	pyFR	0	TJ020
1380.019	0.532	6584974	REC_WORD	0.532	n/a	TRUCK	-999	6	n/a	n/a	pyFR	0	TJ020
1380.551	1.0	6585506	REC_WORD_VV	1.0	n/a	VV	-999	6	n/a	n/a	pyFR	0	TJ020
1381.551	1.0	6586506	REC_WORD_VV	1.0	n/a	VV	-999	6	n/a	n/a	pyFR	0	TJ020
1382.551	1.519	6587506	REC_WORD_VV	1.519	n/a	VV	-999	6	n/a	n/a	pyFR	0	TJ020
1384.07	4.15	6589024	REC_WORD_VV	4.15	n/a	VV	-999	6	n/a	n/a	pyFR	0	TJ020
1388.22	1.519	6593174	REC_WORD_VV	1.519	n/a	VV	-999	6	n/a	n/a	pyFR	0	TJ020
1389.739	1.288	6594693	REC_WORD	1.288	n/a	BEACH	-999	6	n/a	n/a	pyFR	0	TJ020
1391.027	2.682	6595981	REC_WORD_VV	2.682	n/a	VV	-999	6	n/a	n/a	pyFR	0	TJ020
1393.709	1.0	6598663	REC_WORD_VV	1.0	n/a	VV	-999	6	n/a	n/a	pyFR	0	TJ020
1394.709	1.05	6599663	REC_WORD_VV	1.05	n/a	VV	-999	6	n/a	n/a	pyFR	0	TJ020
1395.759	1.0	6600713	REC_WORD_VV	1.0	n/a	VV	-999	6	n/a	n/a	pyFR	0	TJ020
1396.759	2.228	6601713	REC_WORD_VV	2.228	n/a	VV	-999	6	n/a	n/a	pyFR	0	TJ020
1398.987	3.035	6603941	REC_WORD_VV	3.035	n/a	VV	-999	6	n/a	n/a	pyFR	0	TJ020
1402.022	170.839	6606976	REC_WORD_VV	170.839	n/a	VV	-999	6	n/a	n/a	pyFR	0	TJ020
1572.861	0.016	6777809	TRIAL	n/a	n/a	n/a	-999	-999	n/a	n/a	pyFR	0	TJ020
1572.877	2.972	6777825	ORIENT	n/a	n/a	n/a	-999	-999	n/a	n/a	pyFR	0	TJ020
1575.849	2.772	6780797	WORD	n/a	wordpools/wordpool_EN.txt	VEST	1	7	n/a	n/a	pyFR	0	TJ020
1578.621	2.422	6783569	WORD	n/a	wordpools/wordpool_EN.txt	JAIL	2	7	n/a	n/a	pyFR	0	TJ020
1581.043	2.67	6785991	WORD	n/a	wordpools/wordpool_EN.txt	SPRING	3	7	n/a	n/a	pyFR	0	TJ020
1583.713	2.689	6788661	WORD	n/a	wordpools/wordpool_EN.txt	MOUTH	4	7	n/a	n/a	pyFR	0	TJ020
1586.402	2.639	6791350	WORD	n/a	wordpools/wordpool_EN.txt	CUBE	5	7	n/a	n/a	pyFR	0	TJ020
1589.041	2.704	6793989	WORD	n/a	wordpools/wordpool_EN.txt	HORSE	6	7	n/a	n/a	pyFR	0	TJ020
1591.745	2.505	6796692	WORD	n/a	wordpools/wordpool_EN.txt	FISH	7	7	n/a	n/a	pyFR	0	TJ020
1594.25	2.805	6799197	WORD	n/a	wordpools/wordpool_EN.txt	FORT	8	7	n/a	n/a	pyFR	0	TJ020
1597.055	2.537	6802002	WORD	n/a	wordpools/wordpool_EN.txt	STORM	9	7	n/a	n/a	pyFR	0	TJ020
1599.592	2.589	6804539	WORD	n/a	wordpools/wordpool_EN.txt	FILM	10	7	n/a	n/a	pyFR	0	TJ020
1602.181	2.554	6807128	WORD	n/a	wordpools/wordpool_EN.txt	GIRL	11	7	n/a	n/a	pyFR	0	TJ020
1604.735	2.439	6809682	WORD	n/a	wordpools/wordpool_EN.txt	OWL	12	7	n/a	n/a	pyFR	0	TJ020
1607.174	2.504	6812121	WORD	n/a	wordpools/wordpool_EN.txt	FLOOR	13	7	n/a	n/a	pyFR	0	TJ020
1609.678	2.589	6814625	WORD	n/a	wordpools/wordpool_EN.txt	CART	14	7	n/a	n/a	pyFR	0	TJ020
1612.267	1.62	6817214	WORD	n/a	wordpools/wordpool_EN.txt	SAIL	15	7	n/a	n/a	pyFR	0	TJ020
1613.887	0.95	6818834	START	n/a	n/a	n/a	n/a	7	[-999 -999 -999]	-999	pyFR	0	TJ020
1614.837	6.146	6819784	PROB	n/a	n/a	n/a	n/a	7	[5 5 7]	17	pyFR	0	TJ020
1620.983	6.594	6825929	PROB	n/a	n/a	n/a	n/a	7	[4 8 8]	20	pyFR	0	TJ020
1627.577	4.626	6832523	PROB	n/a	n/a	n/a	n/a	7	[1 1 5]	7	pyFR	0	TJ020
1632.203	14.112	6837149	PROB	n/a	n/a	n/a	n/a	7	[7 6 3]	16	pyFR	0	TJ020
1646.315	1.166	6851261	STOP	n/a	n/a	n/a	n/a	7	[-999 -999 -999]	-999	pyFR	0	TJ020
1647.481	1.979	6852427	REC_START	n/a	n/a	n/a	-999	-999	n/a	n/a	pyFR	0	TJ020
1649.46	1.95	6854406	REC_WORD	1.95	n/a	JAIL	-999	7	n/a	n/a	pyFR	0	TJ020
1651.41	0.791	6856355	REC_WORD_VV	0.791	n/a	VV	-999	7	n/a	n/a	pyFR	0	TJ020
1652.201	1.467	6857146	REC_WORD	1.467	n/a	SPRING	-999	7	n/a	n/a	pyFR	0	TJ020
1653.668	2.625	6858613	REC_WORD	2.625	n/a	CUBE	-999	7	n/a	n/a	pyFR	0	TJ020
1656.293	7.913	6861238	REC_WORD_VV	7.913	n/a	VV	-999	7	n/a	n/a	pyFR	0	TJ020
1664.206	1.0	6869151	REC_WORD_VV	1.0	n/a	VV	-999	7	n/a	n/a	pyFR	0	TJ020
1665.206	11.63	6870151	REC_WORD_VV	11.63	n/a	VV	-999	7	n/a	n/a	pyFR	0	TJ020
1676.836	1.0	6881781	REC_WORD_VV	1.0	n/a	VV	-999	7	n/a	n/a	pyFR	0	TJ020
1677.836	18.152	6882781	REC_WORD_VV	18.152	n/a	VV	-999	7	n/a	n/a	pyFR	0	TJ020
1695.988	0.016	6900932	TRIAL	n/a	n/a	n/a	-999	-999	n/a	n/a	pyFR	0	TJ020
1696.004	2.904	6900948	ORIENT	n/a	n/a	n/a	-999	-999	n/a	n/a	pyFR	0	TJ020
1698.908	2.822	6903852	WORD	n/a	wordpools/wordpool_EN.txt	BOOT	1	8	n/a	n/a	pyFR	0	TJ020
1701.73	2.705	6906674	WORD	n/a	wordpools/wordpool_EN.txt	PARK	2	8	n/a	n/a	pyFR	0	TJ020
1704.435	2.689	6909379	WORD	n/a	wordpools/wordpool_EN.txt	LAMP	3	8	n/a	n/a	pyFR	0	TJ020
1707.124	2.504	6912068	WORD	n/a	wordpools/wordpool_EN.txt	HAT	4	8	n/a	n/a	pyFR	0	TJ020
1709.628	2.739	6914572	WORD	n/a	wordpools/wordpool_EN.txt	BOOK	5	8	n/a	n/a	pyFR	0	TJ020
1712.367	2.755	6917310	WORD	n/a	wordpools/wordpool_EN.txt	CLIFF	6	8	n/a	n/a	pyFR	0	TJ020
1715.122	2.704	6920065	WORD	n/a	wordpools/wordpool_EN.txt	BEAR	7	8	n/a	n/a	pyFR	0	TJ020
1717.826	2.638	6922769	WORD	n/a	wordpools/wordpool_EN.txt	ARK	8	8	n/a	n/a	pyFR	0	TJ020
1720.464	2.623	6925407	WORD	n/a	wordpools/wordpool_EN.txt	RAIN	9	8	n/a	n/a	pyFR	0	TJ020
1723.087	2.754	6928030	WORD	n/a	wordpools/wordpool_EN.txt	PEACH	10	8	n/a	n/a	pyFR	0	TJ020
1725.841	2.705	6930784	WORD	n/a	wordpools/wordpool_EN.txt	SOUP	11	8	n/a	n/a	pyFR	0	TJ020
1728.546	2.472	6933489	WORD	n/a	wordpools/wordpool_EN.txt	FROG	12	8	n/a	n/a	pyFR	0	TJ020
1731.018	2.821	6935961	WORD	n/a	wordpools/wordpool_EN.txt	GOAT	13	8	n/a	n/a	pyFR	0	TJ020
1733.839	2.539	6938782	WORD	n/a	wordpools/wordpool_EN.txt	WAND	14	8	n/a	n/a	pyFR	0	TJ020
1736.378	1.621	6941321	WORD	n/a	wordpools/wordpool_EN.txt	MOOSE	15	8	n/a	n/a	pyFR	0	TJ020
1737.999	0.899	6942942	START	n/a	n/a	n/a	n/a	8	[-999 -999 -999]	-999	pyFR	0	TJ020
1738.898	10.703	6943841	PROB	n/a	n/a	n/a	n/a	8	[7 6 3]	16	pyFR	0	TJ020
1749.601	12.249	6954543	PROB	n/a	n/a	n/a	n/a	8	[7 6 5]	18	pyFR	0	TJ020
1761.85	1.144	6966792	STOP	n/a	n/a	n/a	n/a	8	[-999 -999 -999]	-999	pyFR	0	TJ020
1762.994	2.447	6967936	REC_START	n/a	n/a	n/a	-999	-999	n/a	n/a	pyFR	0	TJ020
1765.441	1.001	6970383	REC_WORD_VV	1.001	n/a	VV	-999	8	n/a	n/a	pyFR	0	TJ020
1766.442	1.671	6971384	REC_WORD	1.671	n/a	BOAT	-999	8	n/a	n/a	pyFR	0	TJ020
1768.113	3.015	6973055	REC_WORD_VV	3.015	n/a	VV	-999	8	n/a	n/a	pyFR	0	TJ020
1771.128	1.683	6976069	REC_WORD	1.683	n/a	BOAT	-999	8	n/a	n/a	pyFR	0	TJ020
1772.811	2.634	6977752	REC_WORD_VV	2.634	n/a	VV	-999	8	n/a	n/a	pyFR	0	TJ020
1775.445	19.673	6980386	REC_WORD_VV	19.673	n/a	VV	-999	8	n/a	n/a	pyFR	0	TJ020
1795.118	4.533	7000059	REC_WORD	4.533	n/a	HAT	-999	8	n/a	n/a	pyFR	0	TJ020
1799.651	1.007	7004591	REC_WORD	1.007	n/a	HAT	-999	8	n/a	n/a	pyFR	0	TJ020
1800.658	76.996	7005598	REC_WORD_VV	76.996	n/a	VV	-999	8	n/a	n/a	pyFR	0	TJ020
1877.654	0.016	7082592	TRIAL	n/a	n/a	n/a	-999	-999	n/a	n/a	pyFR	0	TJ020
1877.67	2.788	7082608	ORIENT	n/a	n/a	n/a	-999	-999	n/a	n/a	pyFR	0	TJ020
1880.458	2.706	7085396	WORD	n/a	wordpools/wordpool_EN.txt	TOAD	1	9	n/a	n/a	pyFR	0	TJ020
1883.164	2.471	7088102	WORD	n/a	wordpools/wordpool_EN.txt	BED	2	9	n/a	n/a	pyFR	0	TJ020
1885.635	2.488	7090573	WORD	n/a	wordpools/wordpool_EN.txt	JEEP	3	9	n/a	n/a	pyFR	0	TJ020
1888.123	2.671	7093060	WORD	n/a	wordpools/wordpool_EN.txt	SHIRT	4	9	n/a	n/a	pyFR	0	TJ020
1890.794	2.739	7095731	WORD	n/a	wordpools/wordpool_EN.txt	SCHOOL	5	9	n/a	n/a	pyFR	0	TJ020
1893.533	2.605	7098470	WORD	n/a	wordpools/wordpool_EN.txt	DAD	6	9	n/a	n/a	pyFR	0	TJ020
1896.138	2.587	7101075	WORD	n/a	wordpools/wordpool_EN.txt	BADGE	7	9	n/a	n/a	pyFR	0	TJ020
1898.725	2.422	7103662	WORD	n/a	wordpools/wordpool_EN.txt	VINE	8	9	n/a	n/a	pyFR	0	TJ020
1901.147	2.738	7106084	WORD	n/a	wordpools/wordpool_EN.txt	PIN	9	9	n/a	n/a	pyFR	0	TJ020
1903.885	2.688	7108822	WORD	n/a	wordpools/wordpool_EN.txt	BRUSH	10	9	n/a	n/a	pyFR	0	TJ020
1906.573	2.506	7111510	WORD	n/a	wordpools/wordpool_EN.txt	BOY	11	9	n/a	n/a	pyFR	0	TJ020
1909.079	2.603	7114016	WORD	n/a	wordpools/wordpool_EN.txt	CASH	12	9	n/a	n/a	pyFR	0	TJ020
1911.682	2.439	7116619	WORD	n/a	wordpools/wordpool_EN.txt	SLEEVE	13	9	n/a	n/a	pyFR	0	TJ020
1914.121	2.504	7119058	WORD	n/a	wordpools/wordpool_EN.txt	DITCH	14	9	n/a	n/a	pyFR	0	TJ020
1916.625	1.606	7121562	WORD	n/a	wordpools/wordpool_EN.txt	STAR	15	9	n/a	n/a	pyFR	0	TJ020
1918.231	1.117	7123167	START	n/a	n/a	n/a	n/a	9	[-999 -999 -999]	-999	pyFR	0	TJ020
1919.348	8.147	7124284	PROB	n/a	n/a	n/a	n/a	9	[2 3 2]	7	pyFR	0	TJ020
1927.495	7.246	7132431	PROB	n/a	n/a	n/a	n/a	9	[5 4 3]	12	pyFR	0	TJ020
1934.741	9.958	7139677	PROB	n/a	n/a	n/a	n/a	9	[3 4 8]	15	pyFR	0	TJ020
1944.699	1.197	7149635	STOP	n/a	n/a	n/a	n/a	9	[-999 -999 -999]	-999	pyFR	0	TJ020
1945.896	1.645	7150832	REC_START	n/a	n/a	n/a	-999	-999	n/a	n/a	pyFR	0	TJ020
1947.541	0.822	7152476	REC_WORD	0.822	n/a	BRUSH	-999	9	n/a	n/a	pyFR	0	TJ020
1948.363	1.458	7153298	REC_WORD	1.458	n/a	BOY	-999	9	n/a	n/a	pyFR	0	TJ020
1949.821	1.889	7154756	REC_WORD	1.889	n/a	JEEP	-999	9	n/a	n/a	pyFR	0	TJ020
1951.71	5.409	7156645	REC_WORD_VV	5.409	n/a	VV	-999	9	n/a	n/a	pyFR	0	TJ020
1957.119	0.586	7162054	REC_WORD_VV	0.586	n/a	VV	-999	9	n/a	n/a	pyFR	0	TJ020
1957.705	1.183	7162640	REC_WORD	1.183	n/a	BRUSH	-999	9	n/a	n/a	pyFR	0	TJ020
1958.888	1.78	7163823	REC_WORD	1.78	n/a	BOY	-999	9	n/a	n/a	pyFR	0	TJ020
1960.668	15.542	7165603	REC_WORD	15.542	n/a	JEEP	-999	9	n/a	n/a	pyFR	0	TJ020
1976.21	1.0	7181145	REC_WORD_VV	1.0	n/a	VV	-999	9	n/a	n/a	pyFR	0	TJ020
1977.21	2.251	7182144	REC_WORD_VV	2.251	n/a	VV	-999	9	n/a	n/a	pyFR	0	TJ020
1979.461	1.566	7184395	REC_WORD_VV	1.566	n/a	VV	-999	9	n/a	n/a	pyFR	0	TJ020
1981.027	1.0	7185961	REC_WORD_VV	1.0	n/a	VV	-999	9	n/a	n/a	pyFR	0	TJ020
1982.027	6.85	7186961	REC_WORD_VV	6.85	n/a	VV	-999	9	n/a	n/a	pyFR	0	TJ020
1988.877	0.762	7193811	REC_WORD	0.762	n/a	SLEEVE	-999	9	n/a	n/a	pyFR	0	TJ020
1989.639	1.0	7194573	REC_WORD_VV	1.0	n/a	VV	-999	9	n/a	n/a	pyFR	0	TJ020
1990.639	11.193	7195573	REC_WORD_VV	11.193	n/a	VV	-999	9	n/a	n/a	pyFR	0	TJ020
2001.832	0.016	7206766	TRIAL	n/a	n/a	n/a	-999	-999	n/a	n/a	pyFR	0	TJ020
2001.848	3.022	7206782	ORIENT	n/a	n/a	n/a	-999	-999	n/a	n/a	pyFR	0	TJ020
2004.87	2.506	7209804	WORD	n/a	wordpools/wordpool_EN.txt	CAGE	1	10	n/a	n/a	pyFR	0	TJ020
2007.376	2.772	7212309	WORD	n/a	wordpools/wordpool_EN.txt	TRAIN	2	10	n/a	n/a	pyFR	0	TJ020
2010.148	2.503	7215081	WORD	n/a	wordpools/wordpool_EN.txt	SEED	3	10	n/a	n/a	pyFR	0	TJ020
2012.651	2.673	7217584	WORD	n/a	wordpools/wordpool_EN.txt	AXE	4	10	n/a	n/a	pyFR	0	TJ020
2015.324	2.755	7220257	WORD	n/a	wordpools/wordpool_EN.txt	ROAD	5	10	n/a	n/a	pyFR	0	TJ020
2018.079	2.47	7223012	WORD	n/a	wordpools/wordpool_EN.txt	TOE	6	10	n/a	n/a	pyFR	0	TJ020
2020.549	2.673	7225482	WORD	n/a	wordpools/wordpool_EN.txt	DESK	7	10	n/a	n/a	pyFR	0	TJ020
2023.222	2.503	7228155	WORD	n/a	wordpools/wordpool_EN.txt	GOLD	8	10	n/a	n/a	pyFR	0	TJ020
2025.725	2.439	7230658	WORD	n/a	wordpools/wordpool_EN.txt	CHALK	9	10	n/a	n/a	pyFR	0	TJ020
2028.164	2.822	7233097	WORD	n/a	wordpools/wordpool_EN.txt	SOCK	10	10	n/a	n/a	pyFR	0	TJ020
2030.986	2.804	7235919	WORD	n/a	wordpools/wordpool_EN.txt	CORD	11	10	n/a	n/a	pyFR	0	TJ020
2033.79	2.755	7238723	WORD	n/a	wordpools/wordpool_EN.txt	STEM	12	10	n/a	n/a	pyFR	0	TJ020
2036.545	2.656	7241477	WORD	n/a	wordpools/wordpool_EN.txt	CHEEK	13	10	n/a	n/a	pyFR	0	TJ020
2039.201	2.687	7244133	WORD	n/a	wordpools/wordpool_EN.txt	HOOF	14	10	n/a	n/a	pyFR	0	TJ020
2041.888	1.605	7246820	WORD	n/a	wordpools/wordpool_EN.txt	GATE	15	10	n/a	n/a	pyFR	0	TJ020
2043.493	1.15	7248425	START	n/a	n/a	n/a	n/a	10	[-999 -999 -999]	-999	pyFR	0	TJ020
2044.643	7.848	7249575	PROB	n/a	n/a	n/a	n/a	10	[6 2 4]	12	pyFR	0	TJ020
2052.491	7.882	7257423	PROB	n/a	n/a	n/a	n/a	10	[4 3 4]	11	pyFR	0	TJ020
2060.373	4.79	7265305	PROB	n/a	n/a	n/a	n/a	10	[7 1 7]	15	pyFR	0	TJ020
2065.163	1.122	7270095	STOP	n/a	n/a	n/a	n/a	10	[-999 -999 -999]	-999	pyFR	0	TJ020
2066.285	3.007	7271216	REC_START	n/a	n/a	n/a	-999	-999	n/a	n/a	pyFR	0	TJ020
2069.292	0.459	7274223	REC_WORD_VV	0.459	n/a	VV	-999	10	n/a	n/a	pyFR	0	TJ020
2069.751	2.318	7274682	REC_WORD	2.318	n/a	TRAIN	-999	10	n/a	n/a	pyFR	0	TJ020
2072.069	2.344	7277000	REC_WORD	2.344	n/a	ROAD	-999	10	n/a	n/a	pyFR	0	TJ020
2074.413	5.383	7279344	REC_WORD_VV	5.383	n/a	VV	-999	10	n/a	n/a	pyFR	0	TJ020
2079.796	0.774	7284727	REC_WORD_VV	0.774	n/a	VV	-999	10	n/a	n/a	pyFR	0	TJ020
2080.57	2.659	7285501	REC_WORD	2.659	n/a	GATE	-999	10	n/a	n/a	pyFR	0	TJ020
2083.229	13.207	7288160	REC_WORD_VV	13.207	n/a	VV	-999	10	n/a	n/a	pyFR	0	TJ020
2096.436	2.101	7301366	REC_WORD	2.101	n/a	SOCK	-999	10	n/a	n/a	pyFR	0	TJ020
2098.537	1.0	7303467	REC_WORD_VV	1.0	n/a	VV	-999	10	n/a	n/a	pyFR	0	TJ020
2099.537	1.0	7304467	REC_WORD_VV	1.0	n/a	VV	-999	10	n/a	n/a	pyFR	0	TJ020
2100.537	3.349	7305467	REC_WORD_VV	3.349	n/a	VV	-999	10	n/a	n/a	pyFR	0	TJ020
2103.886	11.538	7308816	REC_WORD_VV	11.538	n/a	VV	-999	10	n/a	n/a	pyFR	0	TJ020
2115.424	0.016	7320354	TRIAL	n/a	n/a	n/a	-999	-999	n/a	n/a	pyFR	0	TJ020
2115.44	2.94	7320370	ORIENT	n/a	n/a	n/a	-999	-999	n/a	n/a	pyFR	0	TJ020
2118.38	2.738	7323310	WORD	n/a	wordpools/wordpool_EN.txt	BROOM	1	11	n/a	n/a	pyFR	0	TJ020
2121.118	2.604	7326048	WORD	n/a	wordpools/wordpool_EN.txt	FARM	2	11	n/a	n/a	pyFR	0	TJ020
2123.722	2.805	7328652	WORD	n/a	wordpools/wordpool_EN.txt	BELL	3	11	n/a	n/a	pyFR	0	TJ020
2126.527	2.472	7331456	WORD	n/a	wordpools/wordpool_EN.txt	STOOL	4	11	n/a	n/a	pyFR	0	TJ020
2128.999	2.537	7333928	WORD	n/a	wordpools/wordpool_EN.txt	PEA	5	11	n/a	n/a	pyFR	0	TJ020
2131.536	2.706	7336465	WORD	n/a	wordpools/wordpool_EN.txt	GRASS	6	11	n/a	n/a	pyFR	0	TJ020
2134.242	2.621	7339171	WORD	n/a	wordpools/wordpool_EN.txt	MOUSE	7	11	n/a	n/a	pyFR	0	TJ020
2136.863	2.721	7341792	WORD	n/a	wordpools/wordpool_EN.txt	SLIME	8	11	n/a	n/a	pyFR	0	TJ020
2139.584	2.673	7344513	WORD	n/a	wordpools/wordpool_EN.txt	TOY	9	11	n/a	n/a	pyFR	0	TJ020
2142.257	2.437	7347186	WORD	n/a	wordpools/wordpool_EN.txt	LAWN	10	11	n/a	n/a	pyFR	0	TJ020
2144.694	2.788	7349623	WORD	n/a	wordpools/wordpool_EN.txt	FRUIT	11	11	n/a	n/a	pyFR	0	TJ020
2147.482	2.64	7352411	WORD	n/a	wordpools/wordpool_EN.txt	INK	12	11	n/a	n/a	pyFR	0	TJ020
2150.122	2.67	7355051	WORD	n/a	wordpools/wordpool_EN.txt	LAND	13	11	n/a	n/a	pyFR	0	TJ020
2152.792	2.755	7357721	WORD	n/a	wordpools/wordpool_EN.txt	CANE	14	11	n/a	n/a	pyFR	0	TJ020
2155.547	1.606	7360475	WORD	n/a	wordpools/wordpool_EN.txt	LAMB	15	11	n/a	n/a	pyFR	0	TJ020
2157.153	1.134	7362081	START	n/a	n/a	n/a	n/a	11	[-999 -999 -999]	-999	pyFR	0	TJ020
2158.287	5.877	7363215	PROB	n/a	n/a	n/a	n/a	11	[9 1 6]	16	pyFR	0	TJ020
2164.164	18.55	7369092	PROB	n/a	n/a	n/a	n/a	11	[4 9 5]	17	pyFR	0	TJ020
2182.714	1.052	7387642	STOP	n/a	n/a	n/a	n/a	11	[-999 -999 -999]	-999	pyFR	0	TJ020
2183.766	2.421	7388694	REC_START	n/a	n/a	n/a	-999	-999	n/a	n/a	pyFR	0	TJ020
2186.187	1.037	7391114	REC_WORD_VV	1.037	n/a	VV	-999	11	n/a	n/a	pyFR	0	TJ020
2187.224	0.674	7392151	REC_WORD_VV	0.674	n/a	VV	-999	11	n/a	n/a	pyFR	0	TJ020
2187.898	1.157	7392825	REC_WORD	1.157	n/a	FRUIT	-999	11	n/a	n/a	pyFR	0	TJ020
2189.055	0.68	7393982	REC_WORD_VV	0.68	n/a	VV	-999	11	n/a	n/a	pyFR	0	TJ020
2189.735	2.621	7394662	REC_WORD	2.621	n/a	FARM	-999	11	n/a	n/a	pyFR	0	TJ020
2192.356	1.0	7397283	REC_WORD_VV	1.0	n/a	VV	-999	11	n/a	n/a	pyFR	0	TJ020
2193.356	1.35	7398283	REC_WORD_VV	1.35	n/a	VV	-999	11	n/a	n/a	pyFR	0	TJ020
2194.706	0.738	7399633	REC_WORD_VV	0.738	n/a	VV	-999	11	n/a	n/a	pyFR	0	TJ020
2195.444	0.767	7400371	REC_WORD	0.767	n/a	MOUSE	-999	11	n/a	n/a	pyFR	0	TJ020
2196.211	0.74	7401138	REC_WORD_VV	0.74	n/a	VV	-999	11	n/a	n/a	pyFR	0	TJ020
2196.951	1.7	7401878	REC_WORD	1.7	n/a	MOUSE	-999	11	n/a	n/a	pyFR	0	TJ020
2198.651	1.657	7403578	REC_WORD_VV	1.657	n/a	VV	-999	11	n/a	n/a	pyFR	0	TJ020
2200.308	4.806	7405235	REC_WORD	4.806	n/a	PEA	-999	11	n/a	n/a	pyFR	0	TJ020
2205.114	20.093	7410041	REC_WORD_VV	20.093	n/a	VV	-999	11	n/a	n/a	pyFR	0	TJ020
2225.207	148.693	7430133	REC_WORD	148.693	n/a	GRASS	-999	11	n/a	n/a	pyFR	0	TJ020
2373.9	0.015	7578821	TRIAL	n/a	n/a	n/a	-999	-999	n/a	n/a	pyFR	0	TJ020
2373.915	2.672	7578836	ORIENT	n/a	n/a	n/a	-999	-999	n/a	n/a	pyFR	0	TJ020
2376.587	2.589	7581508	WORD	n/a	wordpools/wordpool_EN.txt	FOX	1	12	n/a	n/a	pyFR	0	TJ020
2379.176	2.805	7584097	WORD	n/a	wordpools/wordpool_EN.txt	SIGN	2	12	n/a	n/a	pyFR	0	TJ020
2381.981	2.62	7586902	WORD	n/a	wordpools/wordpool_EN.txt	LOCK	3	12	n/a	n/a	pyFR	0	TJ020
2384.601	2.573	7589522	WORD	n/a	wordpools/wordpool_EN.txt	FOOT	4	12	n/a	n/a	pyFR	0	TJ020
2387.174	2.737	7592095	WORD	n/a	wordpools/wordpool_EN.txt	BALL	5	12	n/a	n/a	pyFR	0	TJ020
2389.911	2.755	7594832	WORD	n/a	wordpools/wordpool_EN.txt	STRING	6	12	n/a	n/a	pyFR	0	TJ020
2392.666	2.805	7597586	WORD	n/a	wordpools/wordpool_EN.txt	PEAR	7	12	n/a	n/a	pyFR	0	TJ020
2395.471	2.756	7600391	WORD	n/a	wordpools/wordpool_EN.txt	FLEA	8	12	n/a	n/a	pyFR	0	TJ020
2398.227	2.722	7603147	WORD	n/a	wordpools/wordpool_EN.txt	FLAG	9	12	n/a	n/a	pyFR	0	TJ020
2400.949	2.737	7605869	WORD	n/a	wordpools/wordpool_EN.txt	SWAMP	10	12	n/a	n/a	pyFR	0	TJ020
2403.686	2.706	7608606	WORD	n/a	wordpools/wordpool_EN.txt	FUDGE	11	12	n/a	n/a	pyFR	0	TJ020
2406.392	2.806	7611312	WORD	n/a	wordpools/wordpool_EN.txt	VAN	12	12	n/a	n/a	pyFR	0	TJ020
2409.198	2.587	7614118	WORD	n/a	wordpools/wordpool_EN.txt	CROWN	13	12	n/a	n/a	pyFR	0	TJ020
2411.785	2.805	7616705	WORD	n/a	wordpools/wordpool_EN.txt	HOLE	14	12	n/a	n/a	pyFR	0	TJ020
2414.59	1.605	7619510	WORD	n/a	wordpools/wordpool_EN.txt	STONE	15	12	n/a	n/a	pyFR	0	TJ020
2416.195	1.184	7621115	START	n/a	n/a	n/a	n/a	12	[-999 -999 -999]	-999	pyFR	0	TJ020
2417.379	18.25	7622299	PROB	n/a	n/a	n/a	n/a	12	[2 7 6]	15	pyFR	0	TJ020
2435.629	8.734	7640548	PROB	n/a	n/a	n/a	n/a	12	[1 2 4]	7	pyFR	0	TJ020
2444.363	1.084	7649282	STOP	n/a	n/a	n/a	n/a	12	[-999 -999 -999]	-999	pyFR	0	TJ020
2445.447	4.852	7650366	REC_START	n/a	n/a	n/a	-999	-999	n/a	n/a	pyFR	0	TJ020
2450.299	1.294	7655218	REC_WORD_VV	1.294	n/a	VV	-999	12	n/a	n/a	pyFR	0	TJ020
2451.593	6.291	7656511	REC_WORD_VV	6.291	n/a	VV	-999	12	n/a	n/a	pyFR	0	TJ020
2457.884	1.593	7662802	REC_WORD_VV	1.593	n/a	VV	-999	12	n/a	n/a	pyFR	0	TJ020
2459.477	1.096	7664395	REC_WORD	1.096	n/a	FOOT	-999	12	n/a	n/a	pyFR	0	TJ020
2460.573	1.0	7665491	REC_WORD	1.0	n/a	FOOT	-999	12	n/a	n/a	pyFR	0	TJ020
2461.573	1.487	7666491	REC_WORD_VV	1.487	n/a	VV	-999	12	n/a	n/a	pyFR	0	TJ020
2463.06	1.707	7667978	REC_WORD_VV	1.707	n/a	VV	-999	12	n/a	n/a	pyFR	0	TJ020
2464.767	1.836	7669685	REC_WORD_VV	1.836	n/a	VV	-999	12	n/a	n/a	pyFR	0	TJ020
2466.603	3.507	7671521	REC_WORD	3.507	n/a	STRING	-999	12	n/a	n/a	pyFR	0	TJ020
2470.11	4.905	7675028	REC_WORD_VV	4.905	n/a	VV	-999	12	n/a	n/a	pyFR	0	TJ020
2475.015	21.327	7679933	REC_WORD	21.327	n/a	STRING	-999	12	n/a	n/a	pyFR	0	TJ020
2496.342	0.016	7701259	TRIAL	n/a	n/a	n/a	-999	-999	n/a	n/a	pyFR	0	TJ020
2496.358	2.805	7701275	ORIENT	n/a	n/a	n/a	-999	-999	n/a	n/a	pyFR	0	TJ020
2499.163	2.604	7704080	WORD	n/a	wordpools/wordpool_EN.txt	HEN	1	13	n/a	n/a	pyFR	0	TJ020
2501.767	2.455	7706684	WORD	n/a	wordpools/wordpool_EN.txt	POOL	2	13	n/a	n/a	pyFR	0	TJ020
2504.222	2.789	7709139	WORD	n/a	wordpools/wordpool_EN.txt	CUP	3	13	n/a	n/a	pyFR	0	TJ020
2507.011	2.503	7711928	WORD	n/a	wordpools/wordpool_EN.txt	CAT	4	13	n/a	n/a	pyFR	0	TJ020
2509.514	2.639	7714431	WORD	n/a	wordpools/wordpool_EN.txt	DUCK	5	13	n/a	n/a	pyFR	0	TJ020
2512.153	2.771	7717069	WORD	n/a	wordpools/wordpool_EN.txt	BREAD	6	13	n/a	n/a	pyFR	0	TJ020
2514.924	2.705	7719840	WORD	n/a	wordpools/wordpool_EN.txt	CALF	7	13	n/a	n/a	pyFR	0	TJ020
2517.629	2.656	7722545	WORD	n/a	wordpools/wordpool_EN.txt	SNAKE	8	13	n/a	n/a	pyFR	0	TJ020
2520.285	2.52	7725201	WORD	n/a	wordpools/wordpool_EN.txt	ICE	9	13	n/a	n/a	pyFR	0	TJ020
2522.805	2.456	7727721	WORD	n/a	wordpools/wordpool_EN.txt	SUIT	10	13	n/a	n/a	pyFR	0	TJ020
2525.261	2.822	7730177	WORD	n/a	wordpools/wordpool_EN.txt	PLANT	11	13	n/a	n/a	pyFR	0	TJ020
2528.083	2.47	7732999	WORD	n/a	wordpools/wordpool_EN.txt	SHARK	12	13	n/a	n/a	pyFR	0	TJ020
2530.553	2.505	7735469	WORD	n/a	wordpools/wordpool_EN.txt	TAPE	13	13	n/a	n/a	pyFR	0	TJ020
2533.058	2.738	7737974	WORD	n/a	wordpools/wordpool_EN.txt	JET	14	13	n/a	n/a	pyFR	0	TJ020
2535.796	1.605	7740712	WORD	n/a	wordpools/wordpool_EN.txt	SMOKE	15	13	n/a	n/a	pyFR	0	TJ020
2537.401	0.95	7742317	START	n/a	n/a	n/a	n/a	13	[-999 -999 -999]	-999	pyFR	0	TJ020
2538.351	6.98	7743267	PROB	n/a	n/a	n/a	n/a	13	[9 1 2]	12	pyFR	0	TJ020
2545.331	7.179	7750246	PROB	n/a	n/a	n/a	n/a	13	[8 8 2]	18	pyFR	0	TJ020
2552.51	28.436	7757425	PROB	n/a	n/a	n/a	n/a	13	[9 3 7]	19	pyFR	0	TJ020
2580.946	2.656	7785860	REC_START	n/a	n/a	n/a	-999	-999	n/a	n/a	pyFR	0	TJ020
2583.602	2.961	7788516	REC_WORD_VV	2.961	n/a	VV	-999	13	n/a	n/a	pyFR	0	TJ020
2586.563	5.415	7791477	REC_WORD_VV	5.415	n/a	VV	-999	13	n/a	n/a	pyFR	0	TJ020
2591.978	1.0	7796892	REC_WORD_VV	1.0	n/a	VV	-999	13	n/a	n/a	pyFR	0	TJ020
2592.978	2.689	7797892	REC_WORD_VV	2.689	n/a	VV	-999	13	n/a	n/a	pyFR	0	TJ020
2595.667	1.808	7800581	REC_WORD_VV	1.808	n/a	VV	-999	13	n/a	n/a	pyFR	0	TJ020
2597.475	3.348	7802389	REC_WORD	3.348	n/a	HEN	-999	13	n/a	n/a	pyFR	0	TJ020
2600.823	7.334	7805736	REC_WORD_VV	7.334	n/a	VV	-999	13	n/a	n/a	pyFR	0	TJ020
2608.157	4.394	7813070	REC_WORD_VV	4.394	n/a	VV	-999	13	n/a	n/a	pyFR	0	TJ020
2612.551	1.0	7817464	REC_WORD_VV	1.0	n/a	VV	-999	13	n/a	n/a	pyFR	0	TJ020
2613.551	0.0	7818464	REC_WORD_VV	0.0	n/a	VV	-999	13	n/a	n/a	pyFR	0	TJ020
