onset	duration	sample	trial_type	response_time	stim_file	item_name	serialpos	list	test	answer	experiment	session	subject
0.0	0.001	328210	B	n/a	n/a	n/a	-999	-999	n/a	n/a	pyFR	3	UP045
0.001	42.472	328210	SESS_START	n/a	n/a	n/a	-999	-999	n/a	n/a	pyFR	3	UP045
42.473	0.021	349446	START	n/a	n/a	n/a	n/a	0	[-999 -999 -999]	-999	pyFR	3	UP045
42.494	7.834	349457	PROB	7.805	n/a	n/a	n/a	0	[3 4 7]	14	pyFR	3	UP045
50.328	6.567	353374	PROB	6.531	n/a	n/a	n/a	0	[4 3 5]	12	pyFR	3	UP045
56.895	2.351	356657	PROB	2.315	n/a	n/a	n/a	0	[5 1 2]	8	pyFR	3	UP045
59.246	11.967	357833	PROB	11.932	n/a	n/a	n/a	0	[8 8 7]	24	pyFR	3	UP045
71.213	4.117	363816	PROB	4.117	n/a	n/a	n/a	0	[2 3 5]	10	pyFR	3	UP045
75.33	64.068	365875	STOP	n/a	n/a	n/a	n/a	0	[-999 -999 -999]	-999	pyFR	3	UP045
139.398	0.016	397908	TRIAL	n/a	n/a	n/a	-999	1	n/a	n/a	pyFR	3	UP045
139.414	2.969	397916	ORIENT	n/a	n/a	n/a	-999	1	n/a	n/a	pyFR	3	UP045
142.383	2.716	399401	WORD	n/a	wordpools/wordpool_EN.txt	TRAY	1	1	n/a	n/a	pyFR	3	UP045
145.099	2.567	400759	WORD	n/a	wordpools/wordpool_EN.txt	PIT	2	1	n/a	n/a	pyFR	3	UP045
147.666	2.6	402042	WORD	n/a	wordpools/wordpool_EN.txt	STEAM	3	1	n/a	n/a	pyFR	3	UP045
150.266	2.817	403342	WORD	n/a	wordpools/wordpool_EN.txt	CROW	4	1	n/a	n/a	pyFR	3	UP045
153.083	2.633	404751	WORD	n/a	wordpools/wordpool_EN.txt	PASTE	5	1	n/a	n/a	pyFR	3	UP045
155.716	2.617	406067	WORD	n/a	wordpools/wordpool_EN.txt	PHONE	6	1	n/a	n/a	pyFR	3	UP045
158.333	2.633	407376	WORD	n/a	wordpools/wordpool_EN.txt	CLOCK	7	1	n/a	n/a	pyFR	3	UP045
160.966	2.817	408692	WORD	n/a	wordpools/wordpool_EN.txt	BREAD	8	1	n/a	n/a	pyFR	3	UP045
163.783	2.6	410101	WORD	n/a	wordpools/wordpool_EN.txt	ROSE	9	1	n/a	n/a	pyFR	3	UP045
166.383	2.817	411401	WORD	n/a	wordpools/wordpool_EN.txt	SIGN	10	1	n/a	n/a	pyFR	3	UP045
169.2	2.683	412809	WORD	n/a	wordpools/wordpool_EN.txt	NET	11	1	n/a	n/a	pyFR	3	UP045
171.883	2.685	414151	WORD	n/a	wordpools/wordpool_EN.txt	SLUSH	12	1	n/a	n/a	pyFR	3	UP045
174.568	2.732	415493	WORD	n/a	wordpools/wordpool_EN.txt	OAR	13	1	n/a	n/a	pyFR	3	UP045
177.3	2.784	416859	WORD	n/a	wordpools/wordpool_EN.txt	STAIR	14	1	n/a	n/a	pyFR	3	UP045
180.084	1.618	418251	WORD	n/a	wordpools/wordpool_EN.txt	HAWK	15	1	n/a	n/a	pyFR	3	UP045
181.702	1.147	419060	START	n/a	n/a	n/a	n/a	1	[-999 -999 -999]	-999	pyFR	3	UP045
182.849	7.4	419634	PROB	7.365	n/a	n/a	n/a	1	[3 7 8]	18	pyFR	3	UP045
190.249	2.833	423334	PROB	2.797	n/a	n/a	n/a	1	[1 6 4]	11	pyFR	3	UP045
193.082	2.867	424750	PROB	2.844	n/a	n/a	n/a	1	[1 2 2]	5	pyFR	3	UP045
195.949	3.334	426184	PROB	3.296	n/a	n/a	n/a	1	[5 9 1]	15	pyFR	3	UP045
199.283	1.85	427851	PROB	1.827	n/a	n/a	n/a	1	[9 1 1]	111	pyFR	3	UP045
201.133	8.448	428776	PROB	8.448	n/a	n/a	n/a	1	[5 3 8]	16	pyFR	3	UP045
209.581	1.194	433000	STOP	n/a	n/a	n/a	n/a	1	[-999 -999 -999]	-999	pyFR	3	UP045
210.775	1.414	433597	REC_START	n/a	n/a	n/a	-999	1	n/a	n/a	pyFR	3	UP045
212.189	1.155	434304	REC_WORD	1.414	n/a	READ	-999	1	n/a	n/a	pyFR	3	UP045
213.344	1.187	434881	REC_WORD	2.569	n/a	OAR	-999	1	n/a	n/a	pyFR	3	UP045
214.531	2.082	435475	REC_WORD	3.756	n/a	TRAY	-999	1	n/a	n/a	pyFR	3	UP045
216.613	1.04	436516	REC_WORD	5.838	n/a	BUCKET	-999	1	n/a	n/a	pyFR	3	UP045
217.653	1.326	437036	REC_WORD	6.878	n/a	MASK	-999	1	n/a	n/a	pyFR	3	UP045
218.979	11.153	437699	REC_WORD	8.204	n/a	HAT	-999	1	n/a	n/a	pyFR	3	UP045
230.132	2.034	443275	REC_WORD	19.357	n/a	SAY	-999	1	n/a	n/a	pyFR	3	UP045
232.166	10.502	444292	REC_WORD	21.391	n/a	MEANT	-999	1	n/a	n/a	pyFR	3	UP045
242.668	15.752	449543	REC_WORD	31.893	n/a	TIME	-999	1	n/a	n/a	pyFR	3	UP045
258.42	0.017	457419	TRIAL	n/a	n/a	n/a	-999	2	n/a	n/a	pyFR	3	UP045
258.437	2.95	457428	ORIENT	n/a	n/a	n/a	-999	2	n/a	n/a	pyFR	3	UP045
261.387	2.8	458903	WORD	n/a	wordpools/wordpool_EN.txt	DART	1	2	n/a	n/a	pyFR	3	UP045
264.187	2.5	460303	WORD	n/a	wordpools/wordpool_EN.txt	CHIEF	2	2	n/a	n/a	pyFR	3	UP045
266.687	2.516	461553	WORD	n/a	wordpools/wordpool_EN.txt	HOUSE	3	2	n/a	n/a	pyFR	3	UP045
269.203	2.749	462811	WORD	n/a	wordpools/wordpool_EN.txt	BAT	4	2	n/a	n/a	pyFR	3	UP045
271.952	2.518	464185	WORD	n/a	wordpools/wordpool_EN.txt	RIB	5	2	n/a	n/a	pyFR	3	UP045
274.47	2.617	465444	WORD	n/a	wordpools/wordpool_EN.txt	SEAT	6	2	n/a	n/a	pyFR	3	UP045
277.087	2.468	466753	WORD	n/a	wordpools/wordpool_EN.txt	SKY	7	2	n/a	n/a	pyFR	3	UP045
279.555	2.616	467987	WORD	n/a	wordpools/wordpool_EN.txt	SHOE	8	2	n/a	n/a	pyFR	3	UP045
282.171	2.8	469295	WORD	n/a	wordpools/wordpool_EN.txt	RAKE	9	2	n/a	n/a	pyFR	3	UP045
284.971	2.666	470695	WORD	n/a	wordpools/wordpool_EN.txt	EGG	10	2	n/a	n/a	pyFR	3	UP045
287.637	2.633	472028	WORD	n/a	wordpools/wordpool_EN.txt	LAWN	11	2	n/a	n/a	pyFR	3	UP045
290.27	2.718	473344	WORD	n/a	wordpools/wordpool_EN.txt	MOUSE	12	2	n/a	n/a	pyFR	3	UP045
292.988	2.783	474703	WORD	n/a	wordpools/wordpool_EN.txt	TOOTH	13	2	n/a	n/a	pyFR	3	UP045
295.771	2.617	476095	WORD	n/a	wordpools/wordpool_EN.txt	BAG	14	2	n/a	n/a	pyFR	3	UP045
298.388	1.618	477403	WORD	n/a	wordpools/wordpool_EN.txt	WHEEL	15	2	n/a	n/a	pyFR	3	UP045
300.006	0.98	478212	START	n/a	n/a	n/a	n/a	2	[-999 -999 -999]	-999	pyFR	3	UP045
300.986	7.802	478702	PROB	7.776	n/a	n/a	n/a	2	[7 6 5]	13	pyFR	3	UP045
308.788	2.5	482603	PROB	2.462	n/a	n/a	n/a	2	[8 1 8]	17	pyFR	3	UP045
311.288	3.899	483853	PROB	3.865	n/a	n/a	n/a	2	[7 8 7]	23	pyFR	3	UP045
315.187	4.585	485803	PROB	4.558	n/a	n/a	n/a	2	[3 5 4]	12	pyFR	3	UP045
319.772	2.213	488095	PROB	2.213	n/a	n/a	n/a	2	[7 6 1]	14	pyFR	3	UP045
321.985	1.221	489202	STOP	n/a	n/a	n/a	n/a	2	[-999 -999 -999]	-999	pyFR	3	UP045
323.206	2.572	489812	REC_START	n/a	n/a	n/a	-999	2	n/a	n/a	pyFR	3	UP045
325.778	0.989	491098	REC_WORD	2.572	n/a	EGG	-999	2	n/a	n/a	pyFR	3	UP045
326.767	1.278	491593	REC_WORD	3.561	n/a	HAT	-999	2	n/a	n/a	pyFR	3	UP045
328.045	1.796	492232	REC_WORD	4.839	n/a	BAT	-999	2	n/a	n/a	pyFR	3	UP045
329.841	1.754	493130	REC_WORD	6.635	n/a	WATCH	-999	2	n/a	n/a	pyFR	3	UP045
331.595	1.959	494007	REC_WORD	8.389	n/a	UNDER	-999	2	n/a	n/a	pyFR	3	UP045
333.554	1.625	494986	REC_WORD	10.348	n/a	TIME	-999	2	n/a	n/a	pyFR	3	UP045
335.179	6.863	495799	REC_WORD	11.973	n/a	BACK	-999	2	n/a	n/a	pyFR	3	UP045
342.042	0.944	499230	REC_WORD	18.836	n/a	EGG	-999	2	n/a	n/a	pyFR	3	UP045
342.986	5.541	499702	REC_WORD	19.78	n/a	TREE	-999	2	n/a	n/a	pyFR	3	UP045
348.527	2.964	502472	REC_WORD	25.321	n/a	RADIO	-999	2	n/a	n/a	pyFR	3	UP045
351.491	13.268	503954	REC_WORD	28.285	n/a	STEREO	-999	2	n/a	n/a	pyFR	3	UP045
364.759	6.915	510588	REC_WORD	41.553	n/a	TIME	-999	2	n/a	n/a	pyFR	3	UP045
371.674	0.016	514046	TRIAL	n/a	n/a	n/a	-999	3	n/a	n/a	pyFR	3	UP045
371.69	2.967	514054	ORIENT	n/a	n/a	n/a	-999	3	n/a	n/a	pyFR	3	UP045
374.657	2.467	515537	WORD	n/a	wordpools/wordpool_EN.txt	LEG	1	3	n/a	n/a	pyFR	3	UP045
377.124	2.816	516771	WORD	n/a	wordpools/wordpool_EN.txt	RUG	2	3	n/a	n/a	pyFR	3	UP045
379.94	2.7	518179	WORD	n/a	wordpools/wordpool_EN.txt	MUG	3	3	n/a	n/a	pyFR	3	UP045
382.64	2.484	519529	WORD	n/a	wordpools/wordpool_EN.txt	GUARD	4	3	n/a	n/a	pyFR	3	UP045
385.124	2.817	520771	WORD	n/a	wordpools/wordpool_EN.txt	BEE	5	3	n/a	n/a	pyFR	3	UP045
387.941	2.666	522179	WORD	n/a	wordpools/wordpool_EN.txt	BLUSH	6	3	n/a	n/a	pyFR	3	UP045
390.607	2.751	523512	WORD	n/a	wordpools/wordpool_EN.txt	ARK	7	3	n/a	n/a	pyFR	3	UP045
393.358	2.55	524888	WORD	n/a	wordpools/wordpool_EN.txt	BOWL	8	3	n/a	n/a	pyFR	3	UP045
395.908	2.766	526163	WORD	n/a	wordpools/wordpool_EN.txt	ROPE	9	3	n/a	n/a	pyFR	3	UP045
398.674	2.5	527546	WORD	n/a	wordpools/wordpool_EN.txt	DITCH	10	3	n/a	n/a	pyFR	3	UP045
401.174	2.634	528796	WORD	n/a	wordpools/wordpool_EN.txt	WAVE	11	3	n/a	n/a	pyFR	3	UP045
403.808	2.751	530113	WORD	n/a	wordpools/wordpool_EN.txt	BLOOM	12	3	n/a	n/a	pyFR	3	UP045
406.559	2.482	531488	WORD	n/a	wordpools/wordpool_EN.txt	BELL	13	3	n/a	n/a	pyFR	3	UP045
409.041	2.567	532729	WORD	n/a	wordpools/wordpool_EN.txt	LAMB	14	3	n/a	n/a	pyFR	3	UP045
411.608	1.619	534013	WORD	n/a	wordpools/wordpool_EN.txt	BROOM	15	3	n/a	n/a	pyFR	3	UP045
413.227	1.213	534822	START	n/a	n/a	n/a	n/a	3	[-999 -999 -999]	-999	pyFR	3	UP045
414.44	8.55	535429	PROB	8.526	n/a	n/a	n/a	3	[6 8 6]	20	pyFR	3	UP045
422.99	2.719	539704	PROB	2.68	n/a	n/a	n/a	3	[3 3 6]	12	pyFR	3	UP045
425.709	2.715	541063	PROB	2.689	n/a	n/a	n/a	3	[3 4 1]	8	pyFR	3	UP045
428.424	2.134	542421	PROB	2.111	n/a	n/a	n/a	3	[5 5 4]	14	pyFR	3	UP045
430.558	3.536	543488	PROB	3.536	n/a	n/a	n/a	3	[1 3 4]	9	pyFR	3	UP045
434.094	1.2	545256	STOP	n/a	n/a	n/a	n/a	3	[-999 -999 -999]	-999	pyFR	3	UP045
435.294	0.492	545856	REC_START	n/a	n/a	n/a	-999	3	n/a	n/a	pyFR	3	UP045
435.786	0.669	546102	REC_WORD	0.492	n/a	BLOOM	-999	3	n/a	n/a	pyFR	3	UP045
436.455	0.662	546436	REC_WORD	1.161	n/a	BELL	-999	3	n/a	n/a	pyFR	3	UP045
437.117	0.788	546767	REC_WORD	1.823	n/a	TRUST	-999	3	n/a	n/a	pyFR	3	UP045
437.905	0.991	547161	REC_WORD	2.611	n/a	FALL	-999	3	n/a	n/a	pyFR	3	UP045
438.896	8.117	547657	REC_WORD	3.602	n/a	TIME	-999	3	n/a	n/a	pyFR	3	UP045
447.013	3.694	551715	REC_WORD	11.719	n/a	HAT	-999	3	n/a	n/a	pyFR	3	UP045
450.707	8.186	553562	REC_WORD	15.413	n/a	MOUSE	-999	3	n/a	n/a	pyFR	3	UP045
458.893	7.476	557655	REC_WORD	23.599	n/a	TREE	-999	3	n/a	n/a	pyFR	3	UP045
466.369	17.392	561393	REC_WORD	31.075	n/a	BLOOM	-999	3	n/a	n/a	pyFR	3	UP045
483.761	0.016	570089	TRIAL	n/a	n/a	n/a	-999	4	n/a	n/a	pyFR	3	UP045
483.777	2.917	570097	ORIENT	n/a	n/a	n/a	-999	4	n/a	n/a	pyFR	3	UP045
486.694	2.75	571556	WORD	n/a	wordpools/wordpool_EN.txt	SMILE	1	4	n/a	n/a	pyFR	3	UP045
489.444	2.5	572931	WORD	n/a	wordpools/wordpool_EN.txt	MAIL	2	4	n/a	n/a	pyFR	3	UP045
491.944	2.817	574181	WORD	n/a	wordpools/wordpool_EN.txt	STORE	3	4	n/a	n/a	pyFR	3	UP045
494.761	2.65	575589	WORD	n/a	wordpools/wordpool_EN.txt	MUD	4	4	n/a	n/a	pyFR	3	UP045
497.411	2.533	576914	WORD	n/a	wordpools/wordpool_EN.txt	STEAK	5	4	n/a	n/a	pyFR	3	UP045
499.944	2.834	578181	WORD	n/a	wordpools/wordpool_EN.txt	PIPE	6	4	n/a	n/a	pyFR	3	UP045
502.778	2.533	579598	WORD	n/a	wordpools/wordpool_EN.txt	SPONGE	7	4	n/a	n/a	pyFR	3	UP045
505.311	2.534	580864	WORD	n/a	wordpools/wordpool_EN.txt	TENT	8	4	n/a	n/a	pyFR	3	UP045
507.845	2.6	582131	WORD	n/a	wordpools/wordpool_EN.txt	WAND	9	4	n/a	n/a	pyFR	3	UP045
510.445	2.566	583431	WORD	n/a	wordpools/wordpool_EN.txt	TRAIN	10	4	n/a	n/a	pyFR	3	UP045
513.011	2.601	584714	WORD	n/a	wordpools/wordpool_EN.txt	PEAR	11	4	n/a	n/a	pyFR	3	UP045
515.612	2.833	586015	WORD	n/a	wordpools/wordpool_EN.txt	POOL	12	4	n/a	n/a	pyFR	3	UP045
518.445	2.834	587431	WORD	n/a	wordpools/wordpool_EN.txt	TAIL	13	4	n/a	n/a	pyFR	3	UP045
521.279	2.5	588848	WORD	n/a	wordpools/wordpool_EN.txt	POND	14	4	n/a	n/a	pyFR	3	UP045
523.779	1.618	590098	WORD	n/a	wordpools/wordpool_EN.txt	CROWN	15	4	n/a	n/a	pyFR	3	UP045
525.397	1.164	590907	START	n/a	n/a	n/a	n/a	4	[-999 -999 -999]	-999	pyFR	3	UP045
526.561	6.649	591489	PROB	6.617	n/a	n/a	n/a	4	[5 1 3]	11	pyFR	3	UP045
533.21	5.669	594814	PROB	5.632	n/a	n/a	n/a	4	[5 3 7]	14	pyFR	3	UP045
538.879	1.865	597648	PROB	1.834	n/a	n/a	n/a	4	[4 4 1]	9	pyFR	3	UP045
540.744	6.73	598581	PROB	6.73	n/a	n/a	n/a	4	[5 7 8]	21	pyFR	3	UP045
547.474	1.14	601946	STOP	n/a	n/a	n/a	n/a	4	[-999 -999 -999]	-999	pyFR	3	UP045
548.614	0.0	602516	REC_START	n/a	n/a	n/a	-999	4	n/a	n/a	pyFR	3	UP045
548.614	2.566	602516	REC_WORD_VV	0.0	n/a	<>	-999	4	n/a	n/a	pyFR	3	UP045
551.18	0.752	603799	REC_WORD	2.566	n/a	BLOOM	-999	4	n/a	n/a	pyFR	3	UP045
551.932	0.869	604175	REC_WORD	3.318	n/a	HAT	-999	4	n/a	n/a	pyFR	3	UP045
552.801	0.694	604609	REC_WORD	4.187	n/a	PINK	-999	4	n/a	n/a	pyFR	3	UP045
553.495	2.29	604956	REC_WORD	4.881	n/a	PEARL	-999	4	n/a	n/a	pyFR	3	UP045
555.785	0.955	606101	REC_WORD	7.171	n/a	WATER	-999	4	n/a	n/a	pyFR	3	UP045
556.74	6.253	606579	REC_WORD	8.126	n/a	TALL	-999	4	n/a	n/a	pyFR	3	UP045
562.993	2.769	609705	REC_WORD	14.379	n/a	WHALE	-999	4	n/a	n/a	pyFR	3	UP045
565.762	0.746	611090	REC_WORD	17.148	n/a	SHARK	-999	4	n/a	n/a	pyFR	3	UP045
566.508	8.079	611463	REC_WORD	17.894	n/a	SPONGE	-999	4	n/a	n/a	pyFR	3	UP045
574.587	3.092	615502	REC_WORD	25.973	n/a	TIME	-999	4	n/a	n/a	pyFR	3	UP045
577.679	5.64	617048	REC_WORD	29.065	n/a	CRAB	-999	4	n/a	n/a	pyFR	3	UP045
583.319	13.062	619868	REC_WORD	34.705	n/a	HOME	-999	4	n/a	n/a	pyFR	3	UP045
596.381	0.017	626399	TRIAL	n/a	n/a	n/a	-999	5	n/a	n/a	pyFR	3	UP045
596.398	2.716	626407	ORIENT	n/a	n/a	n/a	-999	5	n/a	n/a	pyFR	3	UP045
599.114	2.435	627765	WORD	n/a	wordpools/wordpool_EN.txt	DOCK	1	5	n/a	n/a	pyFR	3	UP045
601.549	2.466	628983	WORD	n/a	wordpools/wordpool_EN.txt	CHIN	2	5	n/a	n/a	pyFR	3	UP045
604.015	2.683	630216	WORD	n/a	wordpools/wordpool_EN.txt	FISH	3	5	n/a	n/a	pyFR	3	UP045
606.698	2.8	631557	WORD	n/a	wordpools/wordpool_EN.txt	EEL	4	5	n/a	n/a	pyFR	3	UP045
609.498	2.65	632957	WORD	n/a	wordpools/wordpool_EN.txt	SNOW	5	5	n/a	n/a	pyFR	3	UP045
612.148	2.8	634282	WORD	n/a	wordpools/wordpool_EN.txt	SEAL	6	5	n/a	n/a	pyFR	3	UP045
614.948	2.585	635682	WORD	n/a	wordpools/wordpool_EN.txt	BAND	7	5	n/a	n/a	pyFR	3	UP045
617.533	2.665	636975	WORD	n/a	wordpools/wordpool_EN.txt	SLIME	8	5	n/a	n/a	pyFR	3	UP045
620.198	2.734	638307	WORD	n/a	wordpools/wordpool_EN.txt	MAP	9	5	n/a	n/a	pyFR	3	UP045
622.932	2.65	639674	WORD	n/a	wordpools/wordpool_EN.txt	BALL	10	5	n/a	n/a	pyFR	3	UP045
625.582	2.633	640999	WORD	n/a	wordpools/wordpool_EN.txt	ROOT	11	5	n/a	n/a	pyFR	3	UP045
628.215	2.784	642316	WORD	n/a	wordpools/wordpool_EN.txt	SHARK	12	5	n/a	n/a	pyFR	3	UP045
630.999	2.551	643708	WORD	n/a	wordpools/wordpool_EN.txt	SINK	13	5	n/a	n/a	pyFR	3	UP045
633.55	2.432	644983	WORD	n/a	wordpools/wordpool_EN.txt	STEM	14	5	n/a	n/a	pyFR	3	UP045
635.982	1.619	646199	WORD	n/a	wordpools/wordpool_EN.txt	MAZE	15	5	n/a	n/a	pyFR	3	UP045
637.601	0.846	647009	START	n/a	n/a	n/a	n/a	5	[-999 -999 -999]	-999	pyFR	3	UP045
638.447	4.534	647432	PROB	4.503	n/a	n/a	n/a	5	[5 1 2]	8	pyFR	3	UP045
642.981	2.016	649699	PROB	1.985	n/a	n/a	n/a	5	[3 3 6]	12	pyFR	3	UP045
644.997	3.236	650707	PROB	3.209	n/a	n/a	n/a	5	[2 6 2]	10	pyFR	3	UP045
648.233	3.165	652325	PROB	3.133	n/a	n/a	n/a	5	[2 3 5]	10	pyFR	3	UP045
651.398	6.085	653907	PROB	6.056	n/a	n/a	n/a	5	[9 6 7]	22	pyFR	3	UP045
657.483	2.715	656950	PROB	2.715	n/a	n/a	n/a	5	[4 2 1]	7	pyFR	3	UP045
660.198	1.236	658307	STOP	n/a	n/a	n/a	n/a	5	[-999 -999 -999]	-999	pyFR	3	UP045
661.434	3.023	658925	REC_START	n/a	n/a	n/a	-999	5	n/a	n/a	pyFR	3	UP045
664.457	1.681	660437	REC_WORD	3.023	n/a	SINK	-999	5	n/a	n/a	pyFR	3	UP045
666.138	1.228	661277	REC_WORD	4.704	n/a	EEL	-999	5	n/a	n/a	pyFR	3	UP045
667.366	1.44	661891	REC_WORD	5.932	n/a	ALERT	-999	5	n/a	n/a	pyFR	3	UP045
668.806	2.946	662611	REC_WORD	7.372	n/a	TIME	-999	5	n/a	n/a	pyFR	3	UP045
671.752	1.866	664084	REC_WORD	10.318	n/a	FORCE	-999	5	n/a	n/a	pyFR	3	UP045
673.618	3.822	665017	REC_WORD	12.184	n/a	PUSH	-999	5	n/a	n/a	pyFR	3	UP045
677.44	9.003	666928	REC_WORD	16.006	n/a	HEIST	-999	5	n/a	n/a	pyFR	3	UP045
686.443	8.36	671430	REC_WORD	25.009	n/a	RIGHTS	-999	5	n/a	n/a	pyFR	3	UP045
694.803	13.665	675610	REC_WORD	33.369	n/a	SIGN	-999	5	n/a	n/a	pyFR	3	UP045
708.468	0.017	682442	TRIAL	n/a	n/a	n/a	-999	6	n/a	n/a	pyFR	3	UP045
708.485	2.983	682451	ORIENT	n/a	n/a	n/a	-999	6	n/a	n/a	pyFR	3	UP045
711.468	2.517	683942	WORD	n/a	wordpools/wordpool_EN.txt	SUN	1	6	n/a	n/a	pyFR	3	UP045
713.985	2.75	685201	WORD	n/a	wordpools/wordpool_EN.txt	DAD	2	6	n/a	n/a	pyFR	3	UP045
716.735	2.6	686576	WORD	n/a	wordpools/wordpool_EN.txt	TOOL	3	6	n/a	n/a	pyFR	3	UP045
719.335	2.584	687876	WORD	n/a	wordpools/wordpool_EN.txt	CAGE	4	6	n/a	n/a	pyFR	3	UP045
721.919	2.617	689168	WORD	n/a	wordpools/wordpool_EN.txt	SHELL	5	6	n/a	n/a	pyFR	3	UP045
724.536	2.633	690476	WORD	n/a	wordpools/wordpool_EN.txt	CORD	6	6	n/a	n/a	pyFR	3	UP045
727.169	2.466	691793	WORD	n/a	wordpools/wordpool_EN.txt	BEAR	7	6	n/a	n/a	pyFR	3	UP045
729.635	2.517	693026	WORD	n/a	wordpools/wordpool_EN.txt	CAKE	8	6	n/a	n/a	pyFR	3	UP045
732.152	2.534	694284	WORD	n/a	wordpools/wordpool_EN.txt	FLAME	9	6	n/a	n/a	pyFR	3	UP045
734.686	2.7	695551	WORD	n/a	wordpools/wordpool_EN.txt	SPOON	10	6	n/a	n/a	pyFR	3	UP045
737.386	2.633	696901	WORD	n/a	wordpools/wordpool_EN.txt	CALF	11	6	n/a	n/a	pyFR	3	UP045
740.019	2.5	698218	WORD	n/a	wordpools/wordpool_EN.txt	WING	12	6	n/a	n/a	pyFR	3	UP045
742.519	2.567	699468	WORD	n/a	wordpools/wordpool_EN.txt	FOOD	13	6	n/a	n/a	pyFR	3	UP045
745.086	2.717	700751	WORD	n/a	wordpools/wordpool_EN.txt	SAIL	14	6	n/a	n/a	pyFR	3	UP045
747.803	1.618	702110	WORD	n/a	wordpools/wordpool_EN.txt	PEACH	15	6	n/a	n/a	pyFR	3	UP045
749.421	1.163	702919	START	n/a	n/a	n/a	n/a	6	[-999 -999 -999]	-999	pyFR	3	UP045
750.584	11.567	703500	PROB	11.53	n/a	n/a	n/a	6	[1 8 2]	11	pyFR	3	UP045
762.151	3.636	709284	PROB	3.611	n/a	n/a	n/a	6	[3 8 8]	19	pyFR	3	UP045
765.787	5.567	711102	PROB	5.567	n/a	n/a	n/a	6	[7 6 9]	14	pyFR	3	UP045
771.354	1.185	713885	STOP	n/a	n/a	n/a	n/a	6	[-999 -999 -999]	-999	pyFR	3	UP045
772.539	2.713	714478	REC_START	n/a	n/a	n/a	-999	6	n/a	n/a	pyFR	3	UP045
775.252	0.702	715834	REC_WORD	2.713	n/a	NINE	-999	6	n/a	n/a	pyFR	3	UP045
775.954	18.946	716185	REC_WORD	3.415	n/a	SAIL	-999	6	n/a	n/a	pyFR	3	UP045
794.9	1.407	725658	REC_WORD	22.361	n/a	HEIST	-999	6	n/a	n/a	pyFR	3	UP045
796.307	9.837	726362	REC_WORD	23.768	n/a	TAKE	-999	6	n/a	n/a	pyFR	3	UP045
806.144	5.675	731280	REC_WORD	33.605	n/a	MATCH	-999	6	n/a	n/a	pyFR	3	UP045
811.819	7.803	734118	REC_WORD	39.28	n/a	WHALE	-999	6	n/a	n/a	pyFR	3	UP045
819.622	0.017	738019	TRIAL	n/a	n/a	n/a	-999	7	n/a	n/a	pyFR	3	UP045
819.639	2.733	738027	ORIENT	n/a	n/a	n/a	-999	7	n/a	n/a	pyFR	3	UP045
822.372	2.717	739394	WORD	n/a	wordpools/wordpool_EN.txt	FLEA	1	7	n/a	n/a	pyFR	3	UP045
825.089	2.566	740752	WORD	n/a	wordpools/wordpool_EN.txt	HOLE	2	7	n/a	n/a	pyFR	3	UP045
827.655	2.75	742035	WORD	n/a	wordpools/wordpool_EN.txt	FENCE	3	7	n/a	n/a	pyFR	3	UP045
830.405	2.584	743410	WORD	n/a	wordpools/wordpool_EN.txt	SLEEVE	4	7	n/a	n/a	pyFR	3	UP045
832.989	2.551	744702	WORD	n/a	wordpools/wordpool_EN.txt	FILM	5	7	n/a	n/a	pyFR	3	UP045
835.54	2.532	745978	WORD	n/a	wordpools/wordpool_EN.txt	FOOT	6	7	n/a	n/a	pyFR	3	UP045
838.072	2.751	747244	WORD	n/a	wordpools/wordpool_EN.txt	PARK	7	7	n/a	n/a	pyFR	3	UP045
840.823	2.717	748619	WORD	n/a	wordpools/wordpool_EN.txt	ANT	8	7	n/a	n/a	pyFR	3	UP045
843.54	2.749	749978	WORD	n/a	wordpools/wordpool_EN.txt	SHIP	9	7	n/a	n/a	pyFR	3	UP045
846.289	2.617	751352	WORD	n/a	wordpools/wordpool_EN.txt	BRICK	10	7	n/a	n/a	pyFR	3	UP045
848.906	2.651	752661	WORD	n/a	wordpools/wordpool_EN.txt	HOOK	11	7	n/a	n/a	pyFR	3	UP045
851.557	2.599	753986	WORD	n/a	wordpools/wordpool_EN.txt	HORN	12	7	n/a	n/a	pyFR	3	UP045
854.156	2.75	755286	WORD	n/a	wordpools/wordpool_EN.txt	BOMB	13	7	n/a	n/a	pyFR	3	UP045
856.906	2.45	756661	WORD	n/a	wordpools/wordpool_EN.txt	JEEP	14	7	n/a	n/a	pyFR	3	UP045
859.356	1.619	757886	WORD	n/a	wordpools/wordpool_EN.txt	MAT	15	7	n/a	n/a	pyFR	3	UP045
860.975	1.18	758695	START	n/a	n/a	n/a	n/a	7	[-999 -999 -999]	-999	pyFR	3	UP045
862.155	9.25	759285	PROB	9.219	n/a	n/a	n/a	7	[7 8 9]	26	pyFR	3	UP045
871.405	6.434	763910	PROB	6.401	n/a	n/a	n/a	7	[5 4 4]	13	pyFR	3	UP045
877.839	9.335	767127	PROB	9.335	n/a	n/a	n/a	7	[9 2 5]	16	pyFR	3	UP045
887.174	1.251	771795	STOP	n/a	n/a	n/a	n/a	7	[-999 -999 -999]	-999	pyFR	3	UP045
888.425	2.548	772420	REC_START	n/a	n/a	n/a	-999	7	n/a	n/a	pyFR	3	UP045
890.973	0.832	773694	REC_WORD	2.548	n/a	FLY	-999	7	n/a	n/a	pyFR	3	UP045
891.805	0.802	774110	REC_WORD	3.38	n/a	HEEL	-999	7	n/a	n/a	pyFR	3	UP045
892.607	0.812	774511	REC_WORD	4.182	n/a	BURN	-999	7	n/a	n/a	pyFR	3	UP045
893.419	0.99	774917	REC_WORD	4.994	n/a	FOLLOW	-999	7	n/a	n/a	pyFR	3	UP045
894.409	41.417	775412	REC_WORD	5.984	n/a	STAR	-999	7	n/a	n/a	pyFR	3	UP045
935.826	0.016	796121	TRIAL	n/a	n/a	n/a	-999	8	n/a	n/a	pyFR	3	UP045
935.842	3.034	796129	ORIENT	n/a	n/a	n/a	-999	8	n/a	n/a	pyFR	3	UP045
938.876	2.483	797646	WORD	n/a	wordpools/wordpool_EN.txt	PIN	1	8	n/a	n/a	pyFR	3	UP045
941.359	2.75	798887	WORD	n/a	wordpools/wordpool_EN.txt	WEB	2	8	n/a	n/a	pyFR	3	UP045
944.109	2.435	800262	WORD	n/a	wordpools/wordpool_EN.txt	SPRING	3	8	n/a	n/a	pyFR	3	UP045
946.544	2.482	801480	WORD	n/a	wordpools/wordpool_EN.txt	LEAF	4	8	n/a	n/a	pyFR	3	UP045
949.026	2.45	802721	WORD	n/a	wordpools/wordpool_EN.txt	WEED	5	8	n/a	n/a	pyFR	3	UP045
951.476	2.65	803946	WORD	n/a	wordpools/wordpool_EN.txt	PEN	6	8	n/a	n/a	pyFR	3	UP045
954.126	2.7	805271	WORD	n/a	wordpools/wordpool_EN.txt	BEAK	7	8	n/a	n/a	pyFR	3	UP045
956.826	2.784	806621	WORD	n/a	wordpools/wordpool_EN.txt	SQUARE	8	8	n/a	n/a	pyFR	3	UP045
959.61	2.565	808013	WORD	n/a	wordpools/wordpool_EN.txt	STAR	9	8	n/a	n/a	pyFR	3	UP045
962.175	2.468	809295	WORD	n/a	wordpools/wordpool_EN.txt	LAMP	10	8	n/a	n/a	pyFR	3	UP045
964.643	2.65	810529	WORD	n/a	wordpools/wordpool_EN.txt	SCHOOL	11	8	n/a	n/a	pyFR	3	UP045
967.293	2.517	811854	WORD	n/a	wordpools/wordpool_EN.txt	SNAIL	12	8	n/a	n/a	pyFR	3	UP045
969.81	2.751	813113	WORD	n/a	wordpools/wordpool_EN.txt	PALM	13	8	n/a	n/a	pyFR	3	UP045
972.561	2.633	814488	WORD	n/a	wordpools/wordpool_EN.txt	DOG	14	8	n/a	n/a	pyFR	3	UP045
975.194	1.618	815805	WORD	n/a	wordpools/wordpool_EN.txt	HEN	15	8	n/a	n/a	pyFR	3	UP045
976.812	1.13	816614	START	n/a	n/a	n/a	n/a	8	[-999 -999 -999]	-999	pyFR	3	UP045
977.942	4.935	817179	PROB	4.9	n/a	n/a	n/a	8	[9 4 9]	24	pyFR	3	UP045
982.877	3.715	819646	PROB	3.686	n/a	n/a	n/a	8	[1 5 4]	10	pyFR	3	UP045
986.592	8.567	821504	PROB	8.538	n/a	n/a	n/a	8	[5 4 2]	11	pyFR	3	UP045
995.159	2.203	825787	PROB	2.203	n/a	n/a	n/a	8	[7 3 9]	19	pyFR	3	UP045
997.362	1.117	826889	STOP	n/a	n/a	n/a	n/a	8	[-999 -999 -999]	-999	pyFR	3	UP045
998.479	0.938	827447	REC_START	n/a	n/a	n/a	-999	8	n/a	n/a	pyFR	3	UP045
999.417	1.965	827916	REC_WORD	0.938	n/a	FLY	-999	8	n/a	n/a	pyFR	3	UP045
1001.382	7.63	828899	REC_WORD	2.903	n/a	FALL	-999	8	n/a	n/a	pyFR	3	UP045
1009.012	37.519	832714	REC_WORD	10.533	n/a	SNAIL	-999	8	n/a	n/a	pyFR	3	UP045
1046.531	0.016	851473	TRIAL	n/a	n/a	n/a	-999	9	n/a	n/a	pyFR	3	UP045
1046.547	2.966	851481	ORIENT	n/a	n/a	n/a	-999	9	n/a	n/a	pyFR	3	UP045
1049.513	2.483	852964	WORD	n/a	wordpools/wordpool_EN.txt	ROCK	1	9	n/a	n/a	pyFR	3	UP045
1051.996	2.484	854206	WORD	n/a	wordpools/wordpool_EN.txt	ROOF	2	9	n/a	n/a	pyFR	3	UP045
1054.48	2.783	855447	WORD	n/a	wordpools/wordpool_EN.txt	LAKE	3	9	n/a	n/a	pyFR	3	UP045
1057.263	2.7	856839	WORD	n/a	wordpools/wordpool_EN.txt	PLANT	4	9	n/a	n/a	pyFR	3	UP045
1059.963	2.717	858189	WORD	n/a	wordpools/wordpool_EN.txt	BUSH	5	9	n/a	n/a	pyFR	3	UP045
1062.68	2.517	859547	WORD	n/a	wordpools/wordpool_EN.txt	ICE	6	9	n/a	n/a	pyFR	3	UP045
1065.197	2.699	860806	WORD	n/a	wordpools/wordpool_EN.txt	PURSE	7	9	n/a	n/a	pyFR	3	UP045
1067.896	2.551	862155	WORD	n/a	wordpools/wordpool_EN.txt	CHAIR	8	9	n/a	n/a	pyFR	3	UP045
1070.447	2.817	863431	WORD	n/a	wordpools/wordpool_EN.txt	COIN	9	9	n/a	n/a	pyFR	3	UP045
1073.264	2.483	864839	WORD	n/a	wordpools/wordpool_EN.txt	GLASS	10	9	n/a	n/a	pyFR	3	UP045
1075.747	2.734	866081	WORD	n/a	wordpools/wordpool_EN.txt	MOTH	11	9	n/a	n/a	pyFR	3	UP045
1078.481	2.483	867448	WORD	n/a	wordpools/wordpool_EN.txt	PIG	12	9	n/a	n/a	pyFR	3	UP045
1080.964	2.483	868689	WORD	n/a	wordpools/wordpool_EN.txt	RAT	13	9	n/a	n/a	pyFR	3	UP045
1083.447	2.767	869931	WORD	n/a	wordpools/wordpool_EN.txt	STOVE	14	9	n/a	n/a	pyFR	3	UP045
1086.214	1.618	871314	WORD	n/a	wordpools/wordpool_EN.txt	SEA	15	9	n/a	n/a	pyFR	3	UP045
1087.832	1.114	872123	START	n/a	n/a	n/a	n/a	9	[-999 -999 -999]	-999	pyFR	3	UP045
1088.946	6.35	872680	PROB	6.324	n/a	n/a	n/a	9	[8 8 5]	21	pyFR	3	UP045
1095.296	4.85	875855	PROB	4.814	n/a	n/a	n/a	9	[1 7 2]	10	pyFR	3	UP045
1100.146	2.983	878280	PROB	2.948	n/a	n/a	n/a	9	[2 3 1]	6	pyFR	3	UP045
1103.129	4.402	879772	PROB	4.373	n/a	n/a	n/a	9	[9 2 5]	16	pyFR	3	UP045
1107.531	2.827	881973	PROB	2.827	n/a	n/a	n/a	9	[8 5 8]	21	pyFR	3	UP045
1110.358	1.175	883386	STOP	n/a	n/a	n/a	n/a	9	[-999 -999 -999]	-999	pyFR	3	UP045
1111.533	1.496	883974	REC_START	n/a	n/a	n/a	-999	9	n/a	n/a	pyFR	3	UP045
1113.029	2.525	884722	REC_WORD	1.496	n/a	PEACH	-999	9	n/a	n/a	pyFR	3	UP045
1115.554	0.893	885984	REC_WORD	4.021	n/a	FUR	-999	9	n/a	n/a	pyFR	3	UP045
1116.447	1.732	886431	REC_WORD	4.914	n/a	COME	-999	9	n/a	n/a	pyFR	3	UP045
1118.179	4.579	887297	REC_WORD	6.646	n/a	TIME	-999	9	n/a	n/a	pyFR	3	UP045
1122.758	301.568	889586	REC_WORD	11.225	n/a	TRACK	-999	9	n/a	n/a	pyFR	3	UP045
1424.326	0.016	1040370	TRIAL	n/a	n/a	n/a	-999	10	n/a	n/a	pyFR	3	UP045
1424.342	2.784	1040378	ORIENT	n/a	n/a	n/a	-999	10	n/a	n/a	pyFR	3	UP045
1427.126	2.549	1041770	WORD	n/a	wordpools/wordpool_EN.txt	THUMB	1	10	n/a	n/a	pyFR	3	UP045
1429.675	2.634	1043044	WORD	n/a	wordpools/wordpool_EN.txt	DRESS	2	10	n/a	n/a	pyFR	3	UP045
1432.309	2.817	1044361	WORD	n/a	wordpools/wordpool_EN.txt	VINE	3	10	n/a	n/a	pyFR	3	UP045
1435.126	2.633	1045770	WORD	n/a	wordpools/wordpool_EN.txt	APE	4	10	n/a	n/a	pyFR	3	UP045
1437.759	2.517	1047086	WORD	n/a	wordpools/wordpool_EN.txt	STREET	5	10	n/a	n/a	pyFR	3	UP045
1440.276	2.816	1048345	WORD	n/a	wordpools/wordpool_EN.txt	SHRIMP	6	10	n/a	n/a	pyFR	3	UP045
1443.092	2.767	1049753	WORD	n/a	wordpools/wordpool_EN.txt	CUP	7	10	n/a	n/a	pyFR	3	UP045
1445.859	2.484	1051136	WORD	n/a	wordpools/wordpool_EN.txt	TRUCK	8	10	n/a	n/a	pyFR	3	UP045
1448.343	2.433	1052378	WORD	n/a	wordpools/wordpool_EN.txt	OAK	9	10	n/a	n/a	pyFR	3	UP045
1450.776	2.5	1053595	WORD	n/a	wordpools/wordpool_EN.txt	VASE	10	10	n/a	n/a	pyFR	3	UP045
1453.276	2.6	1054845	WORD	n/a	wordpools/wordpool_EN.txt	SOCK	11	10	n/a	n/a	pyFR	3	UP045
1455.876	2.734	1056145	WORD	n/a	wordpools/wordpool_EN.txt	CAVE	12	10	n/a	n/a	pyFR	3	UP045
1458.61	2.667	1057512	WORD	n/a	wordpools/wordpool_EN.txt	JET	13	10	n/a	n/a	pyFR	3	UP045
1461.277	2.616	1058845	WORD	n/a	wordpools/wordpool_EN.txt	HOSE	14	10	n/a	n/a	pyFR	3	UP045
1463.893	1.619	1060153	WORD	n/a	wordpools/wordpool_EN.txt	SOUP	15	10	n/a	n/a	pyFR	3	UP045
1465.512	0.946	1060963	START	n/a	n/a	n/a	n/a	10	[-999 -999 -999]	-999	pyFR	3	UP045
1466.458	2.65	1061436	PROB	2.623	n/a	n/a	n/a	10	[1 5 5]	11	pyFR	3	UP045
1469.108	2.169	1062761	PROB	2.141	n/a	n/a	n/a	10	[5 1 6]	12	pyFR	3	UP045
1471.277	4.482	1063845	PROB	4.444	n/a	n/a	n/a	10	[8 6 3]	17	pyFR	3	UP045
1475.759	1.85	1066086	PROB	1.826	n/a	n/a	n/a	10	[6 6 1]	13	pyFR	3	UP045
1477.609	4.835	1067011	PROB	4.8	n/a	n/a	n/a	10	[7 5 1]	13	pyFR	3	UP045
1482.444	5.493	1069429	PROB	5.493	n/a	n/a	n/a	10	[2 9 4]	15	pyFR	3	UP045
1487.937	1.158	1072175	STOP	n/a	n/a	n/a	n/a	10	[-999 -999 -999]	-999	pyFR	3	UP045
1489.095	3.245	1072754	REC_START	n/a	n/a	n/a	-999	10	n/a	n/a	pyFR	3	UP045
1492.34	1.408	1074377	REC_WORD	3.245	n/a	SEAT	-999	10	n/a	n/a	pyFR	3	UP045
1493.748	3.35	1075081	REC_WORD	4.653	n/a	TIME	-999	10	n/a	n/a	pyFR	3	UP045
1497.098	17.271	1076756	REC_WORD	8.003	n/a	WALK	-999	10	n/a	n/a	pyFR	3	UP045
1514.369	1.0	1085391	REC_WORD	25.274	n/a	THUMB	-999	10	n/a	n/a	pyFR	3	UP045
1515.369	4.936	1085891	REC_WORD	26.274	n/a	WRIST	-999	10	n/a	n/a	pyFR	3	UP045
1520.305	2.052	1088359	REC_WORD	31.21	n/a	FLOWERS	-999	10	n/a	n/a	pyFR	3	UP045
1522.357	6.633	1089385	REC_WORD	33.262	n/a	PLUM	-999	10	n/a	n/a	pyFR	3	UP045
1528.99	7.256	1092702	REC_WORD_VV	39.895	n/a	<>	-999	10	n/a	n/a	pyFR	3	UP045
1536.246	0.016	1096329	TRIAL	n/a	n/a	n/a	-999	11	n/a	n/a	pyFR	3	UP045
1536.262	2.932	1096337	ORIENT	n/a	n/a	n/a	-999	11	n/a	n/a	pyFR	3	UP045
1539.194	2.469	1097803	WORD	n/a	wordpools/wordpool_EN.txt	SHEET	1	11	n/a	n/a	pyFR	3	UP045
1541.663	2.8	1099038	WORD	n/a	wordpools/wordpool_EN.txt	PET	2	11	n/a	n/a	pyFR	3	UP045
1544.463	2.816	1100438	WORD	n/a	wordpools/wordpool_EN.txt	VAN	3	11	n/a	n/a	pyFR	3	UP045
1547.279	2.817	1101846	WORD	n/a	wordpools/wordpool_EN.txt	STRAW	4	11	n/a	n/a	pyFR	3	UP045
1550.096	2.633	1103254	WORD	n/a	wordpools/wordpool_EN.txt	GRAPE	5	11	n/a	n/a	pyFR	3	UP045
1552.729	2.601	1104571	WORD	n/a	wordpools/wordpool_EN.txt	WALL	6	11	n/a	n/a	pyFR	3	UP045
1555.33	2.433	1105871	WORD	n/a	wordpools/wordpool_EN.txt	WOLF	7	11	n/a	n/a	pyFR	3	UP045
1557.763	2.55	1107088	WORD	n/a	wordpools/wordpool_EN.txt	PLANE	8	11	n/a	n/a	pyFR	3	UP045
1560.313	2.666	1108363	WORD	n/a	wordpools/wordpool_EN.txt	CLOWN	9	11	n/a	n/a	pyFR	3	UP045
1562.979	2.434	1109696	WORD	n/a	wordpools/wordpool_EN.txt	MILK	10	11	n/a	n/a	pyFR	3	UP045
1565.413	2.684	1110913	WORD	n/a	wordpools/wordpool_EN.txt	BOX	11	11	n/a	n/a	pyFR	3	UP045
1568.097	2.483	1112255	WORD	n/a	wordpools/wordpool_EN.txt	MOOSE	12	11	n/a	n/a	pyFR	3	UP045
1570.58	2.5	1113496	WORD	n/a	wordpools/wordpool_EN.txt	RICE	13	11	n/a	n/a	pyFR	3	UP045
1573.08	2.684	1114746	WORD	n/a	wordpools/wordpool_EN.txt	FOX	14	11	n/a	n/a	pyFR	3	UP045
1575.764	1.618	1116088	WORD	n/a	wordpools/wordpool_EN.txt	CAR	15	11	n/a	n/a	pyFR	3	UP045
1577.382	1.063	1116897	START	n/a	n/a	n/a	n/a	11	[-999 -999 -999]	-999	pyFR	3	UP045
1578.445	4.484	1117429	PROB	4.447	n/a	n/a	n/a	11	[6 2 8]	16	pyFR	3	UP045
1582.929	4.95	1119671	PROB	4.924	n/a	n/a	n/a	11	[4 9 5]	18	pyFR	3	UP045
1587.879	4.67	1122146	PROB	4.63	n/a	n/a	n/a	11	[2 9 1]	12	pyFR	3	UP045
1592.549	2.514	1124481	PROB	2.488	n/a	n/a	n/a	11	[1 4 4]	9	pyFR	3	UP045
1595.063	3.27	1125738	PROB	3.27	n/a	n/a	n/a	11	[4 2 8]	14	pyFR	3	UP045
1598.333	1.116	1127373	STOP	n/a	n/a	n/a	n/a	11	[-999 -999 -999]	-999	pyFR	3	UP045
1599.449	2.187	1127931	REC_START	n/a	n/a	n/a	-999	11	n/a	n/a	pyFR	3	UP045
1601.636	1.089	1129024	REC_WORD	2.187	n/a	ENJOY	-999	11	n/a	n/a	pyFR	3	UP045
1602.725	0.926	1129569	REC_WORD	3.276	n/a	HEARSE	-999	11	n/a	n/a	pyFR	3	UP045
1603.651	1.067	1130032	REC_WORD	4.202	n/a	PRESSURE	-999	11	n/a	n/a	pyFR	3	UP045
1604.718	3.614	1130565	REC_WORD	5.269	n/a	TIME	-999	11	n/a	n/a	pyFR	3	UP045
1608.332	1.009	1132372	REC_WORD	8.883	n/a	SIT	-999	11	n/a	n/a	pyFR	3	UP045
1609.341	7.409	1132877	REC_WORD	9.892	n/a	WOLF	-999	11	n/a	n/a	pyFR	3	UP045
1616.75	5.269	1136581	REC_WORD	17.301	n/a	HOME	-999	11	n/a	n/a	pyFR	3	UP045
1622.019	3.852	1139216	REC_WORD	22.57	n/a	ENJOY	-999	11	n/a	n/a	pyFR	3	UP045
1625.871	4.662	1141142	REC_WORD	26.422	n/a	CAPTURE	-999	11	n/a	n/a	pyFR	3	UP045
1630.533	1.579	1143473	REC_WORD	31.084	n/a	STRAW	-999	11	n/a	n/a	pyFR	3	UP045
1632.112	3.278	1144262	REC_WORD	32.663	n/a	FARM	-999	11	n/a	n/a	pyFR	3	UP045
1635.39	7.052	1145901	REC_WORD	35.941	n/a	LEAF	-999	11	n/a	n/a	pyFR	3	UP045
1642.442	3.924	1149427	REC_WORD	42.993	n/a	CAT	-999	11	n/a	n/a	pyFR	3	UP045
1646.366	0.017	1151389	TRIAL	n/a	n/a	n/a	-999	12	n/a	n/a	pyFR	3	UP045
1646.383	3.0	1151398	ORIENT	n/a	n/a	n/a	-999	12	n/a	n/a	pyFR	3	UP045
1649.383	2.45	1152898	WORD	n/a	wordpools/wordpool_EN.txt	YARD	1	12	n/a	n/a	pyFR	3	UP045
1651.833	2.582	1154123	WORD	n/a	wordpools/wordpool_EN.txt	SKUNK	2	12	n/a	n/a	pyFR	3	UP045
1654.415	2.766	1155414	WORD	n/a	wordpools/wordpool_EN.txt	ROOM	3	12	n/a	n/a	pyFR	3	UP045
1657.181	2.519	1156797	WORD	n/a	wordpools/wordpool_EN.txt	MOON	4	12	n/a	n/a	pyFR	3	UP045
1659.7	2.45	1158056	WORD	n/a	wordpools/wordpool_EN.txt	ELF	5	12	n/a	n/a	pyFR	3	UP045
1662.15	2.6	1159281	WORD	n/a	wordpools/wordpool_EN.txt	KING	6	12	n/a	n/a	pyFR	3	UP045
1664.75	2.7	1160581	WORD	n/a	wordpools/wordpool_EN.txt	STICK	7	12	n/a	n/a	pyFR	3	UP045
1667.45	2.434	1161931	WORD	n/a	wordpools/wordpool_EN.txt	TOAST	8	12	n/a	n/a	pyFR	3	UP045
1669.884	2.516	1163148	WORD	n/a	wordpools/wordpool_EN.txt	COAT	9	12	n/a	n/a	pyFR	3	UP045
1672.4	2.617	1164406	WORD	n/a	wordpools/wordpool_EN.txt	BANK	10	12	n/a	n/a	pyFR	3	UP045
1675.017	2.782	1165715	WORD	n/a	wordpools/wordpool_EN.txt	COUCH	11	12	n/a	n/a	pyFR	3	UP045
1677.799	2.585	1167106	WORD	n/a	wordpools/wordpool_EN.txt	MOUTH	12	12	n/a	n/a	pyFR	3	UP045
1680.384	2.566	1168398	WORD	n/a	wordpools/wordpool_EN.txt	BED	13	12	n/a	n/a	pyFR	3	UP045
1682.95	2.684	1169681	WORD	n/a	wordpools/wordpool_EN.txt	FLOOR	14	12	n/a	n/a	pyFR	3	UP045
1685.634	1.618	1171023	WORD	n/a	wordpools/wordpool_EN.txt	SEED	15	12	n/a	n/a	pyFR	3	UP045
1687.252	1.197	1171832	START	n/a	n/a	n/a	n/a	12	[-999 -999 -999]	-999	pyFR	3	UP045
1688.449	9.65	1172431	PROB	9.616	n/a	n/a	n/a	12	[2 5 4]	11	pyFR	3	UP045
1698.099	4.784	1177256	PROB	4.758	n/a	n/a	n/a	12	[7 8 6]	24	pyFR	3	UP045
1702.883	2.818	1179648	PROB	2.782	n/a	n/a	n/a	12	[1 7 3]	11	pyFR	3	UP045
1705.701	3.964	1181057	PROB	3.964	n/a	n/a	n/a	12	[2 7 4]	13	pyFR	3	UP045
1709.665	1.237	1183039	STOP	n/a	n/a	n/a	n/a	12	[-999 -999 -999]	-999	pyFR	3	UP045
1710.902	0.918	1183657	REC_START	n/a	n/a	n/a	-999	12	n/a	n/a	pyFR	3	UP045
1711.82	0.843	1184116	REC_WORD	0.918	n/a	FLOWER	-999	12	n/a	n/a	pyFR	3	UP045
1712.663	4.619	1184538	REC_WORD	1.761	n/a	BED	-999	12	n/a	n/a	pyFR	3	UP045
1717.282	1.689	1186847	REC_WORD	6.38	n/a	FARM	-999	12	n/a	n/a	pyFR	3	UP045
1718.971	0.742	1187692	REC_WORD	8.069	n/a	SOLD	-999	12	n/a	n/a	pyFR	3	UP045
1719.713	2.324	1188063	REC_WORD	8.811	n/a	TIME	-999	12	n/a	n/a	pyFR	3	UP045
1722.037	9.978	1189225	REC_WORD	11.135	n/a	ENJOY	-999	12	n/a	n/a	pyFR	3	UP045
1732.015	1.84	1194214	REC_WORD	21.113	n/a	SOFT	-999	12	n/a	n/a	pyFR	3	UP045
1733.855	2.112	1195134	REC_WORD	22.953	n/a	WOLF	-999	12	n/a	n/a	pyFR	3	UP045
1735.967	4.867	1196190	REC_WORD	25.065	n/a	HOUND	-999	12	n/a	n/a	pyFR	3	UP045
1740.834	4.011	1198623	REC_WORD	29.932	n/a	PRESSURE	-999	12	n/a	n/a	pyFR	3	UP045
1744.845	13.175	1200629	REC_WORD	33.943	n/a	FORCE	-999	12	n/a	n/a	pyFR	3	UP045
1758.02	0.017	1207216	TRIAL	n/a	n/a	n/a	-999	13	n/a	n/a	pyFR	3	UP045
1758.037	2.766	1207225	ORIENT	n/a	n/a	n/a	-999	13	n/a	n/a	pyFR	3	UP045
1760.803	2.467	1208608	WORD	n/a	wordpools/wordpool_EN.txt	VEST	1	13	n/a	n/a	pyFR	3	UP045
1763.27	2.567	1209841	WORD	n/a	wordpools/wordpool_EN.txt	HORSE	2	13	n/a	n/a	pyFR	3	UP045
1765.837	2.516	1211125	WORD	n/a	wordpools/wordpool_EN.txt	GOAT	3	13	n/a	n/a	pyFR	3	UP045
1768.353	2.6	1212383	WORD	n/a	wordpools/wordpool_EN.txt	CRANE	4	13	n/a	n/a	pyFR	3	UP045
1770.953	2.484	1213682	WORD	n/a	wordpools/wordpool_EN.txt	SPEAR	5	13	n/a	n/a	pyFR	3	UP045
1773.437	2.667	1214924	WORD	n/a	wordpools/wordpool_EN.txt	TIE	6	13	n/a	n/a	pyFR	3	UP045
1776.104	2.5	1216258	WORD	n/a	wordpools/wordpool_EN.txt	MULE	7	13	n/a	n/a	pyFR	3	UP045
1778.604	2.783	1217508	WORD	n/a	wordpools/wordpool_EN.txt	CHEEK	8	13	n/a	n/a	pyFR	3	UP045
1781.387	2.784	1218899	WORD	n/a	wordpools/wordpool_EN.txt	GEESE	9	13	n/a	n/a	pyFR	3	UP045
1784.171	2.616	1220291	WORD	n/a	wordpools/wordpool_EN.txt	CAT	10	13	n/a	n/a	pyFR	3	UP045
1786.787	2.684	1221599	WORD	n/a	wordpools/wordpool_EN.txt	SNAKE	11	13	n/a	n/a	pyFR	3	UP045
1789.471	2.816	1222941	WORD	n/a	wordpools/wordpool_EN.txt	LIP	12	13	n/a	n/a	pyFR	3	UP045
1792.287	2.701	1224349	WORD	n/a	wordpools/wordpool_EN.txt	FOAM	13	13	n/a	n/a	pyFR	3	UP045
1794.988	2.733	1225700	WORD	n/a	wordpools/wordpool_EN.txt	AXE	14	13	n/a	n/a	pyFR	3	UP045
1797.721	1.618	1227066	WORD	n/a	wordpools/wordpool_EN.txt	KITE	15	13	n/a	n/a	pyFR	3	UP045
1799.339	1.114	1227875	START	n/a	n/a	n/a	n/a	13	[-999 -999 -999]	-999	pyFR	3	UP045
1800.453	4.9	1228432	PROB	4.865	n/a	n/a	n/a	13	[3 9 9]	22	pyFR	3	UP045
1805.353	2.685	1230882	PROB	2.653	n/a	n/a	n/a	13	[4 1 6]	11	pyFR	3	UP045
1808.038	3.567	1232225	PROB	3.537	n/a	n/a	n/a	13	[9 5 4]	18	pyFR	3	UP045
1811.605	2.798	1234008	PROB	2.769	n/a	n/a	n/a	13	[7 8 9]	16	pyFR	3	UP045
1814.403	3.602	1235407	PROB	3.57	n/a	n/a	n/a	13	[4 8 2]	14	pyFR	3	UP045
1818.005	8.92	1237208	PROB	8.92	n/a	n/a	n/a	13	[8 5 8]	21	pyFR	3	UP045
1826.925	1.232	1241668	STOP	n/a	n/a	n/a	n/a	13	[-999 -999 -999]	-999	pyFR	3	UP045
1828.157	2.175	1242284	REC_START	n/a	n/a	n/a	-999	13	n/a	n/a	pyFR	3	UP045
1830.332	0.994	1243372	REC_WORD	2.175	n/a	TIME	-999	13	n/a	n/a	pyFR	3	UP045
1831.326	1.903	1243869	REC_WORD	3.169	n/a	SINK	-999	13	n/a	n/a	pyFR	3	UP045
1833.229	2.099	1244820	REC_WORD	5.072	n/a	IMPLODE	-999	13	n/a	n/a	pyFR	3	UP045
1835.328	7.699	1245870	REC_WORD	7.171	n/a	FORCE	-999	13	n/a	n/a	pyFR	3	UP045
1843.027	2.602	1249719	REC_WORD	14.87	n/a	HORSE	-999	13	n/a	n/a	pyFR	3	UP045
1845.629	9.829	1251020	REC_WORD	17.472	n/a	PINK	-999	13	n/a	n/a	pyFR	3	UP045
1855.458	0.582	1255935	REC_WORD	27.301	n/a	FARM	-999	13	n/a	n/a	pyFR	3	UP045
1856.04	15.725	1256226	REC_WORD	27.883	n/a	COW	-999	13	n/a	n/a	pyFR	3	UP045
1871.765	3.142	1264088	REC_WORD	43.608	n/a	POND	-999	13	n/a	n/a	pyFR	3	UP045
1874.907	0.017	1265659	TRIAL	n/a	n/a	n/a	-999	14	n/a	n/a	pyFR	3	UP045
1874.924	2.8	1265668	ORIENT	n/a	n/a	n/a	-999	14	n/a	n/a	pyFR	3	UP045
1877.724	2.6	1267068	WORD	n/a	wordpools/wordpool_EN.txt	SHIELD	1	14	n/a	n/a	pyFR	3	UP045
1880.324	2.767	1268368	WORD	n/a	wordpools/wordpool_EN.txt	CHALK	2	14	n/a	n/a	pyFR	3	UP045
1883.091	2.783	1269751	WORD	n/a	wordpools/wordpool_EN.txt	FUR	3	14	n/a	n/a	pyFR	3	UP045
1885.874	2.5	1271143	WORD	n/a	wordpools/wordpool_EN.txt	POLE	4	14	n/a	n/a	pyFR	3	UP045
1888.374	2.534	1272393	WORD	n/a	wordpools/wordpool_EN.txt	CART	5	14	n/a	n/a	pyFR	3	UP045
1890.908	2.566	1273660	WORD	n/a	wordpools/wordpool_EN.txt	HAT	6	14	n/a	n/a	pyFR	3	UP045
1893.474	2.434	1274943	WORD	n/a	wordpools/wordpool_EN.txt	LOCK	7	14	n/a	n/a	pyFR	3	UP045
1895.908	2.783	1276160	WORD	n/a	wordpools/wordpool_EN.txt	FACE	8	14	n/a	n/a	pyFR	3	UP045
1898.691	2.8	1277551	WORD	n/a	wordpools/wordpool_EN.txt	CANE	9	14	n/a	n/a	pyFR	3	UP045
1901.491	2.817	1278951	WORD	n/a	wordpools/wordpool_EN.txt	PEA	10	14	n/a	n/a	pyFR	3	UP045
1904.308	2.55	1280360	WORD	n/a	wordpools/wordpool_EN.txt	CLAY	11	14	n/a	n/a	pyFR	3	UP045
1906.858	2.584	1281635	WORD	n/a	wordpools/wordpool_EN.txt	TEETH	12	14	n/a	n/a	pyFR	3	UP045
1909.442	2.516	1282927	WORD	n/a	wordpools/wordpool_EN.txt	GATE	13	14	n/a	n/a	pyFR	3	UP045
1911.958	2.667	1284185	WORD	n/a	wordpools/wordpool_EN.txt	JAR	14	14	n/a	n/a	pyFR	3	UP045
1914.625	1.618	1285518	WORD	n/a	wordpools/wordpool_EN.txt	RAIN	15	14	n/a	n/a	pyFR	3	UP045
1916.243	1.064	1286327	START	n/a	n/a	n/a	n/a	14	[-999 -999 -999]	-999	pyFR	3	UP045
1917.307	6.666	1286859	PROB	6.63	n/a	n/a	n/a	14	[7 9 2]	18	pyFR	3	UP045
1923.973	4.219	1290192	PROB	4.181	n/a	n/a	n/a	14	[1 7 2]	10	pyFR	3	UP045
1928.192	5.832	1292302	PROB	5.809	n/a	n/a	n/a	14	[3 8 9]	2	pyFR	3	UP045
1934.024	6.673	1295218	PROB	6.673	n/a	n/a	n/a	14	[2 7 5]	24	pyFR	3	UP045
1940.697	1.047	1298554	STOP	n/a	n/a	n/a	n/a	14	[-999 -999 -999]	-999	pyFR	3	UP045
1941.744	0.391	1299078	REC_START	n/a	n/a	n/a	-999	14	n/a	n/a	pyFR	3	UP045
1942.135	1.0	1299273	REC_WORD_VV	0.391	n/a	<>	-999	14	n/a	n/a	pyFR	3	UP045
1943.135	2.35	1299773	REC_WORD_VV	1.391	n/a	<>	-999	14	n/a	n/a	pyFR	3	UP045
1945.485	6.846	1300948	REC_WORD_VV	3.741	n/a	<>	-999	14	n/a	n/a	pyFR	3	UP045
1952.331	2.861	1304371	REC_WORD	10.587	n/a	TOOTH	-999	14	n/a	n/a	pyFR	3	UP045
1955.192	4.075	1305802	REC_WORD	13.448	n/a	PUSH	-999	14	n/a	n/a	pyFR	3	UP045
1959.267	2.538	1307839	REC_WORD	17.523	n/a	TIRE	-999	14	n/a	n/a	pyFR	3	UP045
1961.805	5.352	1309108	REC_WORD	20.061	n/a	RUN	-999	14	n/a	n/a	pyFR	3	UP045
1967.157	2.997	1311784	REC_WORD	25.413	n/a	SEA	-999	14	n/a	n/a	pyFR	3	UP045
1970.154	3.35	1313283	REC_WORD	28.41	n/a	ENJOY	-999	14	n/a	n/a	pyFR	3	UP045
1973.504	3.319	1314958	REC_WORD	31.76	n/a	ROUGH	-999	14	n/a	n/a	pyFR	3	UP045
1976.823	12.021	1316617	REC_WORD	35.079	n/a	BARK	-999	14	n/a	n/a	pyFR	3	UP045
1988.844	0.017	1322628	TRIAL	n/a	n/a	n/a	-999	15	n/a	n/a	pyFR	3	UP045
1988.861	2.75	1322636	ORIENT	n/a	n/a	n/a	-999	15	n/a	n/a	pyFR	3	UP045
1991.611	2.817	1324011	WORD	n/a	wordpools/wordpool_EN.txt	CONE	1	15	n/a	n/a	pyFR	3	UP045
1994.428	2.6	1325420	WORD	n/a	wordpools/wordpool_EN.txt	FORK	2	15	n/a	n/a	pyFR	3	UP045
1997.028	2.8	1326720	WORD	n/a	wordpools/wordpool_EN.txt	CASH	3	15	n/a	n/a	pyFR	3	UP045
1999.828	2.5	1328120	WORD	n/a	wordpools/wordpool_EN.txt	ZOO	4	15	n/a	n/a	pyFR	3	UP045
2002.328	2.433	1329370	WORD	n/a	wordpools/wordpool_EN.txt	BOOK	5	15	n/a	n/a	pyFR	3	UP045
2004.761	2.6	1330586	WORD	n/a	wordpools/wordpool_EN.txt	BARN	6	15	n/a	n/a	pyFR	3	UP045
2007.361	2.6	1331886	WORD	n/a	wordpools/wordpool_EN.txt	HAND	7	15	n/a	n/a	pyFR	3	UP045
2009.961	2.585	1333186	WORD	n/a	wordpools/wordpool_EN.txt	CLIFF	8	15	n/a	n/a	pyFR	3	UP045
2012.546	2.782	1334478	WORD	n/a	wordpools/wordpool_EN.txt	FOG	9	15	n/a	n/a	pyFR	3	UP045
2015.328	2.617	1335869	WORD	n/a	wordpools/wordpool_EN.txt	FLAG	10	15	n/a	n/a	pyFR	3	UP045
2017.945	2.667	1337178	WORD	n/a	wordpools/wordpool_EN.txt	GIRL	11	15	n/a	n/a	pyFR	3	UP045
2020.612	2.6	1338511	WORD	n/a	wordpools/wordpool_EN.txt	COW	12	15	n/a	n/a	pyFR	3	UP045
2023.212	2.467	1339811	WORD	n/a	wordpools/wordpool_EN.txt	TOY	13	15	n/a	n/a	pyFR	3	UP045
2025.679	2.533	1341045	WORD	n/a	wordpools/wordpool_EN.txt	BRUSH	14	15	n/a	n/a	pyFR	3	UP045
2028.212	1.618	1342311	WORD	n/a	wordpools/wordpool_EN.txt	FUDGE	15	15	n/a	n/a	pyFR	3	UP045
2029.83	1.064	1343120	START	n/a	n/a	n/a	n/a	15	[-999 -999 -999]	-999	pyFR	3	UP045
2030.894	2.333	1343652	PROB	2.304	n/a	n/a	n/a	15	[6 4 1]	11	pyFR	3	UP045
2033.227	14.052	1344819	PROB	14.026	n/a	n/a	n/a	15	[9 5 8]	22	pyFR	3	UP045
2047.279	3.398	1351845	PROB	3.398	n/a	n/a	n/a	15	[7 2 1]	10	pyFR	3	UP045
2050.677	1.12	1353544	STOP	n/a	n/a	n/a	n/a	15	[-999 -999 -999]	-999	pyFR	3	UP045
2051.797	0.915	1354104	REC_START	n/a	n/a	n/a	-999	15	n/a	n/a	pyFR	3	UP045
2052.712	0.787	1354561	REC_WORD	0.915	n/a	EAT	-999	15	n/a	n/a	pyFR	3	UP045
2053.499	2.232	1354955	REC_WORD	1.702	n/a	CLOWN	-999	15	n/a	n/a	pyFR	3	UP045
2055.731	1.519	1356071	REC_WORD	3.934	n/a	FUDGE	-999	15	n/a	n/a	pyFR	3	UP045
2057.25	1.695	1356830	REC_WORD	5.453	n/a	ENJOY	-999	15	n/a	n/a	pyFR	3	UP045
2058.945	0.855	1357678	REC_WORD	7.148	n/a	SEA	-999	15	n/a	n/a	pyFR	3	UP045
2059.8	0.784	1358105	REC_WORD	8.003	n/a	PACK	-999	15	n/a	n/a	pyFR	3	UP045
2060.584	6.027	1358497	REC_WORD	8.787	n/a	TRACE	-999	15	n/a	n/a	pyFR	3	UP045
2066.611	9.407	1361511	REC_WORD	14.814	n/a	CRUISE	-999	15	n/a	n/a	pyFR	3	UP045
2076.018	23.313	1366214	REC_WORD	24.221	n/a	RUN	-999	15	n/a	n/a	pyFR	3	UP045
2099.331	0.017	1377871	TRIAL	n/a	n/a	n/a	-999	16	n/a	n/a	pyFR	3	UP045
2099.348	2.883	1377879	ORIENT	n/a	n/a	n/a	-999	16	n/a	n/a	pyFR	3	UP045
2102.231	2.65	1379321	WORD	n/a	wordpools/wordpool_EN.txt	SHEEP	1	16	n/a	n/a	pyFR	3	UP045
2104.881	2.6	1380646	WORD	n/a	wordpools/wordpool_EN.txt	BOOT	2	16	n/a	n/a	pyFR	3	UP045
2107.481	2.567	1381946	WORD	n/a	wordpools/wordpool_EN.txt	CUBE	3	16	n/a	n/a	pyFR	3	UP045
2110.048	2.7	1383229	WORD	n/a	wordpools/wordpool_EN.txt	DUCK	4	16	n/a	n/a	pyFR	3	UP045
2112.748	2.801	1384579	WORD	n/a	wordpools/wordpool_EN.txt	SKI	5	16	n/a	n/a	pyFR	3	UP045
2115.549	2.583	1385980	WORD	n/a	wordpools/wordpool_EN.txt	BRIDGE	6	16	n/a	n/a	pyFR	3	UP045
2118.132	2.55	1387271	WORD	n/a	wordpools/wordpool_EN.txt	HOOF	7	16	n/a	n/a	pyFR	3	UP045
2120.682	2.498	1388546	WORD	n/a	wordpools/wordpool_EN.txt	SHIRT	8	16	n/a	n/a	pyFR	3	UP045
2123.18	2.719	1389795	WORD	n/a	wordpools/wordpool_EN.txt	NEST	9	16	n/a	n/a	pyFR	3	UP045
2125.899	2.75	1391155	WORD	n/a	wordpools/wordpool_EN.txt	DRUM	10	16	n/a	n/a	pyFR	3	UP045
2128.649	2.683	1392530	WORD	n/a	wordpools/wordpool_EN.txt	SWAMP	11	16	n/a	n/a	pyFR	3	UP045
2131.332	2.784	1393871	WORD	n/a	wordpools/wordpool_EN.txt	SOAP	12	16	n/a	n/a	pyFR	3	UP045
2134.116	2.583	1395263	WORD	n/a	wordpools/wordpool_EN.txt	CORN	13	16	n/a	n/a	pyFR	3	UP045
2136.699	2.65	1396555	WORD	n/a	wordpools/wordpool_EN.txt	DOLL	14	16	n/a	n/a	pyFR	3	UP045
2139.349	1.618	1397880	WORD	n/a	wordpools/wordpool_EN.txt	FRUIT	15	16	n/a	n/a	pyFR	3	UP045
2140.967	0.83	1398689	START	n/a	n/a	n/a	n/a	16	[-999 -999 -999]	-999	pyFR	3	UP045
2141.797	3.735	1399104	PROB	3.709	n/a	n/a	n/a	16	[9 2 8]	19	pyFR	3	UP045
2145.532	3.951	1400971	PROB	3.925	n/a	n/a	n/a	16	[6 2 9]	17	pyFR	3	UP045
2149.483	3.148	1402947	PROB	3.11	n/a	n/a	n/a	16	[6 7 7]	20	pyFR	3	UP045
2152.631	3.885	1404521	PROB	3.858	n/a	n/a	n/a	16	[3 9 2]	14	pyFR	3	UP045
2156.516	3.45	1406463	PROB	3.421	n/a	n/a	n/a	16	[9 6 1]	15	pyFR	3	UP045
2159.966	2.907	1408188	PROB	2.907	n/a	n/a	n/a	16	[4 1 2]	7	pyFR	3	UP045
2162.873	1.044	1409642	STOP	n/a	n/a	n/a	n/a	16	[-999 -999 -999]	-999	pyFR	3	UP045
2163.917	2.372	1410164	REC_START	n/a	n/a	n/a	-999	16	n/a	n/a	pyFR	3	UP045
2166.289	0.482	1411350	REC_WORD	2.372	n/a	THOUGHT	-999	16	n/a	n/a	pyFR	3	UP045
2166.771	1.0	1411591	REC_WORD	2.854	n/a	DRIVE	-999	16	n/a	n/a	pyFR	3	UP045
2167.771	0.898	1412091	REC_WORD	3.854	n/a	SEA	-999	16	n/a	n/a	pyFR	3	UP045
2168.669	3.859	1412540	REC_WORD	4.752	n/a	ENJOY	-999	16	n/a	n/a	pyFR	3	UP045
2172.528	3.053	1414469	REC_WORD	8.611	n/a	PUSH	-999	16	n/a	n/a	pyFR	3	UP045
2175.581	5.441	1415996	REC_WORD	11.664	n/a	TAKE	-999	16	n/a	n/a	pyFR	3	UP045
2181.022	5.675	1418716	REC_WORD	17.105	n/a	TRASH	-999	16	n/a	n/a	pyFR	3	UP045
2186.697	2.315	1421554	REC_WORD	22.78	n/a	CLOWN	-999	16	n/a	n/a	pyFR	3	UP045
2189.012	5.899	1422711	REC_WORD	25.095	n/a	END	-999	16	n/a	n/a	pyFR	3	UP045
2194.911	7.602	1425661	REC_WORD	30.994	n/a	TOTAL	-999	16	n/a	n/a	pyFR	3	UP045
2202.513	559.408	1429462	REC_WORD	38.596	n/a	ENJOY	-999	16	n/a	n/a	pyFR	3	UP045
2761.921	0.103	1709164	SESS_END	n/a	n/a	n/a	-999	16	n/a	n/a	pyFR	3	UP045
2762.024	0.0	1709216	E	n/a	n/a	n/a	-999	16	n/a	n/a	pyFR	3	UP045
