onset	duration	sample	trial_type	response_time	stim_file	item_name	serialpos	list	test	answer	experiment	session	subject
0.0	0.001	1380153	B	n/a	n/a	n/a	-999	-999	n/a	n/a	pyFR	1	TJ065
0.001	51.429	1380155	SESS_START	n/a	n/a	n/a	-999	-999	n/a	n/a	pyFR	1	TJ065
51.43	0.023	1483008	START	n/a	n/a	n/a	n/a	0	[-999 -999 -999]	-999	pyFR	1	TJ065
51.453	12.427	1483054	PROB	12.393	n/a	n/a	n/a	0	[9 1 5]	15	pyFR	1	TJ065
63.88	10.876	1507907	PROB	10.838	n/a	n/a	n/a	0	[7 9 9]	25	pyFR	1	TJ065
74.756	4.554	1529659	PROB	4.523	n/a	n/a	n/a	0	[1 8 5]	14	pyFR	1	TJ065
79.31	5.336	1538766	PROB	5.336	n/a	n/a	n/a	0	[5 6 6]	17	pyFR	1	TJ065
84.646	79.586	1549438	STOP	n/a	n/a	n/a	n/a	0	[-999 -999 -999]	-999	pyFR	1	TJ065
164.232	0.017	1708603	TRIAL	n/a	n/a	n/a	-999	1	n/a	n/a	pyFR	1	TJ065
164.249	2.685	1708637	ORIENT	n/a	n/a	n/a	-999	1	n/a	n/a	pyFR	1	TJ065
166.934	2.669	1714007	WORD	n/a	wordpools/wordpool_EN.txt	STONE	1	1	n/a	n/a	pyFR	1	TJ065
169.603	2.552	1719345	WORD	n/a	wordpools/wordpool_EN.txt	BEAN	2	1	n/a	n/a	pyFR	1	TJ065
172.155	2.702	1724449	WORD	n/a	wordpools/wordpool_EN.txt	BEACH	3	1	n/a	n/a	pyFR	1	TJ065
174.857	2.752	1729852	WORD	n/a	wordpools/wordpool_EN.txt	CHIEF	4	1	n/a	n/a	pyFR	1	TJ065
177.609	2.719	1735356	WORD	n/a	wordpools/wordpool_EN.txt	LAKE	5	1	n/a	n/a	pyFR	1	TJ065
180.328	2.552	1740794	WORD	n/a	wordpools/wordpool_EN.txt	KEY	6	1	n/a	n/a	pyFR	1	TJ065
182.88	2.803	1745898	WORD	n/a	wordpools/wordpool_EN.txt	MUG	7	1	n/a	n/a	pyFR	1	TJ065
185.683	2.485	1751504	WORD	n/a	wordpools/wordpool_EN.txt	SHEET	8	1	n/a	n/a	pyFR	1	TJ065
188.168	2.452	1756473	WORD	n/a	wordpools/wordpool_EN.txt	FUR	9	1	n/a	n/a	pyFR	1	TJ065
190.62	2.586	1761377	WORD	n/a	wordpools/wordpool_EN.txt	TAIL	10	1	n/a	n/a	pyFR	1	TJ065
193.206	2.535	1766549	WORD	n/a	wordpools/wordpool_EN.txt	SHIELD	11	1	n/a	n/a	pyFR	1	TJ065
195.741	2.469	1771619	WORD	n/a	wordpools/wordpool_EN.txt	DOOR	12	1	n/a	n/a	pyFR	1	TJ065
198.21	2.619	1776556	WORD	n/a	wordpools/wordpool_EN.txt	SMOKE	13	1	n/a	n/a	pyFR	1	TJ065
200.829	2.719	1781794	WORD	n/a	wordpools/wordpool_EN.txt	FARM	14	1	n/a	n/a	pyFR	1	TJ065
203.548	1.619	1787232	WORD	n/a	wordpools/wordpool_EN.txt	AXE	15	1	n/a	n/a	pyFR	1	TJ065
205.167	0.966	1790470	START	n/a	n/a	n/a	n/a	1	[-999 -999 -999]	-999	pyFR	1	TJ065
206.133	5.405	1792402	PROB	5.377	n/a	n/a	n/a	1	[1 1 4]	6	pyFR	1	TJ065
211.538	4.77	1803211	PROB	4.733	n/a	n/a	n/a	1	[2 6 6]	14	pyFR	1	TJ065
216.308	18.026	1812751	PROB	18.026	n/a	n/a	n/a	1	[6 9 8]	23	pyFR	1	TJ065
234.334	1.141	1848802	STOP	n/a	n/a	n/a	n/a	1	[-999 -999 -999]	-999	pyFR	1	TJ065
235.475	1.679	1851083	REC_START	n/a	n/a	n/a	-999	1	n/a	n/a	pyFR	1	TJ065
237.154	0.401	1854441	REC_WORD	1.679	n/a	STONE	-999	1	n/a	n/a	pyFR	1	TJ065
237.555	1.628	1855243	REC_WORD_VV	2.08	n/a	<>	-999	1	n/a	n/a	pyFR	1	TJ065
239.183	1.875	1858499	REC_WORD	3.708	n/a	KEY	-999	1	n/a	n/a	pyFR	1	TJ065
241.058	2.473	1862249	REC_WORD	5.583	n/a	LAKE	-999	1	n/a	n/a	pyFR	1	TJ065
243.531	48.942	1867195	REC_WORD_VV	8.056	n/a	<>	-999	1	n/a	n/a	pyFR	1	TJ065
292.473	0.016	1965075	TRIAL	n/a	n/a	n/a	-999	2	n/a	n/a	pyFR	1	TJ065
292.489	2.635	1965107	ORIENT	n/a	n/a	n/a	-999	2	n/a	n/a	pyFR	1	TJ065
295.124	2.753	1970377	WORD	n/a	wordpools/wordpool_EN.txt	BLOOM	1	2	n/a	n/a	pyFR	1	TJ065
297.877	2.452	1975882	WORD	n/a	wordpools/wordpool_EN.txt	CLOCK	2	2	n/a	n/a	pyFR	1	TJ065
300.329	2.635	1980786	WORD	n/a	wordpools/wordpool_EN.txt	PRINCE	3	2	n/a	n/a	pyFR	1	TJ065
302.964	2.803	1986056	WORD	n/a	wordpools/wordpool_EN.txt	DOLL	4	2	n/a	n/a	pyFR	1	TJ065
305.767	2.802	1991662	WORD	n/a	wordpools/wordpool_EN.txt	BRANCH	5	2	n/a	n/a	pyFR	1	TJ065
308.569	2.485	1997265	WORD	n/a	wordpools/wordpool_EN.txt	CAVE	6	2	n/a	n/a	pyFR	1	TJ065
311.054	2.486	2002235	WORD	n/a	wordpools/wordpool_EN.txt	COW	7	2	n/a	n/a	pyFR	1	TJ065
313.54	2.686	2007207	WORD	n/a	wordpools/wordpool_EN.txt	ARK	8	2	n/a	n/a	pyFR	1	TJ065
316.226	2.618	2012579	WORD	n/a	wordpools/wordpool_EN.txt	SNAKE	9	2	n/a	n/a	pyFR	1	TJ065
318.844	2.703	2017815	WORD	n/a	wordpools/wordpool_EN.txt	SHOE	10	2	n/a	n/a	pyFR	1	TJ065
321.547	2.635	2023220	WORD	n/a	wordpools/wordpool_EN.txt	BOOT	11	2	n/a	n/a	pyFR	1	TJ065
324.182	2.586	2028490	WORD	n/a	wordpools/wordpool_EN.txt	TREE	12	2	n/a	n/a	pyFR	1	TJ065
326.768	2.503	2033662	WORD	n/a	wordpools/wordpool_EN.txt	APE	13	2	n/a	n/a	pyFR	1	TJ065
329.271	2.768	2038668	WORD	n/a	wordpools/wordpool_EN.txt	FILM	14	2	n/a	n/a	pyFR	1	TJ065
332.039	1.619	2044204	WORD	n/a	wordpools/wordpool_EN.txt	BALL	15	2	n/a	n/a	pyFR	1	TJ065
333.658	1.116	2047441	START	n/a	n/a	n/a	n/a	2	[-999 -999 -999]	-999	pyFR	1	TJ065
334.774	4.704	2049673	PROB	4.68	n/a	n/a	n/a	2	[5 2 4]	11	pyFR	1	TJ065
339.478	9.842	2059081	PROB	9.816	n/a	n/a	n/a	2	[9 6 8]	23	pyFR	1	TJ065
349.32	4.02	2078764	PROB	3.99	n/a	n/a	n/a	2	[9 2 9]	20	pyFR	1	TJ065
353.34	3.826	2086804	PROB	3.826	n/a	n/a	n/a	2	[1 5 6]	12	pyFR	1	TJ065
357.166	1.212	2094456	STOP	n/a	n/a	n/a	n/a	2	[-999 -999 -999]	-999	pyFR	1	TJ065
358.378	2.297	2096879	REC_START	n/a	n/a	n/a	-999	2	n/a	n/a	pyFR	1	TJ065
360.675	4.439	2101473	REC_WORD	2.297	n/a	BRANCH	-999	2	n/a	n/a	pyFR	1	TJ065
365.114	5.393	2110351	REC_WORD	6.736	n/a	BLOOM	-999	2	n/a	n/a	pyFR	1	TJ065
370.507	16.192	2121136	REC_WORD_VV	12.129	n/a	<>	-999	2	n/a	n/a	pyFR	1	TJ065
386.699	44.741	2153519	REC_WORD	28.321	n/a	COW	-999	2	n/a	n/a	pyFR	1	TJ065
431.44	0.016	2242997	TRIAL	n/a	n/a	n/a	-999	3	n/a	n/a	pyFR	1	TJ065
431.456	2.719	2243029	ORIENT	n/a	n/a	n/a	-999	3	n/a	n/a	pyFR	1	TJ065
434.175	2.669	2248467	WORD	n/a	wordpools/wordpool_EN.txt	SNAIL	1	3	n/a	n/a	pyFR	1	TJ065
436.844	2.568	2253805	WORD	n/a	wordpools/wordpool_EN.txt	STICK	2	3	n/a	n/a	pyFR	1	TJ065
439.412	2.619	2258941	WORD	n/a	wordpools/wordpool_EN.txt	THUMB	3	3	n/a	n/a	pyFR	1	TJ065
442.031	2.702	2264179	WORD	n/a	wordpools/wordpool_EN.txt	LAWN	4	3	n/a	n/a	pyFR	1	TJ065
444.733	2.686	2269582	WORD	n/a	wordpools/wordpool_EN.txt	FOOT	5	3	n/a	n/a	pyFR	1	TJ065
447.419	2.819	2274954	WORD	n/a	wordpools/wordpool_EN.txt	VAN	6	3	n/a	n/a	pyFR	1	TJ065
450.238	2.669	2280592	WORD	n/a	wordpools/wordpool_EN.txt	SOUP	7	3	n/a	n/a	pyFR	1	TJ065
452.907	2.619	2285930	WORD	n/a	wordpools/wordpool_EN.txt	DOG	8	3	n/a	n/a	pyFR	1	TJ065
455.526	2.72	2291168	WORD	n/a	wordpools/wordpool_EN.txt	SLIME	9	3	n/a	n/a	pyFR	1	TJ065
458.246	2.651	2296607	WORD	n/a	wordpools/wordpool_EN.txt	SLEEVE	10	3	n/a	n/a	pyFR	1	TJ065
460.897	2.752	2301909	WORD	n/a	wordpools/wordpool_EN.txt	MOOSE	11	3	n/a	n/a	pyFR	1	TJ065
463.649	2.686	2307413	WORD	n/a	wordpools/wordpool_EN.txt	FORT	12	3	n/a	n/a	pyFR	1	TJ065
466.335	2.435	2312785	WORD	n/a	wordpools/wordpool_EN.txt	BOX	13	3	n/a	n/a	pyFR	1	TJ065
468.77	2.803	2317654	WORD	n/a	wordpools/wordpool_EN.txt	SMILE	14	3	n/a	n/a	pyFR	1	TJ065
471.573	1.619	2323260	WORD	n/a	wordpools/wordpool_EN.txt	FOAM	15	3	n/a	n/a	pyFR	1	TJ065
473.192	1.166	2326498	START	n/a	n/a	n/a	n/a	3	[-999 -999 -999]	-999	pyFR	1	TJ065
474.358	7.356	2328830	PROB	7.328	n/a	n/a	n/a	3	[7 9 8]	24	pyFR	1	TJ065
481.714	2.252	2343541	PROB	2.228	n/a	n/a	n/a	3	[1 1 1]	3	pyFR	1	TJ065
483.966	8.975	2348045	PROB	8.936	n/a	n/a	n/a	3	[9 7 5]	21	pyFR	1	TJ065
492.941	5.281	2365994	PROB	5.281	n/a	n/a	n/a	3	[9 9 8]	26	pyFR	1	TJ065
498.222	1.042	2376556	STOP	n/a	n/a	n/a	n/a	3	[-999 -999 -999]	-999	pyFR	1	TJ065
499.264	5.491	2378640	REC_START	n/a	n/a	n/a	-999	3	n/a	n/a	pyFR	1	TJ065
504.755	1.719	2389621	REC_WORD	5.491	n/a	FOOT	-999	3	n/a	n/a	pyFR	1	TJ065
506.474	2.064	2393059	REC_WORD	7.21	n/a	THUMB	-999	3	n/a	n/a	pyFR	1	TJ065
508.538	9.322	2397187	REC_WORD	9.274	n/a	SNAIL	-999	3	n/a	n/a	pyFR	1	TJ065
517.86	15.178	2415830	REC_WORD	18.596	n/a	SMILE	-999	3	n/a	n/a	pyFR	1	TJ065
533.038	28.478	2446185	REC_WORD	33.774	n/a	LAWN	-999	3	n/a	n/a	pyFR	1	TJ065
561.516	0.015	2503139	TRIAL	n/a	n/a	n/a	-999	4	n/a	n/a	pyFR	1	TJ065
561.531	2.869	2503169	ORIENT	n/a	n/a	n/a	-999	4	n/a	n/a	pyFR	1	TJ065
564.4	2.636	2508907	WORD	n/a	wordpools/wordpool_EN.txt	FROG	1	4	n/a	n/a	pyFR	1	TJ065
567.036	2.786	2514178	WORD	n/a	wordpools/wordpool_EN.txt	STEAK	2	4	n/a	n/a	pyFR	1	TJ065
569.822	2.453	2519750	WORD	n/a	wordpools/wordpool_EN.txt	STOOL	3	4	n/a	n/a	pyFR	1	TJ065
572.275	2.551	2524656	WORD	n/a	wordpools/wordpool_EN.txt	PANTS	4	4	n/a	n/a	pyFR	1	TJ065
574.826	2.702	2529758	WORD	n/a	wordpools/wordpool_EN.txt	DIME	5	4	n/a	n/a	pyFR	1	TJ065
577.528	2.769	2535162	WORD	n/a	wordpools/wordpool_EN.txt	SCHOOL	6	4	n/a	n/a	pyFR	1	TJ065
580.297	2.769	2540699	WORD	n/a	wordpools/wordpool_EN.txt	HOUSE	7	4	n/a	n/a	pyFR	1	TJ065
583.066	2.736	2546237	WORD	n/a	wordpools/wordpool_EN.txt	SLUSH	8	4	n/a	n/a	pyFR	1	TJ065
585.802	2.602	2551709	WORD	n/a	wordpools/wordpool_EN.txt	SPEAR	9	4	n/a	n/a	pyFR	1	TJ065
588.404	2.669	2556913	WORD	n/a	wordpools/wordpool_EN.txt	SINK	10	4	n/a	n/a	pyFR	1	TJ065
591.073	2.602	2562250	WORD	n/a	wordpools/wordpool_EN.txt	JAIL	11	4	n/a	n/a	pyFR	1	TJ065
593.675	2.552	2567454	WORD	n/a	wordpools/wordpool_EN.txt	PLATE	12	4	n/a	n/a	pyFR	1	TJ065
596.227	2.836	2572558	WORD	n/a	wordpools/wordpool_EN.txt	RIB	13	4	n/a	n/a	pyFR	1	TJ065
599.063	2.802	2578230	WORD	n/a	wordpools/wordpool_EN.txt	SPRING	14	4	n/a	n/a	pyFR	1	TJ065
601.865	1.62	2583834	WORD	n/a	wordpools/wordpool_EN.txt	BAND	15	4	n/a	n/a	pyFR	1	TJ065
603.485	1.033	2587073	START	n/a	n/a	n/a	n/a	4	[-999 -999 -999]	-999	pyFR	1	TJ065
604.518	4.487	2589139	PROB	4.456	n/a	n/a	n/a	4	[6 1 8]	15	pyFR	1	TJ065
609.005	3.653	2598113	PROB	3.625	n/a	n/a	n/a	4	[7 7 5]	19	pyFR	1	TJ065
612.658	3.853	2605419	PROB	3.828	n/a	n/a	n/a	4	[2 5 2]	9	pyFR	1	TJ065
616.511	2.819	2613124	PROB	2.783	n/a	n/a	n/a	4	[1 1 2]	4	pyFR	1	TJ065
619.33	3.403	2618762	PROB	3.372	n/a	n/a	n/a	4	[6 1 1]	8	pyFR	1	TJ065
622.733	4.089	2625568	PROB	4.089	n/a	n/a	n/a	4	[4 3 2]	9	pyFR	1	TJ065
626.822	1.183	2633746	STOP	n/a	n/a	n/a	n/a	4	[-999 -999 -999]	-999	pyFR	1	TJ065
628.005	3.162	2636111	REC_START	n/a	n/a	n/a	-999	4	n/a	n/a	pyFR	1	TJ065
631.167	3.097	2642435	REC_WORD	3.162	n/a	BAND	-999	4	n/a	n/a	pyFR	1	TJ065
634.264	3.874	2648629	REC_WORD	6.259	n/a	SNAIL	-999	4	n/a	n/a	pyFR	1	TJ065
638.138	9.62	2656377	REC_WORD	10.133	n/a	PLATE	-999	4	n/a	n/a	pyFR	1	TJ065
647.758	63.75	2675616	REC_WORD	19.753	n/a	FROG	-999	4	n/a	n/a	pyFR	1	TJ065
711.508	0.016	2803111	TRIAL	n/a	n/a	n/a	-999	5	n/a	n/a	pyFR	1	TJ065
711.524	2.836	2803143	ORIENT	n/a	n/a	n/a	-999	5	n/a	n/a	pyFR	1	TJ065
714.36	2.552	2808814	WORD	n/a	wordpools/wordpool_EN.txt	BOMB	1	5	n/a	n/a	pyFR	1	TJ065
716.912	2.585	2813918	WORD	n/a	wordpools/wordpool_EN.txt	FLAME	2	5	n/a	n/a	pyFR	1	TJ065
719.497	2.519	2819088	WORD	n/a	wordpools/wordpool_EN.txt	SHIP	3	5	n/a	n/a	pyFR	1	TJ065
722.016	2.719	2824126	WORD	n/a	wordpools/wordpool_EN.txt	GIRL	4	5	n/a	n/a	pyFR	1	TJ065
724.735	2.502	2829564	WORD	n/a	wordpools/wordpool_EN.txt	CLOUD	5	5	n/a	n/a	pyFR	1	TJ065
727.237	2.752	2834567	WORD	n/a	wordpools/wordpool_EN.txt	WORLD	6	5	n/a	n/a	pyFR	1	TJ065
729.989	2.453	2840071	WORD	n/a	wordpools/wordpool_EN.txt	MOUTH	7	5	n/a	n/a	pyFR	1	TJ065
732.442	2.568	2844977	WORD	n/a	wordpools/wordpool_EN.txt	LAND	8	5	n/a	n/a	pyFR	1	TJ065
735.01	2.502	2850113	WORD	n/a	wordpools/wordpool_EN.txt	JUDGE	9	5	n/a	n/a	pyFR	1	TJ065
737.512	2.737	2855117	WORD	n/a	wordpools/wordpool_EN.txt	INK	10	5	n/a	n/a	pyFR	1	TJ065
740.249	2.601	2860590	WORD	n/a	wordpools/wordpool_EN.txt	STRING	11	5	n/a	n/a	pyFR	1	TJ065
742.85	2.502	2865792	WORD	n/a	wordpools/wordpool_EN.txt	WHEEL	12	5	n/a	n/a	pyFR	1	TJ065
745.352	2.586	2870796	WORD	n/a	wordpools/wordpool_EN.txt	SIGN	13	5	n/a	n/a	pyFR	1	TJ065
747.938	2.719	2875968	WORD	n/a	wordpools/wordpool_EN.txt	CAR	14	5	n/a	n/a	pyFR	1	TJ065
750.657	1.62	2881405	WORD	n/a	wordpools/wordpool_EN.txt	FLUTE	15	5	n/a	n/a	pyFR	1	TJ065
752.277	1.049	2884645	START	n/a	n/a	n/a	n/a	5	[-999 -999 -999]	-999	pyFR	1	TJ065
753.326	3.252	2886743	PROB	3.224	n/a	n/a	n/a	5	[8 2 5]	15	pyFR	1	TJ065
756.578	4.955	2893247	PROB	4.916	n/a	n/a	n/a	5	[8 6 5]	19	pyFR	1	TJ065
761.533	6.505	2903157	PROB	6.481	n/a	n/a	n/a	5	[3 1 6]	10	pyFR	1	TJ065
768.038	3.82	2916166	PROB	3.784	n/a	n/a	n/a	5	[4 6 5]	15	pyFR	1	TJ065
771.858	6.148	2923806	PROB	6.148	n/a	n/a	n/a	5	[7 6 3]	16	pyFR	1	TJ065
778.006	1.109	2936101	STOP	n/a	n/a	n/a	n/a	5	[-999 -999 -999]	-999	pyFR	1	TJ065
779.115	2.81	2938319	REC_START	n/a	n/a	n/a	-999	5	n/a	n/a	pyFR	1	TJ065
781.925	1.171	2943939	REC_WORD	2.81	n/a	BOMB	-999	5	n/a	n/a	pyFR	1	TJ065
783.096	4.808	2946281	REC_WORD	3.981	n/a	FLAME	-999	5	n/a	n/a	pyFR	1	TJ065
787.904	8.216	2955896	REC_WORD	8.789	n/a	WHEEL	-999	5	n/a	n/a	pyFR	1	TJ065
796.12	11.566	2972328	REC_WORD	17.005	n/a	PANTS	-999	5	n/a	n/a	pyFR	1	TJ065
807.686	29.127	2995459	REC_WORD	28.571	n/a	FLUTE	-999	5	n/a	n/a	pyFR	1	TJ065
836.813	0.016	3053710	TRIAL	n/a	n/a	n/a	-999	6	n/a	n/a	pyFR	1	TJ065
836.829	3.019	3053742	ORIENT	n/a	n/a	n/a	-999	6	n/a	n/a	pyFR	1	TJ065
839.848	2.769	3059780	WORD	n/a	wordpools/wordpool_EN.txt	CASH	1	6	n/a	n/a	pyFR	1	TJ065
842.617	2.619	3065318	WORD	n/a	wordpools/wordpool_EN.txt	TRASH	2	6	n/a	n/a	pyFR	1	TJ065
845.236	2.636	3070556	WORD	n/a	wordpools/wordpool_EN.txt	CUBE	3	6	n/a	n/a	pyFR	1	TJ065
847.872	2.652	3075828	WORD	n/a	wordpools/wordpool_EN.txt	DITCH	4	6	n/a	n/a	pyFR	1	TJ065
850.524	2.519	3081131	WORD	n/a	wordpools/wordpool_EN.txt	SEAL	5	6	n/a	n/a	pyFR	1	TJ065
853.043	2.635	3086169	WORD	n/a	wordpools/wordpool_EN.txt	GUARD	6	6	n/a	n/a	pyFR	1	TJ065
855.678	2.819	3091439	WORD	n/a	wordpools/wordpool_EN.txt	CAT	7	6	n/a	n/a	pyFR	1	TJ065
858.497	2.652	3097077	WORD	n/a	wordpools/wordpool_EN.txt	BELL	8	6	n/a	n/a	pyFR	1	TJ065
861.149	2.786	3102380	WORD	n/a	wordpools/wordpool_EN.txt	DESK	9	6	n/a	n/a	pyFR	1	TJ065
863.935	2.686	3107952	WORD	n/a	wordpools/wordpool_EN.txt	TRAIN	10	6	n/a	n/a	pyFR	1	TJ065
866.621	2.469	3113324	WORD	n/a	wordpools/wordpool_EN.txt	STAR	11	6	n/a	n/a	pyFR	1	TJ065
869.09	2.685	3118262	WORD	n/a	wordpools/wordpool_EN.txt	WHALE	12	6	n/a	n/a	pyFR	1	TJ065
871.775	2.802	3123632	WORD	n/a	wordpools/wordpool_EN.txt	EAR	13	6	n/a	n/a	pyFR	1	TJ065
874.577	2.736	3129235	WORD	n/a	wordpools/wordpool_EN.txt	PIG	14	6	n/a	n/a	pyFR	1	TJ065
877.313	1.62	3134707	WORD	n/a	wordpools/wordpool_EN.txt	QUEEN	15	6	n/a	n/a	pyFR	1	TJ065
878.933	1.032	3137947	START	n/a	n/a	n/a	n/a	6	[-999 -999 -999]	-999	pyFR	1	TJ065
879.965	5.088	3140011	PROB	5.049	n/a	n/a	n/a	6	[3 4 2]	9	pyFR	1	TJ065
885.053	3.903	3150186	PROB	3.873	n/a	n/a	n/a	6	[3 8 8]	19	pyFR	1	TJ065
888.956	12.162	3157992	PROB	12.162	n/a	n/a	n/a	6	[6 5 8]	19	pyFR	1	TJ065
901.118	1.1	3182315	STOP	n/a	n/a	n/a	n/a	6	[-999 -999 -999]	-999	pyFR	1	TJ065
902.218	2.31	3184515	REC_START	n/a	n/a	n/a	-999	6	n/a	n/a	pyFR	1	TJ065
904.528	25.047	3189135	REC_WORD	2.31	n/a	QUEEN	-999	6	n/a	n/a	pyFR	1	TJ065
929.575	56.614	3239227	REC_WORD	27.357	n/a	PIG	-999	6	n/a	n/a	pyFR	1	TJ065
986.189	0.016	3352450	TRIAL	n/a	n/a	n/a	-999	7	n/a	n/a	pyFR	1	TJ065
986.205	2.668	3352482	ORIENT	n/a	n/a	n/a	-999	7	n/a	n/a	pyFR	1	TJ065
988.873	2.786	3357818	WORD	n/a	wordpools/wordpool_EN.txt	PHONE	1	7	n/a	n/a	pyFR	1	TJ065
991.659	2.802	3363390	WORD	n/a	wordpools/wordpool_EN.txt	PEACH	2	7	n/a	n/a	pyFR	1	TJ065
994.461	2.469	3368994	WORD	n/a	wordpools/wordpool_EN.txt	TEA	3	7	n/a	n/a	pyFR	1	TJ065
996.93	2.602	3373931	WORD	n/a	wordpools/wordpool_EN.txt	STRAW	4	7	n/a	n/a	pyFR	1	TJ065
999.532	2.603	3379135	WORD	n/a	wordpools/wordpool_EN.txt	FISH	5	7	n/a	n/a	pyFR	1	TJ065
1002.135	2.535	3384341	WORD	n/a	wordpools/wordpool_EN.txt	PET	6	7	n/a	n/a	pyFR	1	TJ065
1004.67	2.652	3389411	WORD	n/a	wordpools/wordpool_EN.txt	PLANT	7	7	n/a	n/a	pyFR	1	TJ065
1007.322	2.652	3394715	WORD	n/a	wordpools/wordpool_EN.txt	FENCE	8	7	n/a	n/a	pyFR	1	TJ065
1009.974	2.536	3400018	WORD	n/a	wordpools/wordpool_EN.txt	WALL	9	7	n/a	n/a	pyFR	1	TJ065
1012.51	2.535	3405090	WORD	n/a	wordpools/wordpool_EN.txt	PEAR	10	7	n/a	n/a	pyFR	1	TJ065
1015.045	2.586	3410160	WORD	n/a	wordpools/wordpool_EN.txt	MULE	11	7	n/a	n/a	pyFR	1	TJ065
1017.631	2.637	3415332	WORD	n/a	wordpools/wordpool_EN.txt	COUCH	12	7	n/a	n/a	pyFR	1	TJ065
1020.268	2.534	3420605	WORD	n/a	wordpools/wordpool_EN.txt	CHEEK	13	7	n/a	n/a	pyFR	1	TJ065
1022.802	2.569	3425673	WORD	n/a	wordpools/wordpool_EN.txt	THREAD	14	7	n/a	n/a	pyFR	1	TJ065
1025.371	1.619	3430811	WORD	n/a	wordpools/wordpool_EN.txt	WEED	15	7	n/a	n/a	pyFR	1	TJ065
1026.99	0.933	3434049	START	n/a	n/a	n/a	n/a	7	[-999 -999 -999]	-999	pyFR	1	TJ065
1027.923	3.67	3435915	PROB	3.643	n/a	n/a	n/a	7	[9 1 8]	18	pyFR	1	TJ065
1031.593	6.705	3443255	PROB	6.67	n/a	n/a	n/a	7	[8 7 7]	22	pyFR	1	TJ065
1038.298	4.354	3456664	PROB	4.324	n/a	n/a	n/a	7	[7 3 4]	14	pyFR	1	TJ065
1042.652	16.611	3465372	PROB	16.611	n/a	n/a	n/a	7	[5 9 8]	20	pyFR	1	TJ065
1059.263	1.221	3498592	STOP	n/a	n/a	n/a	n/a	7	[-999 -999 -999]	-999	pyFR	1	TJ065
1060.484	3.243	3501034	REC_START	n/a	n/a	n/a	-999	7	n/a	n/a	pyFR	1	TJ065
1063.727	1.0	3507520	REC_WORD_VV	3.243	n/a	<>	-999	7	n/a	n/a	pyFR	1	TJ065
1064.727	35.562	3509520	REC_WORD_VV	4.243	n/a	<>	-999	7	n/a	n/a	pyFR	1	TJ065
1100.289	49.604	3580641	REC_WORD	39.805	n/a	CAT	-999	7	n/a	n/a	pyFR	1	TJ065
1149.893	0.015	3679845	TRIAL	n/a	n/a	n/a	-999	8	n/a	n/a	pyFR	1	TJ065
1149.908	2.936	3679875	ORIENT	n/a	n/a	n/a	-999	8	n/a	n/a	pyFR	1	TJ065
1152.844	2.619	3685747	WORD	n/a	wordpools/wordpool_EN.txt	MOUSE	1	8	n/a	n/a	pyFR	1	TJ065
1155.463	2.519	3690984	WORD	n/a	wordpools/wordpool_EN.txt	CORD	2	8	n/a	n/a	pyFR	1	TJ065
1157.982	2.652	3696022	WORD	n/a	wordpools/wordpool_EN.txt	CORN	3	8	n/a	n/a	pyFR	1	TJ065
1160.634	2.702	3701326	WORD	n/a	wordpools/wordpool_EN.txt	SUN	4	8	n/a	n/a	pyFR	1	TJ065
1163.336	2.619	3706730	WORD	n/a	wordpools/wordpool_EN.txt	MOLE	5	8	n/a	n/a	pyFR	1	TJ065
1165.955	2.669	3711968	WORD	n/a	wordpools/wordpool_EN.txt	SEA	6	8	n/a	n/a	pyFR	1	TJ065
1168.624	2.62	3717305	WORD	n/a	wordpools/wordpool_EN.txt	KITE	7	8	n/a	n/a	pyFR	1	TJ065
1171.244	2.685	3722545	WORD	n/a	wordpools/wordpool_EN.txt	MAT	8	8	n/a	n/a	pyFR	1	TJ065
1173.929	2.669	3727915	WORD	n/a	wordpools/wordpool_EN.txt	CLOWN	9	8	n/a	n/a	pyFR	1	TJ065
1176.598	2.435	3733253	WORD	n/a	wordpools/wordpool_EN.txt	BRIDGE	10	8	n/a	n/a	pyFR	1	TJ065
1179.033	2.485	3738123	WORD	n/a	wordpools/wordpool_EN.txt	SUIT	11	8	n/a	n/a	pyFR	1	TJ065
1181.518	2.452	3743092	WORD	n/a	wordpools/wordpool_EN.txt	RAKE	12	8	n/a	n/a	pyFR	1	TJ065
1183.97	2.803	3747996	WORD	n/a	wordpools/wordpool_EN.txt	OAR	13	8	n/a	n/a	pyFR	1	TJ065
1186.773	2.702	3753602	WORD	n/a	wordpools/wordpool_EN.txt	SKI	14	8	n/a	n/a	pyFR	1	TJ065
1189.475	1.619	3759006	WORD	n/a	wordpools/wordpool_EN.txt	CLAY	15	8	n/a	n/a	pyFR	1	TJ065
1191.094	1.0	3762244	START	n/a	n/a	n/a	n/a	8	[-999 -999 -999]	-999	pyFR	1	TJ065
1192.094	3.536	3764243	PROB	3.512	n/a	n/a	n/a	8	[3 2 4]	9	pyFR	1	TJ065
1195.63	8.174	3771315	PROB	8.144	n/a	n/a	n/a	8	[5 7 6]	16	pyFR	1	TJ065
1203.804	8.378	3787662	PROB	8.378	n/a	n/a	n/a	8	[8 1 9]	18	pyFR	1	TJ065
1212.182	1.065	3804418	STOP	n/a	n/a	n/a	n/a	8	[-999 -999 -999]	-999	pyFR	1	TJ065
1213.247	3.387	3806548	REC_START	n/a	n/a	n/a	-999	8	n/a	n/a	pyFR	1	TJ065
1216.634	17.142	3813321	REC_WORD	3.387	n/a	MOUSE	-999	8	n/a	n/a	pyFR	1	TJ065
1233.776	1.571	3847604	REC_WORD	20.529	n/a	SEA	-999	8	n/a	n/a	pyFR	1	TJ065
1235.347	51.694	3850746	REC_WORD	22.1	n/a	SKI	-999	8	n/a	n/a	pyFR	1	TJ065
1287.041	0.016	3954130	TRIAL	n/a	n/a	n/a	-999	9	n/a	n/a	pyFR	1	TJ065
1287.057	2.986	3954162	ORIENT	n/a	n/a	n/a	-999	9	n/a	n/a	pyFR	1	TJ065
1290.043	2.802	3960133	WORD	n/a	wordpools/wordpool_EN.txt	VASE	1	9	n/a	n/a	pyFR	1	TJ065
1292.845	2.636	3965737	WORD	n/a	wordpools/wordpool_EN.txt	GOAT	2	9	n/a	n/a	pyFR	1	TJ065
1295.481	2.77	3971009	WORD	n/a	wordpools/wordpool_EN.txt	CUP	3	9	n/a	n/a	pyFR	1	TJ065
1298.251	2.801	3976549	WORD	n/a	wordpools/wordpool_EN.txt	DOCK	4	9	n/a	n/a	pyFR	1	TJ065
1301.052	2.702	3982151	WORD	n/a	wordpools/wordpool_EN.txt	LOCK	5	9	n/a	n/a	pyFR	1	TJ065
1303.754	2.636	3987554	WORD	n/a	wordpools/wordpool_EN.txt	VINE	6	9	n/a	n/a	pyFR	1	TJ065
1306.39	2.585	3992826	WORD	n/a	wordpools/wordpool_EN.txt	LAMP	7	9	n/a	n/a	pyFR	1	TJ065
1308.975	2.603	3997996	WORD	n/a	wordpools/wordpool_EN.txt	FLAG	8	9	n/a	n/a	pyFR	1	TJ065
1311.578	2.769	4003202	WORD	n/a	wordpools/wordpool_EN.txt	SHIRT	9	9	n/a	n/a	pyFR	1	TJ065
1314.347	2.819	4008739	WORD	n/a	wordpools/wordpool_EN.txt	FRUIT	10	9	n/a	n/a	pyFR	1	TJ065
1317.166	2.452	4014377	WORD	n/a	wordpools/wordpool_EN.txt	POND	11	9	n/a	n/a	pyFR	1	TJ065
1319.618	2.485	4019281	WORD	n/a	wordpools/wordpool_EN.txt	MOON	12	9	n/a	n/a	pyFR	1	TJ065
1322.103	2.535	4024251	WORD	n/a	wordpools/wordpool_EN.txt	TRAY	13	9	n/a	n/a	pyFR	1	TJ065
1324.638	2.486	4029321	WORD	n/a	wordpools/wordpool_EN.txt	CAGE	14	9	n/a	n/a	pyFR	1	TJ065
1327.124	1.619	4034292	WORD	n/a	wordpools/wordpool_EN.txt	FUDGE	15	9	n/a	n/a	pyFR	1	TJ065
1328.743	0.966	4037530	START	n/a	n/a	n/a	n/a	9	[-999 -999 -999]	-999	pyFR	1	TJ065
1329.709	4.187	4039462	PROB	4.153	n/a	n/a	n/a	9	[5 1 7]	13	pyFR	1	TJ065
1333.896	6.172	4047836	PROB	6.142	n/a	n/a	n/a	9	[9 9 9]	27	pyFR	1	TJ065
1340.068	7.84	4060179	PROB	7.81	n/a	n/a	n/a	9	[7 7 5]	19	pyFR	1	TJ065
1347.908	13.818	4075859	PROB	13.818	n/a	n/a	n/a	9	[9 8 6]	23	pyFR	1	TJ065
1361.726	1.245	4103494	STOP	n/a	n/a	n/a	n/a	9	[-999 -999 -999]	-999	pyFR	1	TJ065
1362.971	4.982	4105984	REC_START	n/a	n/a	n/a	-999	9	n/a	n/a	pyFR	1	TJ065
1367.953	3.124	4115947	REC_WORD	4.982	n/a	VASE	-999	9	n/a	n/a	pyFR	1	TJ065
1371.077	33.484	4122195	REC_WORD	8.106	n/a	LOCK	-999	9	n/a	n/a	pyFR	1	TJ065
1404.561	16.543	4189160	REC_WORD	41.59	n/a	POND	-999	9	n/a	n/a	pyFR	1	TJ065
1421.104	0.015	4222245	TRIAL	n/a	n/a	n/a	-999	10	n/a	n/a	pyFR	1	TJ065
1421.119	2.82	4222275	ORIENT	n/a	n/a	n/a	-999	10	n/a	n/a	pyFR	1	TJ065
1423.939	2.602	4227915	WORD	n/a	wordpools/wordpool_EN.txt	OWL	1	10	n/a	n/a	pyFR	1	TJ065
1426.541	2.552	4233118	WORD	n/a	wordpools/wordpool_EN.txt	COIN	2	10	n/a	n/a	pyFR	1	TJ065
1429.093	2.619	4238222	WORD	n/a	wordpools/wordpool_EN.txt	CALF	3	10	n/a	n/a	pyFR	1	TJ065
1431.712	2.785	4243460	WORD	n/a	wordpools/wordpool_EN.txt	BARN	4	10	n/a	n/a	pyFR	1	TJ065
1434.497	2.536	4249030	WORD	n/a	wordpools/wordpool_EN.txt	ROOM	5	10	n/a	n/a	pyFR	1	TJ065
1437.033	2.735	4254101	WORD	n/a	wordpools/wordpool_EN.txt	HILL	6	10	n/a	n/a	pyFR	1	TJ065
1439.768	2.487	4259571	WORD	n/a	wordpools/wordpool_EN.txt	SOCK	7	10	n/a	n/a	pyFR	1	TJ065
1442.255	2.835	4264545	WORD	n/a	wordpools/wordpool_EN.txt	BOOK	8	10	n/a	n/a	pyFR	1	TJ065
1445.09	2.468	4270215	WORD	n/a	wordpools/wordpool_EN.txt	GOLD	9	10	n/a	n/a	pyFR	1	TJ065
1447.558	2.636	4275151	WORD	n/a	wordpools/wordpool_EN.txt	ARM	10	10	n/a	n/a	pyFR	1	TJ065
1450.194	2.502	4280422	WORD	n/a	wordpools/wordpool_EN.txt	ROAD	11	10	n/a	n/a	pyFR	1	TJ065
1452.696	2.602	4285426	WORD	n/a	wordpools/wordpool_EN.txt	PARK	12	10	n/a	n/a	pyFR	1	TJ065
1455.298	2.602	4290630	WORD	n/a	wordpools/wordpool_EN.txt	LEAF	13	10	n/a	n/a	pyFR	1	TJ065
1457.9	2.636	4295834	WORD	n/a	wordpools/wordpool_EN.txt	WING	14	10	n/a	n/a	pyFR	1	TJ065
1460.536	1.619	4301106	WORD	n/a	wordpools/wordpool_EN.txt	SKUNK	15	10	n/a	n/a	pyFR	1	TJ065
1462.155	0.95	4304343	START	n/a	n/a	n/a	n/a	10	[-999 -999 -999]	-999	pyFR	1	TJ065
1463.105	3.269	4306243	PROB	3.237	n/a	n/a	n/a	10	[5 5 5]	15	pyFR	1	TJ065
1466.374	4.954	4312781	PROB	4.928	n/a	n/a	n/a	10	[1 5 6]	12	pyFR	1	TJ065
1471.328	6.439	4322689	PROB	6.406	n/a	n/a	n/a	10	[9 8 3]	20	pyFR	1	TJ065
1477.767	5.567	4335566	PROB	5.567	n/a	n/a	n/a	10	[5 7 8]	20	pyFR	1	TJ065
1483.334	1.189	4346700	STOP	n/a	n/a	n/a	n/a	10	[-999 -999 -999]	-999	pyFR	1	TJ065
1484.523	45.018	4349078	REC_START	n/a	n/a	n/a	-999	10	n/a	n/a	pyFR	1	TJ065
1529.541	546.629	4439110	REC_WORD_VV	45.018	n/a	<>	-999	10	n/a	n/a	pyFR	1	TJ065
2076.17	0.016	5532323	TRIAL	n/a	n/a	n/a	-999	11	n/a	n/a	pyFR	1	TJ065
2076.186	3.019	5532355	ORIENT	n/a	n/a	n/a	-999	11	n/a	n/a	pyFR	1	TJ065
2079.205	2.485	5538393	WORD	n/a	wordpools/wordpool_EN.txt	SWORD	1	11	n/a	n/a	pyFR	1	TJ065
2081.69	2.686	5543363	WORD	n/a	wordpools/wordpool_EN.txt	POLE	2	11	n/a	n/a	pyFR	1	TJ065
2084.376	2.452	5548735	WORD	n/a	wordpools/wordpool_EN.txt	PALM	3	11	n/a	n/a	pyFR	1	TJ065
2086.828	2.485	5553638	WORD	n/a	wordpools/wordpool_EN.txt	WAND	4	11	n/a	n/a	pyFR	1	TJ065
2089.313	2.786	5558608	WORD	n/a	wordpools/wordpool_EN.txt	TANK	5	11	n/a	n/a	pyFR	1	TJ065
2092.099	2.536	5564180	WORD	n/a	wordpools/wordpool_EN.txt	NEST	6	11	n/a	n/a	pyFR	1	TJ065
2094.635	2.735	5569252	WORD	n/a	wordpools/wordpool_EN.txt	GRAPE	7	11	n/a	n/a	pyFR	1	TJ065
2097.37	2.502	5574722	WORD	n/a	wordpools/wordpool_EN.txt	PEARL	8	11	n/a	n/a	pyFR	1	TJ065
2099.872	2.569	5579725	WORD	n/a	wordpools/wordpool_EN.txt	GATE	9	11	n/a	n/a	pyFR	1	TJ065
2102.441	2.586	5584863	WORD	n/a	wordpools/wordpool_EN.txt	CAKE	10	11	n/a	n/a	pyFR	1	TJ065
2105.027	2.719	5590035	WORD	n/a	wordpools/wordpool_EN.txt	HOOK	11	11	n/a	n/a	pyFR	1	TJ065
2107.746	2.552	5595473	WORD	n/a	wordpools/wordpool_EN.txt	BROOM	12	11	n/a	n/a	pyFR	1	TJ065
2110.298	2.802	5600577	WORD	n/a	wordpools/wordpool_EN.txt	BEE	13	11	n/a	n/a	pyFR	1	TJ065
2113.1	2.502	5606180	WORD	n/a	wordpools/wordpool_EN.txt	WEB	14	11	n/a	n/a	pyFR	1	TJ065
2115.602	1.62	5611184	WORD	n/a	wordpools/wordpool_EN.txt	FLEA	15	11	n/a	n/a	pyFR	1	TJ065
2117.222	1.199	5614424	START	n/a	n/a	n/a	n/a	11	[-999 -999 -999]	-999	pyFR	1	TJ065
2118.421	4.471	5616822	PROB	4.433	n/a	n/a	n/a	11	[6 8 1]	15	pyFR	1	TJ065
2122.892	4.12	5625764	PROB	4.09	n/a	n/a	n/a	11	[9 7 3]	19	pyFR	1	TJ065
2127.012	3.237	5634003	PROB	3.202	n/a	n/a	n/a	11	[9 8 2]	19	pyFR	1	TJ065
2130.249	3.936	5640477	PROB	3.909	n/a	n/a	n/a	11	[7 1 7]	15	pyFR	1	TJ065
2134.185	7.253	5648349	PROB	7.253	n/a	n/a	n/a	11	[3 8 3]	14	pyFR	1	TJ065
2141.438	1.204	5662854	STOP	n/a	n/a	n/a	n/a	11	[-999 -999 -999]	-999	pyFR	1	TJ065
2142.642	5.939	5665262	REC_START	n/a	n/a	n/a	-999	11	n/a	n/a	pyFR	1	TJ065
2148.581	5.007	5677139	REC_WORD_VV	5.939	n/a	<>	-999	11	n/a	n/a	pyFR	1	TJ065
2153.588	2.94	5687153	REC_WORD	10.946	n/a	SWORD	-999	11	n/a	n/a	pyFR	1	TJ065
2156.528	3.811	5693033	REC_WORD	13.886	n/a	TANK	-999	11	n/a	n/a	pyFR	1	TJ065
2160.339	34.331	5700654	REC_WORD	17.697	n/a	PALM	-999	11	n/a	n/a	pyFR	1	TJ065
2194.67	0.015	5769314	TRIAL	n/a	n/a	n/a	-999	12	n/a	n/a	pyFR	1	TJ065
2194.685	2.819	5769344	ORIENT	n/a	n/a	n/a	-999	12	n/a	n/a	pyFR	1	TJ065
2197.504	2.586	5774981	WORD	n/a	wordpools/wordpool_EN.txt	WOLF	1	12	n/a	n/a	pyFR	1	TJ065
2200.09	2.652	5780153	WORD	n/a	wordpools/wordpool_EN.txt	TRUCK	2	12	n/a	n/a	pyFR	1	TJ065
2202.742	2.736	5785457	WORD	n/a	wordpools/wordpool_EN.txt	BOWL	3	12	n/a	n/a	pyFR	1	TJ065
2205.478	2.735	5790929	WORD	n/a	wordpools/wordpool_EN.txt	KING	4	12	n/a	n/a	pyFR	1	TJ065
2208.213	2.769	5796399	WORD	n/a	wordpools/wordpool_EN.txt	FOG	5	12	n/a	n/a	pyFR	1	TJ065
2210.982	2.819	5801936	WORD	n/a	wordpools/wordpool_EN.txt	MAZE	6	12	n/a	n/a	pyFR	1	TJ065
2213.801	2.786	5807574	WORD	n/a	wordpools/wordpool_EN.txt	HAT	7	12	n/a	n/a	pyFR	1	TJ065
2216.587	2.736	5813146	WORD	n/a	wordpools/wordpool_EN.txt	FACE	8	12	n/a	n/a	pyFR	1	TJ065
2219.323	2.602	5818618	WORD	n/a	wordpools/wordpool_EN.txt	PEA	9	12	n/a	n/a	pyFR	1	TJ065
2221.925	2.535	5823821	WORD	n/a	wordpools/wordpool_EN.txt	CANE	10	12	n/a	n/a	pyFR	1	TJ065
2224.46	2.703	5828891	WORD	n/a	wordpools/wordpool_EN.txt	DEER	11	12	n/a	n/a	pyFR	1	TJ065
2227.163	2.652	5834297	WORD	n/a	wordpools/wordpool_EN.txt	TOOTH	12	12	n/a	n/a	pyFR	1	TJ065
2229.815	2.752	5839601	WORD	n/a	wordpools/wordpool_EN.txt	FLOOR	13	12	n/a	n/a	pyFR	1	TJ065
2232.567	2.435	5845105	WORD	n/a	wordpools/wordpool_EN.txt	MILK	14	12	n/a	n/a	pyFR	1	TJ065
2235.002	1.62	5849974	WORD	n/a	wordpools/wordpool_EN.txt	GEESE	15	12	n/a	n/a	pyFR	1	TJ065
2236.622	1.166	5853214	START	n/a	n/a	n/a	n/a	12	[-999 -999 -999]	-999	pyFR	1	TJ065
2237.788	3.87	5855546	PROB	3.842	n/a	n/a	n/a	12	[4 6 4]	14	pyFR	1	TJ065
2241.658	2.786	5863286	PROB	2.756	n/a	n/a	n/a	12	[5 5 6]	16	pyFR	1	TJ065
2244.444	3.703	5868858	PROB	3.666	n/a	n/a	n/a	12	[2 2 5]	9	pyFR	1	TJ065
2248.147	3.086	5876263	PROB	3.051	n/a	n/a	n/a	12	[2 1 1]	4	pyFR	1	TJ065
2251.233	9.133	5882435	PROB	9.133	n/a	n/a	n/a	12	[9 6 9]	24	pyFR	1	TJ065
2260.366	1.076	5900700	STOP	n/a	n/a	n/a	n/a	12	[-999 -999 -999]	-999	pyFR	1	TJ065
2261.442	2.227	5902852	REC_START	n/a	n/a	n/a	-999	12	n/a	n/a	pyFR	1	TJ065
2263.669	1.15	5907306	REC_WORD	2.227	n/a	TRUCK	-999	12	n/a	n/a	pyFR	1	TJ065
2264.819	21.447	5909606	REC_WORD	3.377	n/a	KING	-999	12	n/a	n/a	pyFR	1	TJ065
2286.266	1.0	5952498	REC_WORD	24.824	n/a	HAT	-999	12	n/a	n/a	pyFR	1	TJ065
2287.266	1.0	5954498	REC_WORD_VV	25.824	n/a	<>	-999	12	n/a	n/a	pyFR	1	TJ065
2288.266	34.778	5956498	REC_WORD_VV	26.824	n/a	<>	-999	12	n/a	n/a	pyFR	1	TJ065
2323.044	0.016	6026051	TRIAL	n/a	n/a	n/a	-999	13	n/a	n/a	pyFR	1	TJ065
2323.06	2.852	6026083	ORIENT	n/a	n/a	n/a	-999	13	n/a	n/a	pyFR	1	TJ065
2325.912	2.702	6031787	WORD	n/a	wordpools/wordpool_EN.txt	BATH	1	13	n/a	n/a	pyFR	1	TJ065
2328.614	2.653	6037191	WORD	n/a	wordpools/wordpool_EN.txt	HOLE	2	13	n/a	n/a	pyFR	1	TJ065
2331.267	2.752	6042497	WORD	n/a	wordpools/wordpool_EN.txt	PEN	3	13	n/a	n/a	pyFR	1	TJ065
2334.019	2.802	6048000	WORD	n/a	wordpools/wordpool_EN.txt	CLIFF	4	13	n/a	n/a	pyFR	1	TJ065
2336.821	2.769	6053604	WORD	n/a	wordpools/wordpool_EN.txt	TENT	5	13	n/a	n/a	pyFR	1	TJ065
2339.59	2.519	6059142	WORD	n/a	wordpools/wordpool_EN.txt	TOAD	6	13	n/a	n/a	pyFR	1	TJ065
2342.109	2.769	6064180	WORD	n/a	wordpools/wordpool_EN.txt	FAN	7	13	n/a	n/a	pyFR	1	TJ065
2344.878	2.635	6069717	WORD	n/a	wordpools/wordpool_EN.txt	JEEP	8	13	n/a	n/a	pyFR	1	TJ065
2347.513	2.754	6074987	WORD	n/a	wordpools/wordpool_EN.txt	BOY	9	13	n/a	n/a	pyFR	1	TJ065
2350.267	2.734	6080495	WORD	n/a	wordpools/wordpool_EN.txt	LAMB	10	13	n/a	n/a	pyFR	1	TJ065
2353.001	2.703	6085963	WORD	n/a	wordpools/wordpool_EN.txt	DRUM	11	13	n/a	n/a	pyFR	1	TJ065
2355.704	2.719	6091369	WORD	n/a	wordpools/wordpool_EN.txt	DRESS	12	13	n/a	n/a	pyFR	1	TJ065
2358.423	2.452	6096806	WORD	n/a	wordpools/wordpool_EN.txt	PIE	13	13	n/a	n/a	pyFR	1	TJ065
2360.875	2.819	6101710	WORD	n/a	wordpools/wordpool_EN.txt	BANK	14	13	n/a	n/a	pyFR	1	TJ065
2363.694	1.619	6107348	WORD	n/a	wordpools/wordpool_EN.txt	ELF	15	13	n/a	n/a	pyFR	1	TJ065
2365.313	0.951	6110586	START	n/a	n/a	n/a	n/a	13	[-999 -999 -999]	-999	pyFR	1	TJ065
2366.264	2.884	6112488	PROB	2.845	n/a	n/a	n/a	13	[6 1 1]	8	pyFR	1	TJ065
2369.148	5.939	6118255	PROB	5.906	n/a	n/a	n/a	13	[8 3 7]	18	pyFR	1	TJ065
2375.087	2.852	6130133	PROB	2.815	n/a	n/a	n/a	13	[7 5 5]	17	pyFR	1	TJ065
2377.939	2.702	6135837	PROB	2.675	n/a	n/a	n/a	13	[6 4 2]	12	pyFR	1	TJ065
2380.641	3.42	6141241	PROB	3.381	n/a	n/a	n/a	13	[4 3 7]	14	pyFR	1	TJ065
2384.061	2.249	6148080	PROB	2.249	n/a	n/a	n/a	13	[2 9 1]	12	pyFR	1	TJ065
2386.31	1.071	6152578	STOP	n/a	n/a	n/a	n/a	13	[-999 -999 -999]	-999	pyFR	1	TJ065
2387.381	1.878	6154720	REC_START	n/a	n/a	n/a	-999	13	n/a	n/a	pyFR	1	TJ065
2389.259	2.081	6158476	REC_WORD	1.878	n/a	ELF	-999	13	n/a	n/a	pyFR	1	TJ065
2391.34	5.338	6162638	REC_WORD	3.959	n/a	LAMB	-999	13	n/a	n/a	pyFR	1	TJ065
2396.678	10.774	6173313	REC_WORD	9.297	n/a	TENT	-999	13	n/a	n/a	pyFR	1	TJ065
2407.452	84.767	6194860	REC_WORD	20.071	n/a	PIE	-999	13	n/a	n/a	pyFR	1	TJ065
2492.219	0.016	6364387	TRIAL	n/a	n/a	n/a	-999	14	n/a	n/a	pyFR	1	TJ065
2492.235	2.702	6364419	ORIENT	n/a	n/a	n/a	-999	14	n/a	n/a	pyFR	1	TJ065
2494.937	2.569	6369823	WORD	n/a	wordpools/wordpool_EN.txt	TOE	1	14	n/a	n/a	pyFR	1	TJ065
2497.506	2.77	6374961	WORD	n/a	wordpools/wordpool_EN.txt	TIE	2	14	n/a	n/a	pyFR	1	TJ065
2500.276	2.585	6380501	WORD	n/a	wordpools/wordpool_EN.txt	GRASS	3	14	n/a	n/a	pyFR	1	TJ065
2502.861	2.452	6385671	WORD	n/a	wordpools/wordpool_EN.txt	NOSE	4	14	n/a	n/a	pyFR	1	TJ065
2505.313	2.819	6390574	WORD	n/a	wordpools/wordpool_EN.txt	BED	5	14	n/a	n/a	pyFR	1	TJ065
2508.132	2.685	6396212	WORD	n/a	wordpools/wordpool_EN.txt	HAWK	6	14	n/a	n/a	pyFR	1	TJ065
2510.817	2.652	6401582	WORD	n/a	wordpools/wordpool_EN.txt	BEAK	7	14	n/a	n/a	pyFR	1	TJ065
2513.469	2.636	6406886	WORD	n/a	wordpools/wordpool_EN.txt	BUSH	8	14	n/a	n/a	pyFR	1	TJ065
2516.105	2.802	6412157	WORD	n/a	wordpools/wordpool_EN.txt	JAR	9	14	n/a	n/a	pyFR	1	TJ065
2518.907	2.803	6417761	WORD	n/a	wordpools/wordpool_EN.txt	SPOON	10	14	n/a	n/a	pyFR	1	TJ065
2521.71	2.602	6423367	WORD	n/a	wordpools/wordpool_EN.txt	COAT	11	14	n/a	n/a	pyFR	1	TJ065
2524.312	2.452	6428571	WORD	n/a	wordpools/wordpool_EN.txt	YARD	12	14	n/a	n/a	pyFR	1	TJ065
2526.764	2.619	6433475	WORD	n/a	wordpools/wordpool_EN.txt	SAIL	13	14	n/a	n/a	pyFR	1	TJ065
2529.383	2.635	6438712	WORD	n/a	wordpools/wordpool_EN.txt	STEAM	14	14	n/a	n/a	pyFR	1	TJ065
2532.018	1.62	6443982	WORD	n/a	wordpools/wordpool_EN.txt	SEAT	15	14	n/a	n/a	pyFR	1	TJ065
2533.638	1.083	6447222	START	n/a	n/a	n/a	n/a	14	[-999 -999 -999]	-999	pyFR	1	TJ065
2534.721	3.252	6449388	PROB	3.221	n/a	n/a	n/a	14	[9 8 1]	18	pyFR	1	TJ065
2537.973	3.32	6455892	PROB	3.282	n/a	n/a	n/a	14	[1 6 6]	13	pyFR	1	TJ065
2541.293	3.436	6462531	PROB	3.401	n/a	n/a	n/a	14	[5 6 6]	17	pyFR	1	TJ065
2544.729	5.605	6469403	PROB	5.573	n/a	n/a	n/a	14	[4 3 5]	12	pyFR	1	TJ065
2550.334	7.224	6480613	PROB	7.224	n/a	n/a	n/a	14	[5 8 1]	14	pyFR	1	TJ065
2557.558	1.05	6495060	STOP	n/a	n/a	n/a	n/a	14	[-999 -999 -999]	-999	pyFR	1	TJ065
2558.608	2.539	6497160	REC_START	n/a	n/a	n/a	-999	14	n/a	n/a	pyFR	1	TJ065
2561.147	9.19	6502238	REC_WORD	2.539	n/a	SAIL	-999	14	n/a	n/a	pyFR	1	TJ065
2570.337	6.267	6520617	REC_WORD	11.729	n/a	TOE	-999	14	n/a	n/a	pyFR	1	TJ065
2576.604	34.649	6533151	REC_WORD	17.996	n/a	BED	-999	14	n/a	n/a	pyFR	1	TJ065
2611.253	0.016	6602446	TRIAL	n/a	n/a	n/a	-999	15	n/a	n/a	pyFR	1	TJ065
2611.269	2.768	6602478	ORIENT	n/a	n/a	n/a	-999	15	n/a	n/a	pyFR	1	TJ065
2614.037	2.702	6608013	WORD	n/a	wordpools/wordpool_EN.txt	LEG	1	15	n/a	n/a	pyFR	1	TJ065
2616.739	2.803	6613417	WORD	n/a	wordpools/wordpool_EN.txt	HEN	2	15	n/a	n/a	pyFR	1	TJ065
2619.542	2.552	6619023	WORD	n/a	wordpools/wordpool_EN.txt	TOAST	3	15	n/a	n/a	pyFR	1	TJ065
2622.094	2.819	6624127	WORD	n/a	wordpools/wordpool_EN.txt	PIPE	4	15	n/a	n/a	pyFR	1	TJ065
2624.913	2.519	6629765	WORD	n/a	wordpools/wordpool_EN.txt	STOVE	5	15	n/a	n/a	pyFR	1	TJ065
2627.432	2.602	6634802	WORD	n/a	wordpools/wordpool_EN.txt	BRUSH	6	15	n/a	n/a	pyFR	1	TJ065
2630.034	2.635	6640006	WORD	n/a	wordpools/wordpool_EN.txt	ROSE	7	15	n/a	n/a	pyFR	1	TJ065
2632.669	2.736	6645276	WORD	n/a	wordpools/wordpool_EN.txt	SHEEP	8	15	n/a	n/a	pyFR	1	TJ065
2635.405	2.519	6650748	WORD	n/a	wordpools/wordpool_EN.txt	SPARK	9	15	n/a	n/a	pyFR	1	TJ065
2637.924	2.669	6655786	WORD	n/a	wordpools/wordpool_EN.txt	STORE	10	15	n/a	n/a	pyFR	1	TJ065
2640.593	2.785	6661123	WORD	n/a	wordpools/wordpool_EN.txt	BAT	11	15	n/a	n/a	pyFR	1	TJ065
2643.378	2.753	6666693	WORD	n/a	wordpools/wordpool_EN.txt	DUCK	12	15	n/a	n/a	pyFR	1	TJ065
2646.131	2.702	6672199	WORD	n/a	wordpools/wordpool_EN.txt	FORK	13	15	n/a	n/a	pyFR	1	TJ065
2648.833	2.702	6677603	WORD	n/a	wordpools/wordpool_EN.txt	HORN	14	15	n/a	n/a	pyFR	1	TJ065
2651.535	1.62	6683006	WORD	n/a	wordpools/wordpool_EN.txt	ANT	15	15	n/a	n/a	pyFR	1	TJ065
2653.155	1.166	6686246	START	n/a	n/a	n/a	n/a	15	[-999 -999 -999]	-999	pyFR	1	TJ065
2654.321	5.238	6688578	PROB	5.205	n/a	n/a	n/a	15	[7 9 5]	21	pyFR	1	TJ065
2659.559	7.323	6699054	PROB	7.295	n/a	n/a	n/a	15	[2 5 4]	11	pyFR	1	TJ065
2666.882	8.868	6713699	PROB	8.868	n/a	n/a	n/a	15	[7 8 3]	18	pyFR	1	TJ065
2675.75	1.074	6731434	STOP	n/a	n/a	n/a	n/a	15	[-999 -999 -999]	-999	pyFR	1	TJ065
2676.824	45.0	6733582	REC_START	n/a	n/a	n/a	-999	15	n/a	n/a	pyFR	1	TJ065
2721.824	25.91	6823579	REC_WORD_VV	45.0	n/a	<>	-999	15	n/a	n/a	pyFR	1	TJ065
2747.734	0.015	6875397	TRIAL	n/a	n/a	n/a	-999	16	n/a	n/a	pyFR	1	TJ065
2747.749	2.953	6875427	ORIENT	n/a	n/a	n/a	-999	16	n/a	n/a	pyFR	1	TJ065
2750.702	2.819	6881332	WORD	n/a	wordpools/wordpool_EN.txt	BEAR	1	16	n/a	n/a	pyFR	1	TJ065
2753.521	2.819	6886970	WORD	n/a	wordpools/wordpool_EN.txt	OAK	2	16	n/a	n/a	pyFR	1	TJ065
2756.34	2.619	6892608	WORD	n/a	wordpools/wordpool_EN.txt	HOOF	3	16	n/a	n/a	pyFR	1	TJ065
2758.959	2.469	6897846	WORD	n/a	wordpools/wordpool_EN.txt	WORM	4	16	n/a	n/a	pyFR	1	TJ065
2761.428	2.685	6902783	WORD	n/a	wordpools/wordpool_EN.txt	BAG	5	16	n/a	n/a	pyFR	1	TJ065
2764.113	2.819	6908153	WORD	n/a	wordpools/wordpool_EN.txt	FOX	6	16	n/a	n/a	pyFR	1	TJ065
2766.932	2.753	6913791	WORD	n/a	wordpools/wordpool_EN.txt	MAP	7	16	n/a	n/a	pyFR	1	TJ065
2769.685	2.535	6919297	WORD	n/a	wordpools/wordpool_EN.txt	BIRD	8	16	n/a	n/a	pyFR	1	TJ065
2772.22	2.652	6924367	WORD	n/a	wordpools/wordpool_EN.txt	BRICK	9	16	n/a	n/a	pyFR	1	TJ065
2774.872	2.636	6929670	WORD	n/a	wordpools/wordpool_EN.txt	VEST	10	16	n/a	n/a	pyFR	1	TJ065
2777.508	2.77	6934942	WORD	n/a	wordpools/wordpool_EN.txt	RICE	11	16	n/a	n/a	pyFR	1	TJ065
2780.278	2.751	6940482	WORD	n/a	wordpools/wordpool_EN.txt	SALT	12	16	n/a	n/a	pyFR	1	TJ065
2783.029	2.469	6945984	WORD	n/a	wordpools/wordpool_EN.txt	SEED	13	16	n/a	n/a	pyFR	1	TJ065
2785.498	2.819	6950921	WORD	n/a	wordpools/wordpool_EN.txt	TOOL	14	16	n/a	n/a	pyFR	1	TJ065
2788.317	1.619	6956559	WORD	n/a	wordpools/wordpool_EN.txt	BOARD	15	16	n/a	n/a	pyFR	1	TJ065
2789.936	1.116	6959797	START	n/a	n/a	n/a	n/a	16	[-999 -999 -999]	-999	pyFR	1	TJ065
2791.052	3.537	6962029	PROB	3.506	n/a	n/a	n/a	16	[1 9 3]	13	pyFR	1	TJ065
2794.589	4.671	6969103	PROB	4.641	n/a	n/a	n/a	16	[7 1 3]	11	pyFR	1	TJ065
2799.26	4.103	6978444	PROB	4.074	n/a	n/a	n/a	16	[2 1 8]	11	pyFR	1	TJ065
2803.363	10.171	6986650	PROB	10.171	n/a	n/a	n/a	16	[8 3 4]	15	pyFR	1	TJ065
2813.534	1.189	7006991	STOP	n/a	n/a	n/a	n/a	16	[-999 -999 -999]	-999	pyFR	1	TJ065
2814.723	14.658	7009369	REC_START	n/a	n/a	n/a	-999	16	n/a	n/a	pyFR	1	TJ065
2829.381	9.256	7038684	REC_WORD	14.658	n/a	BEAR	-999	16	n/a	n/a	pyFR	1	TJ065
2838.637	698.06	7057195	REC_WORD	23.914	n/a	BIRD	-999	16	n/a	n/a	pyFR	1	TJ065
3536.697	0.119	8453258	SESS_END	n/a	n/a	n/a	-999	16	n/a	n/a	pyFR	1	TJ065
3536.816	0.0	8453496	E	n/a	n/a	n/a	-999	16	n/a	n/a	pyFR	1	TJ065
