onset	duration	sample	trial_type	response_time	stim_file	item_name	serialpos	list	test	answer	experiment	session	subject
0.0	0.0	428638	B	n/a	n/a	n/a	-999.0	-999	n/a	n/a	pyFR	0	TJ078
0.0	100.161	428638	SESS_START	n/a	n/a	n/a	-999.0	-999	n/a	n/a	pyFR	0	TJ078
100.161	0.363	528801	START	n/a	n/a	n/a	n/a	0	[-999 -999 -999]	-999.0	pyFR	0	TJ078
100.524	6.31	529164	PROB	6.281	n/a	n/a	n/a	0	[2 8 4]	14.0	pyFR	0	TJ078
106.834	6.794	535474	PROB	6.761	n/a	n/a	n/a	0	[5 8 4]	17.0	pyFR	0	TJ078
113.628	5.677	542268	PROB	5.648	n/a	n/a	n/a	0	[6 6 9]	21.0	pyFR	0	TJ078
119.305	5.709	547945	PROB	5.678	n/a	n/a	n/a	0	[7 9 6]	22.0	pyFR	0	TJ078
125.014	4.79	553655	PROB	4.76	n/a	n/a	n/a	0	[4 8 2]	14.0	pyFR	0	TJ078
129.804	4.849	558445	PROB	4.849	n/a	n/a	n/a	0	[6 3 8]	17.0	pyFR	0	TJ078
134.653	80.811	563294	STOP	n/a	n/a	n/a	n/a	0	[-999 -999 -999]	-999.0	pyFR	0	TJ078
215.464	0.016	644106	TRIAL	n/a	n/a	n/a	-999.0	1	n/a	n/a	pyFR	0	TJ078
215.48	1.6	644122	ORIENT	n/a	n/a	n/a	-999.0	1	n/a	n/a	pyFR	0	TJ078
218.268	1.6	646910	WORD	n/a	wordpools/wordpool_EN.txt	BROOM	1.0	1	n/a	n/a	pyFR	0	TJ078
220.906	1.6	649549	WORD	n/a	wordpools/wordpool_EN.txt	LEG	2.0	1	n/a	n/a	pyFR	0	TJ078
223.56	1.6	652203	WORD	n/a	wordpools/wordpool_EN.txt	RUG	3.0	1	n/a	n/a	pyFR	0	TJ078
226.064	1.6	654707	WORD	n/a	wordpools/wordpool_EN.txt	BAT	4.0	1	n/a	n/a	pyFR	0	TJ078
228.669	1.6	657312	WORD	n/a	wordpools/wordpool_EN.txt	DOCK	5.0	1	n/a	n/a	pyFR	0	TJ078
231.323	1.6	659966	WORD	n/a	wordpools/wordpool_EN.txt	MUD	6.0	1	n/a	n/a	pyFR	0	TJ078
234.077	1.6	662720	WORD	n/a	wordpools/wordpool_EN.txt	MOOSE	7.0	1	n/a	n/a	pyFR	0	TJ078
236.664	1.6	665307	WORD	n/a	wordpools/wordpool_EN.txt	COUCH	8.0	1	n/a	n/a	pyFR	0	TJ078
239.203	1.6	667846	WORD	n/a	wordpools/wordpool_EN.txt	LAMP	9.0	1	n/a	n/a	pyFR	0	TJ078
241.924	1.6	670567	WORD	n/a	wordpools/wordpool_EN.txt	JAIL	10.0	1	n/a	n/a	pyFR	0	TJ078
244.428	1.6	673071	WORD	n/a	wordpools/wordpool_EN.txt	STRAW	11.0	1	n/a	n/a	pyFR	0	TJ078
246.932	1.6	675575	WORD	n/a	wordpools/wordpool_EN.txt	VEST	12.0	1	n/a	n/a	pyFR	0	TJ078
249.602	1.6	678245	WORD	n/a	wordpools/wordpool_EN.txt	ROPE	13.0	1	n/a	n/a	pyFR	0	TJ078
252.324	1.6	680967	WORD	n/a	wordpools/wordpool_EN.txt	NAIL	14.0	1	n/a	n/a	pyFR	0	TJ078
254.962	1.6	683605	WORD	n/a	wordpools/wordpool_EN.txt	SKY	15.0	1	n/a	n/a	pyFR	0	TJ078
256.566	0.884	685209	START	n/a	n/a	n/a	n/a	1	[-999 -999 -999]	-999.0	pyFR	0	TJ078
257.45	5.826	686093	PROB	5.791	n/a	n/a	n/a	1	[5 6 9]	20.0	pyFR	0	TJ078
263.276	6.21	691919	PROB	6.182	n/a	n/a	n/a	1	[6 5 6]	17.0	pyFR	0	TJ078
269.486	5.075	698130	PROB	5.052	n/a	n/a	n/a	1	[6 1 7]	14.0	pyFR	0	TJ078
274.561	4.905	703205	PROB	4.905	n/a	n/a	n/a	1	[9 1 2]	12.0	pyFR	0	TJ078
279.466	1.039	708110	STOP	n/a	n/a	n/a	n/a	1	[-999 -999 -999]	-999.0	pyFR	0	TJ078
280.505	9.514	709149	REC_START	n/a	n/a	n/a	-999.0	1	n/a	n/a	pyFR	0	TJ078
290.019	3.425	718663	REC_WORD_VV	9.514	n/a	<>	-999.0	1	n/a	n/a	pyFR	0	TJ078
293.444	2.05	722088	REC_WORD	12.939	n/a	COUCH	-999.0	1	n/a	n/a	pyFR	0	TJ078
295.494	3.241	724138	REC_WORD	14.989	n/a	MUG	-999.0	1	n/a	n/a	pyFR	0	TJ078
298.735	3.913	727379	REC_WORD	18.23	n/a	LAMP	-999.0	1	n/a	n/a	pyFR	0	TJ078
302.648	27.037	731292	REC_WORD	22.143	n/a	BROOM	-999.0	1	n/a	n/a	pyFR	0	TJ078
329.685	0.016	758330	TRIAL	n/a	n/a	n/a	-999.0	2	n/a	n/a	pyFR	0	TJ078
329.701	1.6	758346	ORIENT	n/a	n/a	n/a	-999.0	2	n/a	n/a	pyFR	0	TJ078
332.34	1.6	760985	WORD	n/a	wordpools/wordpool_EN.txt	CLAY	1.0	2	n/a	n/a	pyFR	0	TJ078
334.877	1.6	763522	WORD	n/a	wordpools/wordpool_EN.txt	MAP	2.0	2	n/a	n/a	pyFR	0	TJ078
337.581	1.6	766226	WORD	n/a	wordpools/wordpool_EN.txt	THUMB	3.0	2	n/a	n/a	pyFR	0	TJ078
340.353	1.6	768998	WORD	n/a	wordpools/wordpool_EN.txt	ARM	4.0	2	n/a	n/a	pyFR	0	TJ078
342.824	1.6	771469	WORD	n/a	wordpools/wordpool_EN.txt	BADGE	5.0	2	n/a	n/a	pyFR	0	TJ078
345.244	1.6	773889	WORD	n/a	wordpools/wordpool_EN.txt	PIE	6.0	2	n/a	n/a	pyFR	0	TJ078
347.764	1.6	776409	WORD	n/a	wordpools/wordpool_EN.txt	DITCH	7.0	2	n/a	n/a	pyFR	0	TJ078
350.203	1.6	778848	WORD	n/a	wordpools/wordpool_EN.txt	PEAR	8.0	2	n/a	n/a	pyFR	0	TJ078
352.957	1.6	781602	WORD	n/a	wordpools/wordpool_EN.txt	STAIR	9.0	2	n/a	n/a	pyFR	0	TJ078
355.594	1.6	784239	WORD	n/a	wordpools/wordpool_EN.txt	BENCH	10.0	2	n/a	n/a	pyFR	0	TJ078
358.383	1.6	787028	WORD	n/a	wordpools/wordpool_EN.txt	STREET	11.0	2	n/a	n/a	pyFR	0	TJ078
360.802	1.6	789448	WORD	n/a	wordpools/wordpool_EN.txt	LOCK	12.0	2	n/a	n/a	pyFR	0	TJ078
363.341	1.6	791987	WORD	n/a	wordpools/wordpool_EN.txt	SLIME	13.0	2	n/a	n/a	pyFR	0	TJ078
366.03	1.6	794676	WORD	n/a	wordpools/wordpool_EN.txt	ANT	14.0	2	n/a	n/a	pyFR	0	TJ078
368.549	1.6	797195	WORD	n/a	wordpools/wordpool_EN.txt	BEAK	15.0	2	n/a	n/a	pyFR	0	TJ078
370.153	0.984	798799	START	n/a	n/a	n/a	n/a	2	[-999 -999 -999]	-999.0	pyFR	0	TJ078
371.137	4.958	799783	PROB	4.926	n/a	n/a	n/a	2	[4 3 1]	8.0	pyFR	0	TJ078
376.095	4.892	804741	PROB	4.871	n/a	n/a	n/a	2	[2 2 7]	11.0	pyFR	0	TJ078
380.987	6.093	809633	PROB	6.06	n/a	n/a	n/a	2	[7 9 3]	19.0	pyFR	0	TJ078
387.08	4.518	815726	PROB	4.518	n/a	n/a	n/a	2	[8 5 1]	14.0	pyFR	0	TJ078
391.598	1.074	820244	STOP	n/a	n/a	n/a	n/a	2	[-999 -999 -999]	-999.0	pyFR	0	TJ078
392.672	1.96	821318	REC_START	n/a	n/a	n/a	-999.0	2	n/a	n/a	pyFR	0	TJ078
394.632	1.061	823278	REC_WORD	1.96	n/a	HAND	-999.0	2	n/a	n/a	pyFR	0	TJ078
395.693	4.329	824339	REC_WORD	3.021	n/a	SLIME	-999.0	2	n/a	n/a	pyFR	0	TJ078
400.022	20.142	828668	REC_WORD	7.35	n/a	BRAIN	-999.0	2	n/a	n/a	pyFR	0	TJ078
420.164	5.964	848811	REC_WORD	27.492	n/a	COUCH	-999.0	2	n/a	n/a	pyFR	0	TJ078
426.128	1.071	854775	REC_WORD	33.456	n/a	BEAK	-999.0	2	n/a	n/a	pyFR	0	TJ078
427.199	13.385	855846	REC_WORD	34.527	n/a	DITCH	-999.0	2	n/a	n/a	pyFR	0	TJ078
440.584	0.017	869231	TRIAL	n/a	n/a	n/a	-999.0	3	n/a	n/a	pyFR	0	TJ078
440.601	1.6	869248	ORIENT	n/a	n/a	n/a	-999.0	3	n/a	n/a	pyFR	0	TJ078
443.49	1.6	872137	WORD	n/a	wordpools/wordpool_EN.txt	NOSE	1.0	3	n/a	n/a	pyFR	0	TJ078
446.011	1.6	874658	WORD	n/a	wordpools/wordpool_EN.txt	FILM	2.0	3	n/a	n/a	pyFR	0	TJ078
448.731	1.6	877378	WORD	n/a	wordpools/wordpool_EN.txt	BIRD	3.0	3	n/a	n/a	pyFR	0	TJ078
451.486	1.6	880133	WORD	n/a	wordpools/wordpool_EN.txt	FORK	4.0	3	n/a	n/a	pyFR	0	TJ078
454.107	1.6	882754	WORD	n/a	wordpools/wordpool_EN.txt	BED	5.0	3	n/a	n/a	pyFR	0	TJ078
456.744	1.6	885392	WORD	n/a	wordpools/wordpool_EN.txt	CLIFF	6.0	3	n/a	n/a	pyFR	0	TJ078
459.367	1.6	888015	WORD	n/a	wordpools/wordpool_EN.txt	BRUSH	7.0	3	n/a	n/a	pyFR	0	TJ078
461.954	1.6	890602	WORD	n/a	wordpools/wordpool_EN.txt	TRAIN	8.0	3	n/a	n/a	pyFR	0	TJ078
464.725	1.6	893373	WORD	n/a	wordpools/wordpool_EN.txt	DAD	9.0	3	n/a	n/a	pyFR	0	TJ078
467.262	1.6	895910	WORD	n/a	wordpools/wordpool_EN.txt	CRANE	10.0	3	n/a	n/a	pyFR	0	TJ078
469.782	1.6	898430	WORD	n/a	wordpools/wordpool_EN.txt	PASTE	11.0	3	n/a	n/a	pyFR	0	TJ078
472.437	1.6	901085	WORD	n/a	wordpools/wordpool_EN.txt	SPARK	12.0	3	n/a	n/a	pyFR	0	TJ078
475.209	1.6	903857	WORD	n/a	wordpools/wordpool_EN.txt	SHELL	13.0	3	n/a	n/a	pyFR	0	TJ078
477.729	1.6	906377	WORD	n/a	wordpools/wordpool_EN.txt	WOOD	14.0	3	n/a	n/a	pyFR	0	TJ078
480.351	1.6	908999	WORD	n/a	wordpools/wordpool_EN.txt	BLOOM	15.0	3	n/a	n/a	pyFR	0	TJ078
481.954	0.984	910602	START	n/a	n/a	n/a	n/a	3	[-999 -999 -999]	-999.0	pyFR	0	TJ078
482.938	7.229	911586	PROB	7.204	n/a	n/a	n/a	3	[1 7 6]	14.0	pyFR	0	TJ078
490.167	4.573	918815	PROB	4.55	n/a	n/a	n/a	3	[3 2 5]	10.0	pyFR	0	TJ078
494.74	3.674	923388	PROB	3.642	n/a	n/a	n/a	3	[1 2 6]	9.0	pyFR	0	TJ078
498.414	10.017	927062	PROB	10.017	n/a	n/a	n/a	3	[7 2 4]	13.0	pyFR	0	TJ078
508.431	1.068	937080	STOP	n/a	n/a	n/a	n/a	3	[-999 -999 -999]	-999.0	pyFR	0	TJ078
509.499	1.652	938148	REC_START	n/a	n/a	n/a	-999.0	3	n/a	n/a	pyFR	0	TJ078
511.151	2.168	939800	REC_WORD	1.652	n/a	CRANE	-999.0	3	n/a	n/a	pyFR	0	TJ078
513.319	2.342	941968	REC_WORD	3.82	n/a	CLIFF	-999.0	3	n/a	n/a	pyFR	0	TJ078
515.661	10.411	944310	REC_WORD	6.162	n/a	BIRD	-999.0	3	n/a	n/a	pyFR	0	TJ078
526.072	6.665	954721	REC_WORD	16.573	n/a	MOUTH	-999.0	3	n/a	n/a	pyFR	0	TJ078
532.737	5.032	961386	REC_WORD	23.238	n/a	SPARK	-999.0	3	n/a	n/a	pyFR	0	TJ078
537.769	19.392	966418	REC_WORD	28.27	n/a	CLIFF	-999.0	3	n/a	n/a	pyFR	0	TJ078
557.161	0.016	985811	TRIAL	n/a	n/a	n/a	-999.0	4	n/a	n/a	pyFR	0	TJ078
557.177	1.6	985827	ORIENT	n/a	n/a	n/a	-999.0	4	n/a	n/a	pyFR	0	TJ078
559.882	1.6	988532	WORD	n/a	wordpools/wordpool_EN.txt	CALF	1.0	4	n/a	n/a	pyFR	0	TJ078
562.403	1.6	991053	WORD	n/a	wordpools/wordpool_EN.txt	HAT	2.0	4	n/a	n/a	pyFR	0	TJ078
565.14	1.6	993790	WORD	n/a	wordpools/wordpool_EN.txt	TOOL	3.0	4	n/a	n/a	pyFR	0	TJ078
567.61	1.6	996260	WORD	n/a	wordpools/wordpool_EN.txt	FORT	4.0	4	n/a	n/a	pyFR	0	TJ078
570.216	1.6	998866	WORD	n/a	wordpools/wordpool_EN.txt	FACE	5.0	4	n/a	n/a	pyFR	0	TJ078
572.669	1.6	1001319	WORD	n/a	wordpools/wordpool_EN.txt	POND	6.0	4	n/a	n/a	pyFR	0	TJ078
575.09	1.6	1003740	WORD	n/a	wordpools/wordpool_EN.txt	ROOT	7.0	4	n/a	n/a	pyFR	0	TJ078
577.577	1.6	1006227	WORD	n/a	wordpools/wordpool_EN.txt	PLANE	8.0	4	n/a	n/a	pyFR	0	TJ078
580.349	1.6	1008999	WORD	n/a	wordpools/wordpool_EN.txt	TRASH	9.0	4	n/a	n/a	pyFR	0	TJ078
582.937	1.6	1011587	WORD	n/a	wordpools/wordpool_EN.txt	CUBE	10.0	4	n/a	n/a	pyFR	0	TJ078
585.64	1.6	1014290	WORD	n/a	wordpools/wordpool_EN.txt	MULE	11.0	4	n/a	n/a	pyFR	0	TJ078
588.396	1.6	1017046	WORD	n/a	wordpools/wordpool_EN.txt	SQUARE	12.0	4	n/a	n/a	pyFR	0	TJ078
590.933	1.6	1019583	WORD	n/a	wordpools/wordpool_EN.txt	FLAG	13.0	4	n/a	n/a	pyFR	0	TJ078
593.72	1.6	1022370	WORD	n/a	wordpools/wordpool_EN.txt	RICE	14.0	4	n/a	n/a	pyFR	0	TJ078
596.309	1.6	1024959	WORD	n/a	wordpools/wordpool_EN.txt	SOAP	15.0	4	n/a	n/a	pyFR	0	TJ078
597.912	1.151	1026563	START	n/a	n/a	n/a	n/a	4	[-999 -999 -999]	-999.0	pyFR	0	TJ078
599.063	7.229	1027714	PROB	7.204	n/a	n/a	n/a	4	[6 9 6]	21.0	pyFR	0	TJ078
606.292	7.344	1034943	PROB	7.311	n/a	n/a	n/a	4	[2 1 8]	11.0	pyFR	0	TJ078
613.636	4.785	1042287	PROB	4.785	n/a	n/a	n/a	4	[1 4 5]	10.0	pyFR	0	TJ078
618.421	1.11	1047072	STOP	n/a	n/a	n/a	n/a	4	[-999 -999 -999]	-999.0	pyFR	0	TJ078
619.531	1.267	1048182	REC_START	n/a	n/a	n/a	-999.0	4	n/a	n/a	pyFR	0	TJ078
620.798	1.158	1049449	REC_WORD	1.267	n/a	CALF	-999.0	4	n/a	n/a	pyFR	0	TJ078
621.956	2.491	1050607	REC_WORD	2.425	n/a	SQUARE	-999.0	4	n/a	n/a	pyFR	0	TJ078
624.447	4.388	1053098	REC_WORD	4.916	n/a	HAT	-999.0	4	n/a	n/a	pyFR	0	TJ078
628.835	38.157	1057486	REC_WORD	9.304	n/a	PLANE	-999.0	4	n/a	n/a	pyFR	0	TJ078
666.992	0.017	1095644	TRIAL	n/a	n/a	n/a	-999.0	5	n/a	n/a	pyFR	0	TJ078
667.009	1.6	1095661	ORIENT	n/a	n/a	n/a	-999.0	5	n/a	n/a	pyFR	0	TJ078
670.014	1.6	1098666	WORD	n/a	wordpools/wordpool_EN.txt	HAWK	1.0	5	n/a	n/a	pyFR	0	TJ078
672.484	1.6	1101136	WORD	n/a	wordpools/wordpool_EN.txt	VASE	2.0	5	n/a	n/a	pyFR	0	TJ078
674.972	1.6	1103624	WORD	n/a	wordpools/wordpool_EN.txt	LAWN	3.0	5	n/a	n/a	pyFR	0	TJ078
677.658	1.6	1106310	WORD	n/a	wordpools/wordpool_EN.txt	GUARD	4.0	5	n/a	n/a	pyFR	0	TJ078
680.381	1.6	1109033	WORD	n/a	wordpools/wordpool_EN.txt	CANE	5.0	5	n/a	n/a	pyFR	0	TJ078
683.169	1.6	1111821	WORD	n/a	wordpools/wordpool_EN.txt	GEESE	6.0	5	n/a	n/a	pyFR	0	TJ078
685.94	1.6	1114592	WORD	n/a	wordpools/wordpool_EN.txt	HOSE	7.0	5	n/a	n/a	pyFR	0	TJ078
688.66	1.6	1117312	WORD	n/a	wordpools/wordpool_EN.txt	PET	8.0	5	n/a	n/a	pyFR	0	TJ078
691.4	1.6	1120052	WORD	n/a	wordpools/wordpool_EN.txt	MOUSE	9.0	5	n/a	n/a	pyFR	0	TJ078
693.903	1.6	1122556	WORD	n/a	wordpools/wordpool_EN.txt	WALL	10.0	5	n/a	n/a	pyFR	0	TJ078
696.59	1.6	1125243	WORD	n/a	wordpools/wordpool_EN.txt	ROOM	11.0	5	n/a	n/a	pyFR	0	TJ078
699.162	1.6	1127815	WORD	n/a	wordpools/wordpool_EN.txt	PRINCE	12.0	5	n/a	n/a	pyFR	0	TJ078
701.899	1.6	1130552	WORD	n/a	wordpools/wordpool_EN.txt	CAPE	13.0	5	n/a	n/a	pyFR	0	TJ078
704.42	1.6	1133073	WORD	n/a	wordpools/wordpool_EN.txt	SHIRT	14.0	5	n/a	n/a	pyFR	0	TJ078
707.108	1.6	1135761	WORD	n/a	wordpools/wordpool_EN.txt	STORE	15.0	5	n/a	n/a	pyFR	0	TJ078
708.711	1.034	1137364	START	n/a	n/a	n/a	n/a	5	[-999 -999 -999]	-999.0	pyFR	0	TJ078
709.745	5.91	1138398	PROB	5.884	n/a	n/a	n/a	5	[9 3 7]	19.0	pyFR	0	TJ078
715.655	4.475	1144308	PROB	4.455	n/a	n/a	n/a	5	[6 1 7]	14.0	pyFR	0	TJ078
720.13	11.886	1148783	PROB	11.886	n/a	n/a	n/a	5	[9 8 8]	25.0	pyFR	0	TJ078
732.016	1.153	1160669	STOP	n/a	n/a	n/a	n/a	5	[-999 -999 -999]	-999.0	pyFR	0	TJ078
733.169	12.171	1161822	REC_START	n/a	n/a	n/a	-999.0	5	n/a	n/a	pyFR	0	TJ078
745.34	3.662	1173994	REC_WORD_VV	12.171	n/a	<>	-999.0	5	n/a	n/a	pyFR	0	TJ078
749.002	1.615	1177656	REC_WORD	15.833	n/a	HAWK	-999.0	5	n/a	n/a	pyFR	0	TJ078
750.617	13.454	1179271	REC_WORD	17.448	n/a	GUARD	-999.0	5	n/a	n/a	pyFR	0	TJ078
764.071	16.691	1192725	REC_WORD	30.902	n/a	GYRO	-999.0	5	n/a	n/a	pyFR	0	TJ078
780.762	0.017	1209416	TRIAL	n/a	n/a	n/a	-999.0	6	n/a	n/a	pyFR	0	TJ078
780.779	1.6	1209433	ORIENT	n/a	n/a	n/a	-999.0	6	n/a	n/a	pyFR	0	TJ078
783.784	1.6	1212438	WORD	n/a	wordpools/wordpool_EN.txt	GLOVE	1.0	6	n/a	n/a	pyFR	0	TJ078
786.289	1.6	1214943	WORD	n/a	wordpools/wordpool_EN.txt	BANK	2.0	6	n/a	n/a	pyFR	0	TJ078
789.043	1.6	1217698	WORD	n/a	wordpools/wordpool_EN.txt	OWL	3.0	6	n/a	n/a	pyFR	0	TJ078
791.613	1.6	1220268	WORD	n/a	wordpools/wordpool_EN.txt	RAKE	4.0	6	n/a	n/a	pyFR	0	TJ078
794.202	1.6	1222857	WORD	n/a	wordpools/wordpool_EN.txt	BELL	5.0	6	n/a	n/a	pyFR	0	TJ078
797.006	1.6	1225661	WORD	n/a	wordpools/wordpool_EN.txt	BALL	6.0	6	n/a	n/a	pyFR	0	TJ078
799.76	1.6	1228415	WORD	n/a	wordpools/wordpool_EN.txt	MOON	7.0	6	n/a	n/a	pyFR	0	TJ078
802.566	1.6	1231221	WORD	n/a	wordpools/wordpool_EN.txt	BOY	8.0	6	n/a	n/a	pyFR	0	TJ078
805.02	1.6	1233675	WORD	n/a	wordpools/wordpool_EN.txt	COW	9.0	6	n/a	n/a	pyFR	0	TJ078
807.49	1.6	1236145	WORD	n/a	wordpools/wordpool_EN.txt	STEAM	10.0	6	n/a	n/a	pyFR	0	TJ078
810.078	1.6	1238733	WORD	n/a	wordpools/wordpool_EN.txt	STORM	11.0	6	n/a	n/a	pyFR	0	TJ078
812.666	1.6	1241321	WORD	n/a	wordpools/wordpool_EN.txt	CLOWN	12.0	6	n/a	n/a	pyFR	0	TJ078
815.337	1.6	1243992	WORD	n/a	wordpools/wordpool_EN.txt	OAR	13.0	6	n/a	n/a	pyFR	0	TJ078
818.125	1.6	1246780	WORD	n/a	wordpools/wordpool_EN.txt	TENT	14.0	6	n/a	n/a	pyFR	0	TJ078
820.728	1.6	1249383	WORD	n/a	wordpools/wordpool_EN.txt	ZOO	15.0	6	n/a	n/a	pyFR	0	TJ078
822.333	0.9	1250988	START	n/a	n/a	n/a	n/a	6	[-999 -999 -999]	-999.0	pyFR	0	TJ078
823.233	8.214	1251888	PROB	8.19	n/a	n/a	n/a	6	[7 8 3]	18.0	pyFR	0	TJ078
831.447	5.091	1260102	PROB	5.056	n/a	n/a	n/a	6	[7 8 6]	21.0	pyFR	0	TJ078
836.538	5.359	1265194	PROB	5.333	n/a	n/a	n/a	6	[6 1 8]	15.0	pyFR	0	TJ078
841.897	3.294	1270553	PROB	3.294	n/a	n/a	n/a	6	[6 4 1]	11.0	pyFR	0	TJ078
845.191	1.181	1273847	STOP	n/a	n/a	n/a	n/a	6	[-999 -999 -999]	-999.0	pyFR	0	TJ078
846.372	1.758	1275028	REC_START	n/a	n/a	n/a	-999.0	6	n/a	n/a	pyFR	0	TJ078
848.13	3.32	1276786	REC_WORD	1.758	n/a	CLOWN	-999.0	6	n/a	n/a	pyFR	0	TJ078
851.45	4.654	1280106	REC_WORD	5.078	n/a	STORM	-999.0	6	n/a	n/a	pyFR	0	TJ078
856.104	2.1	1284760	REC_WORD	9.732	n/a	RAKE	-999.0	6	n/a	n/a	pyFR	0	TJ078
858.204	35.428	1286860	REC_WORD	11.832	n/a	ZOO	-999.0	6	n/a	n/a	pyFR	0	TJ078
893.632	0.016	1322289	TRIAL	n/a	n/a	n/a	-999.0	7	n/a	n/a	pyFR	0	TJ078
893.648	1.6	1322305	ORIENT	n/a	n/a	n/a	-999.0	7	n/a	n/a	pyFR	0	TJ078
896.37	1.6	1325027	WORD	n/a	wordpools/wordpool_EN.txt	ROCK	1.0	7	n/a	n/a	pyFR	0	TJ078
898.925	1.6	1327582	WORD	n/a	wordpools/wordpool_EN.txt	TEA	2.0	7	n/a	n/a	pyFR	0	TJ078
901.712	1.6	1330369	WORD	n/a	wordpools/wordpool_EN.txt	VAN	3.0	7	n/a	n/a	pyFR	0	TJ078
904.25	1.6	1332907	WORD	n/a	wordpools/wordpool_EN.txt	STEAK	4.0	7	n/a	n/a	pyFR	0	TJ078
906.736	1.6	1335393	WORD	n/a	wordpools/wordpool_EN.txt	SHOE	5.0	7	n/a	n/a	pyFR	0	TJ078
909.409	1.6	1338066	WORD	n/a	wordpools/wordpool_EN.txt	PEN	6.0	7	n/a	n/a	pyFR	0	TJ078
911.996	1.6	1340653	WORD	n/a	wordpools/wordpool_EN.txt	COIN	7.0	7	n/a	n/a	pyFR	0	TJ078
914.718	1.6	1343375	WORD	n/a	wordpools/wordpool_EN.txt	HOUSE	8.0	7	n/a	n/a	pyFR	0	TJ078
917.522	1.6	1346179	WORD	n/a	wordpools/wordpool_EN.txt	CROWN	9.0	7	n/a	n/a	pyFR	0	TJ078
920.327	1.6	1348984	WORD	n/a	wordpools/wordpool_EN.txt	PIT	10.0	7	n/a	n/a	pyFR	0	TJ078
922.914	1.6	1351571	WORD	n/a	wordpools/wordpool_EN.txt	MUG	11.0	7	n/a	n/a	pyFR	0	TJ078
925.568	1.6	1354225	WORD	n/a	wordpools/wordpool_EN.txt	BEE	12.0	7	n/a	n/a	pyFR	0	TJ078
928.34	1.6	1356997	WORD	n/a	wordpools/wordpool_EN.txt	DOOR	13.0	7	n/a	n/a	pyFR	0	TJ078
930.81	1.6	1359468	WORD	n/a	wordpools/wordpool_EN.txt	BOMB	14.0	7	n/a	n/a	pyFR	0	TJ078
933.331	1.6	1361989	WORD	n/a	wordpools/wordpool_EN.txt	SALT	15.0	7	n/a	n/a	pyFR	0	TJ078
934.935	1.134	1363593	START	n/a	n/a	n/a	n/a	7	[-999 -999 -999]	-999.0	pyFR	0	TJ078
936.069	6.478	1364727	PROB	6.442	n/a	n/a	n/a	7	[3 6 9]	18.0	pyFR	0	TJ078
942.547	6.444	1371205	PROB	6.419	n/a	n/a	n/a	7	[5 8 6]	19.0	pyFR	0	TJ078
948.991	6.086	1377649	PROB	6.086	n/a	n/a	n/a	7	[3 7 9]	19.0	pyFR	0	TJ078
955.077	1.176	1383735	STOP	n/a	n/a	n/a	n/a	7	[-999 -999 -999]	-999.0	pyFR	0	TJ078
956.253	1.477	1384911	REC_START	n/a	n/a	n/a	-999.0	7	n/a	n/a	pyFR	0	TJ078
957.73	9.064	1386388	REC_WORD	1.477	n/a	CROWN	-999.0	7	n/a	n/a	pyFR	0	TJ078
966.794	38.789	1395452	REC_WORD_VV	10.541	n/a	<>	-999.0	7	n/a	n/a	pyFR	0	TJ078
1005.583	0.017	1434242	TRIAL	n/a	n/a	n/a	-999.0	8	n/a	n/a	pyFR	0	TJ078
1005.6	1.6	1434259	ORIENT	n/a	n/a	n/a	-999.0	8	n/a	n/a	pyFR	0	TJ078
1008.556	1.6	1437215	WORD	n/a	wordpools/wordpool_EN.txt	CUP	1.0	8	n/a	n/a	pyFR	0	TJ078
1011.327	1.6	1439986	WORD	n/a	wordpools/wordpool_EN.txt	SPEAR	2.0	8	n/a	n/a	pyFR	0	TJ078
1013.763	1.6	1442422	WORD	n/a	wordpools/wordpool_EN.txt	WHEEL	3.0	8	n/a	n/a	pyFR	0	TJ078
1016.285	1.6	1444944	WORD	n/a	wordpools/wordpool_EN.txt	SEAL	4.0	8	n/a	n/a	pyFR	0	TJ078
1019.056	1.6	1447715	WORD	n/a	wordpools/wordpool_EN.txt	HORSE	5.0	8	n/a	n/a	pyFR	0	TJ078
1021.71	1.6	1450369	WORD	n/a	wordpools/wordpool_EN.txt	GOAT	6.0	8	n/a	n/a	pyFR	0	TJ078
1024.498	1.6	1453158	WORD	n/a	wordpools/wordpool_EN.txt	GRAPE	7.0	8	n/a	n/a	pyFR	0	TJ078
1026.969	1.6	1455629	WORD	n/a	wordpools/wordpool_EN.txt	WEB	8.0	8	n/a	n/a	pyFR	0	TJ078
1029.473	1.6	1458133	WORD	n/a	wordpools/wordpool_EN.txt	ELF	9.0	8	n/a	n/a	pyFR	0	TJ078
1032.144	1.6	1460804	WORD	n/a	wordpools/wordpool_EN.txt	WEED	10.0	8	n/a	n/a	pyFR	0	TJ078
1034.749	1.6	1463409	WORD	n/a	wordpools/wordpool_EN.txt	VINE	11.0	8	n/a	n/a	pyFR	0	TJ078
1037.537	1.6	1466197	WORD	n/a	wordpools/wordpool_EN.txt	DART	12.0	8	n/a	n/a	pyFR	0	TJ078
1040.091	1.6	1468751	WORD	n/a	wordpools/wordpool_EN.txt	SWAMP	13.0	8	n/a	n/a	pyFR	0	TJ078
1042.845	1.6	1471505	WORD	n/a	wordpools/wordpool_EN.txt	CHIN	14.0	8	n/a	n/a	pyFR	0	TJ078
1045.632	1.6	1474292	WORD	n/a	wordpools/wordpool_EN.txt	RAT	15.0	8	n/a	n/a	pyFR	0	TJ078
1047.237	1.101	1475897	START	n/a	n/a	n/a	n/a	8	[-999 -999 -999]	-999.0	pyFR	0	TJ078
1048.338	4.641	1476998	PROB	4.619	n/a	n/a	n/a	8	[1 6 1]	8.0	pyFR	0	TJ078
1052.979	4.207	1481639	PROB	4.178	n/a	n/a	n/a	8	[2 2 2]	6.0	pyFR	0	TJ078
1057.186	4.808	1485846	PROB	4.787	n/a	n/a	n/a	8	[9 6 3]	18.0	pyFR	0	TJ078
1061.994	4.958	1490654	PROB	4.93	n/a	n/a	n/a	8	[3 2 7]	12.0	pyFR	0	TJ078
1066.952	5.868	1495612	PROB	5.868	n/a	n/a	n/a	8	[5 7 9]	21.0	pyFR	0	TJ078
1072.82	1.177	1501481	STOP	n/a	n/a	n/a	n/a	8	[-999 -999 -999]	-999.0	pyFR	0	TJ078
1073.997	2.179	1502658	REC_START	n/a	n/a	n/a	-999.0	8	n/a	n/a	pyFR	0	TJ078
1076.176	1.021	1504837	REC_WORD	2.179	n/a	HORSE	-999.0	8	n/a	n/a	pyFR	0	TJ078
1077.197	1.731	1505858	REC_WORD	3.2	n/a	SEAL	-999.0	8	n/a	n/a	pyFR	0	TJ078
1078.928	1.715	1507589	REC_WORD	4.931	n/a	GOAT	-999.0	8	n/a	n/a	pyFR	0	TJ078
1080.643	2.763	1509304	REC_WORD	6.646	n/a	GRAPE	-999.0	8	n/a	n/a	pyFR	0	TJ078
1083.406	2.497	1512067	REC_WORD	9.409	n/a	CUP	-999.0	8	n/a	n/a	pyFR	0	TJ078
1085.903	2.862	1514564	REC_WORD	11.906	n/a	CHIN	-999.0	8	n/a	n/a	pyFR	0	TJ078
1088.765	6.224	1517426	REC_WORD_VV	14.768	n/a	<>	-999.0	8	n/a	n/a	pyFR	0	TJ078
1094.989	26.887	1523650	REC_WORD	20.992	n/a	DART	-999.0	8	n/a	n/a	pyFR	0	TJ078
1121.876	0.016	1550538	TRIAL	n/a	n/a	n/a	-999.0	9	n/a	n/a	pyFR	0	TJ078
1121.892	1.6	1550554	ORIENT	n/a	n/a	n/a	-999.0	9	n/a	n/a	pyFR	0	TJ078
1124.663	1.6	1553325	WORD	n/a	wordpools/wordpool_EN.txt	PURSE	1.0	9	n/a	n/a	pyFR	0	TJ078
1127.201	1.6	1555863	WORD	n/a	wordpools/wordpool_EN.txt	HOOK	2.0	9	n/a	n/a	pyFR	0	TJ078
1129.872	1.6	1558534	WORD	n/a	wordpools/wordpool_EN.txt	PEACH	3.0	9	n/a	n/a	pyFR	0	TJ078
1132.31	1.6	1560972	WORD	n/a	wordpools/wordpool_EN.txt	BRANCH	4.0	9	n/a	n/a	pyFR	0	TJ078
1134.914	1.6	1563576	WORD	n/a	wordpools/wordpool_EN.txt	SEED	5.0	9	n/a	n/a	pyFR	0	TJ078
1137.368	1.6	1566030	WORD	n/a	wordpools/wordpool_EN.txt	FISH	6.0	9	n/a	n/a	pyFR	0	TJ078
1139.788	1.6	1568450	WORD	n/a	wordpools/wordpool_EN.txt	ROOF	7.0	9	n/a	n/a	pyFR	0	TJ078
1142.527	1.6	1571189	WORD	n/a	wordpools/wordpool_EN.txt	WAND	8.0	9	n/a	n/a	pyFR	0	TJ078
1145.081	1.6	1573743	WORD	n/a	wordpools/wordpool_EN.txt	WAVE	9.0	9	n/a	n/a	pyFR	0	TJ078
1147.701	1.6	1576363	WORD	n/a	wordpools/wordpool_EN.txt	SKUNK	10.0	9	n/a	n/a	pyFR	0	TJ078
1150.223	1.6	1578885	WORD	n/a	wordpools/wordpool_EN.txt	CLOUD	11.0	9	n/a	n/a	pyFR	0	TJ078
1152.659	1.6	1581321	WORD	n/a	wordpools/wordpool_EN.txt	LAKE	12.0	9	n/a	n/a	pyFR	0	TJ078
1155.381	1.6	1584043	WORD	n/a	wordpools/wordpool_EN.txt	KING	13.0	9	n/a	n/a	pyFR	0	TJ078
1158.019	1.6	1586681	WORD	n/a	wordpools/wordpool_EN.txt	STEM	14.0	9	n/a	n/a	pyFR	0	TJ078
1160.722	1.6	1589384	WORD	n/a	wordpools/wordpool_EN.txt	MOUTH	15.0	9	n/a	n/a	pyFR	0	TJ078
1162.327	0.833	1590989	START	n/a	n/a	n/a	n/a	9	[-999 -999 -999]	-999.0	pyFR	0	TJ078
1163.16	5.059	1591822	PROB	5.025	n/a	n/a	n/a	9	[5 1 8]	14.0	pyFR	0	TJ078
1168.219	11.285	1596882	PROB	11.255	n/a	n/a	n/a	9	[9 9 8]	26.0	pyFR	0	TJ078
1179.504	5.153	1608167	PROB	5.153	n/a	n/a	n/a	9	[8 2 9]	19.0	pyFR	0	TJ078
1184.657	1.158	1613320	STOP	n/a	n/a	n/a	n/a	9	[-999 -999 -999]	-999.0	pyFR	0	TJ078
1185.815	1.294	1614478	REC_START	n/a	n/a	n/a	-999.0	9	n/a	n/a	pyFR	0	TJ078
1187.109	5.784	1615772	REC_WORD_VV	1.294	n/a	<>	-999.0	9	n/a	n/a	pyFR	0	TJ078
1192.893	7.569	1621556	REC_WORD_VV	7.078	n/a	<>	-999.0	9	n/a	n/a	pyFR	0	TJ078
1200.462	32.898	1629125	REC_WORD	14.647	n/a	KING	-999.0	9	n/a	n/a	pyFR	0	TJ078
1233.36	0.016	1662024	TRIAL	n/a	n/a	n/a	-999.0	10	n/a	n/a	pyFR	0	TJ078
1233.376	1.6	1662040	ORIENT	n/a	n/a	n/a	-999.0	10	n/a	n/a	pyFR	0	TJ078
1236.248	1.6	1664912	WORD	n/a	wordpools/wordpool_EN.txt	SHIP	1.0	10	n/a	n/a	pyFR	0	TJ078
1238.92	1.6	1667584	WORD	n/a	wordpools/wordpool_EN.txt	SWORD	2.0	10	n/a	n/a	pyFR	0	TJ078
1241.706	1.6	1670370	WORD	n/a	wordpools/wordpool_EN.txt	FLUTE	3.0	10	n/a	n/a	pyFR	0	TJ078
1244.395	1.6	1673059	WORD	n/a	wordpools/wordpool_EN.txt	DRUM	4.0	10	n/a	n/a	pyFR	0	TJ078
1246.999	1.6	1675663	WORD	n/a	wordpools/wordpool_EN.txt	EAR	5.0	10	n/a	n/a	pyFR	0	TJ078
1249.537	1.6	1678201	WORD	n/a	wordpools/wordpool_EN.txt	BREAD	6.0	10	n/a	n/a	pyFR	0	TJ078
1252.174	1.6	1680838	WORD	n/a	wordpools/wordpool_EN.txt	RIB	7.0	10	n/a	n/a	pyFR	0	TJ078
1254.811	1.6	1683475	WORD	n/a	wordpools/wordpool_EN.txt	PLATE	8.0	10	n/a	n/a	pyFR	0	TJ078
1257.433	1.6	1686097	WORD	n/a	wordpools/wordpool_EN.txt	TAIL	9.0	10	n/a	n/a	pyFR	0	TJ078
1260.12	1.6	1688784	WORD	n/a	wordpools/wordpool_EN.txt	CHIEF	10.0	10	n/a	n/a	pyFR	0	TJ078
1262.674	1.6	1691339	WORD	n/a	wordpools/wordpool_EN.txt	BLUSH	11.0	10	n/a	n/a	pyFR	0	TJ078
1265.095	1.6	1693760	WORD	n/a	wordpools/wordpool_EN.txt	JAR	12.0	10	n/a	n/a	pyFR	0	TJ078
1267.649	1.6	1696314	WORD	n/a	wordpools/wordpool_EN.txt	HORN	13.0	10	n/a	n/a	pyFR	0	TJ078
1270.187	1.6	1698852	WORD	n/a	wordpools/wordpool_EN.txt	BATH	14.0	10	n/a	n/a	pyFR	0	TJ078
1272.942	1.6	1701607	WORD	n/a	wordpools/wordpool_EN.txt	CORD	15.0	10	n/a	n/a	pyFR	0	TJ078
1274.545	1.067	1703210	START	n/a	n/a	n/a	n/a	10	[-999 -999 -999]	-999.0	pyFR	0	TJ078
1275.612	8.046	1704277	PROB	8.021	n/a	n/a	n/a	10	[2 6 9]	17.0	pyFR	0	TJ078
1283.658	5.661	1712323	PROB	5.632	n/a	n/a	n/a	10	[2 9 3]	14.0	pyFR	0	TJ078
1289.319	6.245	1717984	PROB	6.245	n/a	n/a	n/a	10	[7 9 8]	24.0	pyFR	0	TJ078
1295.564	1.133	1724229	STOP	n/a	n/a	n/a	n/a	10	[-999 -999 -999]	-999.0	pyFR	0	TJ078
1296.697	4.927	1725362	REC_START	n/a	n/a	n/a	-999.0	10	n/a	n/a	pyFR	0	TJ078
1301.624	2.909	1730289	REC_WORD_VV	4.927	n/a	<>	-999.0	10	n/a	n/a	pyFR	0	TJ078
1304.533	5.498	1733198	REC_WORD	7.836	n/a	SWORD	-999.0	10	n/a	n/a	pyFR	0	TJ078
1310.031	9.416	1738697	REC_WORD	13.334	n/a	EAR	-999.0	10	n/a	n/a	pyFR	0	TJ078
1319.447	1.191	1748113	REC_WORD	22.75	n/a	FLUTE	-999.0	10	n/a	n/a	pyFR	0	TJ078
1320.638	23.388	1749304	REC_WORD	23.941	n/a	DRUM	-999.0	10	n/a	n/a	pyFR	0	TJ078
1344.026	0.016	1772692	TRIAL	n/a	n/a	n/a	-999.0	11	n/a	n/a	pyFR	0	TJ078
1344.042	1.6	1772708	ORIENT	n/a	n/a	n/a	-999.0	11	n/a	n/a	pyFR	0	TJ078
1346.763	1.6	1775429	WORD	n/a	wordpools/wordpool_EN.txt	FUR	1.0	11	n/a	n/a	pyFR	0	TJ078
1349.334	1.6	1778000	WORD	n/a	wordpools/wordpool_EN.txt	SUN	2.0	11	n/a	n/a	pyFR	0	TJ078
1351.922	1.6	1780588	WORD	n/a	wordpools/wordpool_EN.txt	PIN	3.0	11	n/a	n/a	pyFR	0	TJ078
1354.709	1.6	1783375	WORD	n/a	wordpools/wordpool_EN.txt	APE	4.0	11	n/a	n/a	pyFR	0	TJ078
1357.298	1.6	1785965	WORD	n/a	wordpools/wordpool_EN.txt	SKI	5.0	11	n/a	n/a	pyFR	0	TJ078
1359.767	1.6	1788434	WORD	n/a	wordpools/wordpool_EN.txt	CLOTH	6.0	11	n/a	n/a	pyFR	0	TJ078
1362.356	1.6	1791023	WORD	n/a	wordpools/wordpool_EN.txt	WHALE	7.0	11	n/a	n/a	pyFR	0	TJ078
1364.809	1.6	1793476	WORD	n/a	wordpools/wordpool_EN.txt	CROW	8.0	11	n/a	n/a	pyFR	0	TJ078
1367.548	1.6	1796215	WORD	n/a	wordpools/wordpool_EN.txt	DESK	9.0	11	n/a	n/a	pyFR	0	TJ078
1370.119	1.6	1798786	WORD	n/a	wordpools/wordpool_EN.txt	WING	10.0	11	n/a	n/a	pyFR	0	TJ078
1372.672	1.6	1801339	WORD	n/a	wordpools/wordpool_EN.txt	SINK	11.0	11	n/a	n/a	pyFR	0	TJ078
1375.11	1.6	1803777	WORD	n/a	wordpools/wordpool_EN.txt	ICE	12.0	11	n/a	n/a	pyFR	0	TJ078
1377.848	1.6	1806515	WORD	n/a	wordpools/wordpool_EN.txt	SIGN	13.0	11	n/a	n/a	pyFR	0	TJ078
1380.336	1.6	1809003	WORD	n/a	wordpools/wordpool_EN.txt	SOCK	14.0	11	n/a	n/a	pyFR	0	TJ078
1382.84	1.6	1811507	WORD	n/a	wordpools/wordpool_EN.txt	PLANT	15.0	11	n/a	n/a	pyFR	0	TJ078
1384.443	1.051	1813110	START	n/a	n/a	n/a	n/a	11	[-999 -999 -999]	-999.0	pyFR	0	TJ078
1385.494	5.392	1814161	PROB	5.358	n/a	n/a	n/a	11	[3 1 2]	6.0	pyFR	0	TJ078
1390.886	6.144	1819553	PROB	6.11	n/a	n/a	n/a	11	[9 7 1]	17.0	pyFR	0	TJ078
1397.03	5.442	1825697	PROB	5.413	n/a	n/a	n/a	11	[9 2 9]	20.0	pyFR	0	TJ078
1402.472	6.568	1831139	PROB	6.568	n/a	n/a	n/a	11	[4 8 4]	16.0	pyFR	0	TJ078
1409.04	1.196	1837708	STOP	n/a	n/a	n/a	n/a	11	[-999 -999 -999]	-999.0	pyFR	0	TJ078
1410.236	1.901	1838904	REC_START	n/a	n/a	n/a	-999.0	11	n/a	n/a	pyFR	0	TJ078
1412.137	2.808	1840805	REC_WORD	1.901	n/a	ROW	-999.0	11	n/a	n/a	pyFR	0	TJ078
1414.945	2.083	1843613	REC_WORD	4.709	n/a	APE	-999.0	11	n/a	n/a	pyFR	0	TJ078
1417.028	40.919	1845696	REC_WORD	6.792	n/a	ICE	-999.0	11	n/a	n/a	pyFR	0	TJ078
1457.947	0.017	1886616	TRIAL	n/a	n/a	n/a	-999.0	12	n/a	n/a	pyFR	0	TJ078
1457.964	1.6	1886633	ORIENT	n/a	n/a	n/a	-999.0	12	n/a	n/a	pyFR	0	TJ078
1460.65	1.6	1889319	WORD	n/a	wordpools/wordpool_EN.txt	HEART	1.0	12	n/a	n/a	pyFR	0	TJ078
1463.322	1.6	1891991	WORD	n/a	wordpools/wordpool_EN.txt	SEAT	2.0	12	n/a	n/a	pyFR	0	TJ078
1465.843	1.6	1894512	WORD	n/a	wordpools/wordpool_EN.txt	ROAD	3.0	12	n/a	n/a	pyFR	0	TJ078
1468.63	1.6	1897299	WORD	n/a	wordpools/wordpool_EN.txt	TREE	4.0	12	n/a	n/a	pyFR	0	TJ078
1471.152	1.6	1899821	WORD	n/a	wordpools/wordpool_EN.txt	PANTS	5.0	12	n/a	n/a	pyFR	0	TJ078
1473.655	1.6	1902324	WORD	n/a	wordpools/wordpool_EN.txt	CHAIR	6.0	12	n/a	n/a	pyFR	0	TJ078
1476.327	1.6	1904996	WORD	n/a	wordpools/wordpool_EN.txt	QUEEN	7.0	12	n/a	n/a	pyFR	0	TJ078
1479.049	1.6	1907718	WORD	n/a	wordpools/wordpool_EN.txt	SPONGE	8.0	12	n/a	n/a	pyFR	0	TJ078
1481.752	1.6	1910421	WORD	n/a	wordpools/wordpool_EN.txt	BOX	9.0	12	n/a	n/a	pyFR	0	TJ078
1484.524	1.6	1913193	WORD	n/a	wordpools/wordpool_EN.txt	LEAF	10.0	12	n/a	n/a	pyFR	0	TJ078
1487.112	1.6	1915781	WORD	n/a	wordpools/wordpool_EN.txt	FUDGE	11.0	12	n/a	n/a	pyFR	0	TJ078
1489.9	1.6	1918569	WORD	n/a	wordpools/wordpool_EN.txt	PHONE	12.0	12	n/a	n/a	pyFR	0	TJ078
1492.62	1.6	1921289	WORD	n/a	wordpools/wordpool_EN.txt	BOWL	13.0	12	n/a	n/a	pyFR	0	TJ078
1495.225	1.6	1923894	WORD	n/a	wordpools/wordpool_EN.txt	MAT	14.0	12	n/a	n/a	pyFR	0	TJ078
1497.745	1.6	1926414	WORD	n/a	wordpools/wordpool_EN.txt	CORN	15.0	12	n/a	n/a	pyFR	0	TJ078
1499.35	0.933	1928020	START	n/a	n/a	n/a	n/a	12	[-999 -999 -999]	-999.0	pyFR	0	TJ078
1500.283	5.042	1928953	PROB	5.007	n/a	n/a	n/a	12	[5 7 5]	17.0	pyFR	0	TJ078
1505.325	8.43	1933995	PROB	8.401	n/a	n/a	n/a	12	[6 6 4]	16.0	pyFR	0	TJ078
1513.755	4.541	1942425	PROB	4.508	n/a	n/a	n/a	12	[2 7 3]	12.0	pyFR	0	TJ078
1518.296	3.831	1946966	PROB	3.831	n/a	n/a	n/a	12	[8 8 5]	21.0	pyFR	0	TJ078
1522.127	1.061	1950797	STOP	n/a	n/a	n/a	n/a	12	[-999 -999 -999]	-999.0	pyFR	0	TJ078
1523.188	1.944	1951858	REC_START	n/a	n/a	n/a	-999.0	12	n/a	n/a	pyFR	0	TJ078
1525.132	3.406	1953802	REC_WORD	1.944	n/a	SPONGE	-999.0	12	n/a	n/a	pyFR	0	TJ078
1528.538	8.226	1957208	REC_WORD	5.35	n/a	BOX	-999.0	12	n/a	n/a	pyFR	0	TJ078
1536.764	239.942	1965434	REC_WORD	13.576	n/a	ANT	-999.0	12	n/a	n/a	pyFR	0	TJ078
1776.706	0.016	2205381	TRIAL	n/a	n/a	n/a	-999.0	13	n/a	n/a	pyFR	0	TJ078
1776.722	1.6	2205397	ORIENT	n/a	n/a	n/a	-999.0	13	n/a	n/a	pyFR	0	TJ078
1779.394	1.6	2208069	WORD	n/a	wordpools/wordpool_EN.txt	BEAN	1.0	13	n/a	n/a	pyFR	0	TJ078
1782.199	1.6	2210874	WORD	n/a	wordpools/wordpool_EN.txt	GOLD	2.0	13	n/a	n/a	pyFR	0	TJ078
1784.97	1.6	2213646	WORD	n/a	wordpools/wordpool_EN.txt	PALM	3.0	13	n/a	n/a	pyFR	0	TJ078
1787.508	1.6	2216184	WORD	n/a	wordpools/wordpool_EN.txt	STAR	4.0	13	n/a	n/a	pyFR	0	TJ078
1790.162	1.6	2218838	WORD	n/a	wordpools/wordpool_EN.txt	SHRIMP	5.0	13	n/a	n/a	pyFR	0	TJ078
1792.581	1.6	2221257	WORD	n/a	wordpools/wordpool_EN.txt	TRUCK	6.0	13	n/a	n/a	pyFR	0	TJ078
1795.32	1.6	2223996	WORD	n/a	wordpools/wordpool_EN.txt	THREAD	7.0	13	n/a	n/a	pyFR	0	TJ078
1797.824	1.6	2226500	WORD	n/a	wordpools/wordpool_EN.txt	HOOF	8.0	13	n/a	n/a	pyFR	0	TJ078
1800.262	1.6	2228938	WORD	n/a	wordpools/wordpool_EN.txt	OAK	9.0	13	n/a	n/a	pyFR	0	TJ078
1802.849	1.6	2231525	WORD	n/a	wordpools/wordpool_EN.txt	YARD	10.0	13	n/a	n/a	pyFR	0	TJ078
1805.387	1.6	2234063	WORD	n/a	wordpools/wordpool_EN.txt	FARM	11.0	13	n/a	n/a	pyFR	0	TJ078
1807.891	1.6	2236567	WORD	n/a	wordpools/wordpool_EN.txt	WORLD	12.0	13	n/a	n/a	pyFR	0	TJ078
1810.628	1.6	2239304	WORD	n/a	wordpools/wordpool_EN.txt	CAKE	13.0	13	n/a	n/a	pyFR	0	TJ078
1813.133	1.6	2241809	WORD	n/a	wordpools/wordpool_EN.txt	WOLF	14.0	13	n/a	n/a	pyFR	0	TJ078
1815.586	1.6	2244262	WORD	n/a	wordpools/wordpool_EN.txt	KITE	15.0	13	n/a	n/a	pyFR	0	TJ078
1817.191	0.85	2245867	START	n/a	n/a	n/a	n/a	13	[-999 -999 -999]	-999.0	pyFR	0	TJ078
1818.041	4.757	2246717	PROB	4.734	n/a	n/a	n/a	13	[9 3 2]	14.0	pyFR	0	TJ078
1822.798	4.791	2251474	PROB	4.763	n/a	n/a	n/a	13	[7 7 6]	20.0	pyFR	0	TJ078
1827.589	5.51	2256265	PROB	5.475	n/a	n/a	n/a	13	[9 4 6]	19.0	pyFR	0	TJ078
1833.099	5.518	2261776	PROB	5.518	n/a	n/a	n/a	13	[2 4 3]	9.0	pyFR	0	TJ078
1838.617	1.109	2267294	STOP	n/a	n/a	n/a	n/a	13	[-999 -999 -999]	-999.0	pyFR	0	TJ078
1839.726	1.122	2268403	REC_START	n/a	n/a	n/a	-999.0	13	n/a	n/a	pyFR	0	TJ078
1840.848	1.001	2269525	REC_WORD	1.122	n/a	GOLD	-999.0	13	n/a	n/a	pyFR	0	TJ078
1841.849	0.856	2270526	REC_WORD	2.123	n/a	BEAN	-999.0	13	n/a	n/a	pyFR	0	TJ078
1842.705	1.105	2271382	REC_WORD	2.979	n/a	HOOF	-999.0	13	n/a	n/a	pyFR	0	TJ078
1843.81	42.995	2272487	REC_WORD	4.084	n/a	FARM	-999.0	13	n/a	n/a	pyFR	0	TJ078
1886.805	0.015	2315483	TRIAL	n/a	n/a	n/a	-999.0	14	n/a	n/a	pyFR	0	TJ078
1886.82	1.6	2315498	ORIENT	n/a	n/a	n/a	-999.0	14	n/a	n/a	pyFR	0	TJ078
1889.492	1.6	2318170	WORD	n/a	wordpools/wordpool_EN.txt	DOLL	1.0	14	n/a	n/a	pyFR	0	TJ078
1892.064	1.6	2320742	WORD	n/a	wordpools/wordpool_EN.txt	PARK	2.0	14	n/a	n/a	pyFR	0	TJ078
1894.501	1.6	2323179	WORD	n/a	wordpools/wordpool_EN.txt	TOE	3.0	14	n/a	n/a	pyFR	0	TJ078
1897.172	1.6	2325850	WORD	n/a	wordpools/wordpool_EN.txt	SPOON	4.0	14	n/a	n/a	pyFR	0	TJ078
1899.893	1.6	2328571	WORD	n/a	wordpools/wordpool_EN.txt	POOL	5.0	14	n/a	n/a	pyFR	0	TJ078
1902.613	1.6	2331291	WORD	n/a	wordpools/wordpool_EN.txt	TIE	6.0	14	n/a	n/a	pyFR	0	TJ078
1905.101	1.6	2333779	WORD	n/a	wordpools/wordpool_EN.txt	EGG	7.0	14	n/a	n/a	pyFR	0	TJ078
1907.755	1.6	2336433	WORD	n/a	wordpools/wordpool_EN.txt	LIP	8.0	14	n/a	n/a	pyFR	0	TJ078
1910.544	1.6	2339222	WORD	n/a	wordpools/wordpool_EN.txt	MAIL	9.0	14	n/a	n/a	pyFR	0	TJ078
1913.131	1.6	2341809	WORD	n/a	wordpools/wordpool_EN.txt	STICK	10.0	14	n/a	n/a	pyFR	0	TJ078
1915.584	1.6	2344262	WORD	n/a	wordpools/wordpool_EN.txt	CART	11.0	14	n/a	n/a	pyFR	0	TJ078
1918.39	1.6	2347068	WORD	n/a	wordpools/wordpool_EN.txt	DUCK	12.0	14	n/a	n/a	pyFR	0	TJ078
1920.827	1.6	2349505	WORD	n/a	wordpools/wordpool_EN.txt	SLUSH	13.0	14	n/a	n/a	pyFR	0	TJ078
1923.548	1.6	2352226	WORD	n/a	wordpools/wordpool_EN.txt	SEA	14.0	14	n/a	n/a	pyFR	0	TJ078
1926.119	1.6	2354798	WORD	n/a	wordpools/wordpool_EN.txt	PIPE	15.0	14	n/a	n/a	pyFR	0	TJ078
1927.722	1.034	2356401	START	n/a	n/a	n/a	n/a	14	[-999 -999 -999]	-999.0	pyFR	0	TJ078
1928.756	5.008	2357435	PROB	4.974	n/a	n/a	n/a	14	[8 8 1]	17.0	pyFR	0	TJ078
1933.764	4.659	2362443	PROB	4.639	n/a	n/a	n/a	14	[7 1 2]	10.0	pyFR	0	TJ078
1938.423	6.912	2367102	PROB	6.89	n/a	n/a	n/a	14	[4 7 7]	18.0	pyFR	0	TJ078
1945.335	6.721	2374014	PROB	6.721	n/a	n/a	n/a	14	[8 9 8]	25.0	pyFR	0	TJ078
1952.056	1.193	2380735	STOP	n/a	n/a	n/a	n/a	14	[-999 -999 -999]	-999.0	pyFR	0	TJ078
1953.249	1.124	2381928	REC_START	n/a	n/a	n/a	-999.0	14	n/a	n/a	pyFR	0	TJ078
1954.373	5.48	2383052	REC_WORD_VV	1.124	n/a	<>	-999.0	14	n/a	n/a	pyFR	0	TJ078
1959.853	4.673	2388532	REC_WORD_VV	6.604	n/a	<>	-999.0	14	n/a	n/a	pyFR	0	TJ078
1964.526	16.959	2393205	REC_WORD	11.277	n/a	ICE	-999.0	14	n/a	n/a	pyFR	0	TJ078
1981.485	19.173	2410165	REC_WORD	28.236	n/a	GOLD	-999.0	14	n/a	n/a	pyFR	0	TJ078
2000.658	0.017	2429338	TRIAL	n/a	n/a	n/a	-999.0	15	n/a	n/a	pyFR	0	TJ078
2000.675	1.6	2429355	ORIENT	n/a	n/a	n/a	-999.0	15	n/a	n/a	pyFR	0	TJ078
2003.613	1.6	2432293	WORD	n/a	wordpools/wordpool_EN.txt	BOAT	1.0	15	n/a	n/a	pyFR	0	TJ078
2006.285	1.6	2434965	WORD	n/a	wordpools/wordpool_EN.txt	MOLE	2.0	15	n/a	n/a	pyFR	0	TJ078
2009.04	1.6	2437720	WORD	n/a	wordpools/wordpool_EN.txt	SCHOOL	3.0	15	n/a	n/a	pyFR	0	TJ078
2011.494	1.6	2440174	WORD	n/a	wordpools/wordpool_EN.txt	SNOW	4.0	15	n/a	n/a	pyFR	0	TJ078
2014.014	1.6	2442694	WORD	n/a	wordpools/wordpool_EN.txt	CAGE	5.0	15	n/a	n/a	pyFR	0	TJ078
2016.752	1.6	2445432	WORD	n/a	wordpools/wordpool_EN.txt	FOG	6.0	15	n/a	n/a	pyFR	0	TJ078
2019.34	1.6	2448020	WORD	n/a	wordpools/wordpool_EN.txt	SMOKE	7.0	15	n/a	n/a	pyFR	0	TJ078
2021.861	1.6	2450542	WORD	n/a	wordpools/wordpool_EN.txt	HOLE	8.0	15	n/a	n/a	pyFR	0	TJ078
2024.499	1.6	2453180	WORD	n/a	wordpools/wordpool_EN.txt	FROG	9.0	15	n/a	n/a	pyFR	0	TJ078
2026.986	1.6	2455667	WORD	n/a	wordpools/wordpool_EN.txt	BEACH	10.0	15	n/a	n/a	pyFR	0	TJ078
2029.39	1.6	2458071	WORD	n/a	wordpools/wordpool_EN.txt	BAG	11.0	15	n/a	n/a	pyFR	0	TJ078
2031.994	1.6	2460675	WORD	n/a	wordpools/wordpool_EN.txt	SHEET	12.0	15	n/a	n/a	pyFR	0	TJ078
2034.532	1.6	2463213	WORD	n/a	wordpools/wordpool_EN.txt	SOUP	13.0	15	n/a	n/a	pyFR	0	TJ078
2037.236	1.6	2465917	WORD	n/a	wordpools/wordpool_EN.txt	TAPE	14.0	15	n/a	n/a	pyFR	0	TJ078
2040.041	1.6	2468722	WORD	n/a	wordpools/wordpool_EN.txt	NET	15.0	15	n/a	n/a	pyFR	0	TJ078
2041.644	1.001	2470325	START	n/a	n/a	n/a	n/a	15	[-999 -999 -999]	-999.0	pyFR	0	TJ078
2042.645	5.676	2471326	PROB	5.652	n/a	n/a	n/a	15	[8 7 8]	23.0	pyFR	0	TJ078
2048.321	3.523	2477002	PROB	3.494	n/a	n/a	n/a	15	[9 1 1]	11.0	pyFR	0	TJ078
2051.844	3.738	2480525	PROB	3.708	n/a	n/a	n/a	15	[7 3 9]	19.0	pyFR	0	TJ078
2055.582	4.609	2484263	PROB	4.584	n/a	n/a	n/a	15	[4 5 2]	11.0	pyFR	0	TJ078
2060.191	5.087	2488872	PROB	5.087	n/a	n/a	n/a	15	[1 9 2]	12.0	pyFR	0	TJ078
2065.278	1.157	2493959	STOP	n/a	n/a	n/a	n/a	15	[-999 -999 -999]	-999.0	pyFR	0	TJ078
2066.435	1.592	2495116	REC_START	n/a	n/a	n/a	-999.0	15	n/a	n/a	pyFR	0	TJ078
2068.027	0.713	2496709	REC_WORD	1.592	n/a	BOAT	-999.0	15	n/a	n/a	pyFR	0	TJ078
2068.74	2.279	2497422	REC_WORD	2.305	n/a	SCHOOL	-999.0	15	n/a	n/a	pyFR	0	TJ078
2071.019	1.929	2499701	REC_WORD	4.584	n/a	CAGE	-999.0	15	n/a	n/a	pyFR	0	TJ078
2072.948	41.132	2501630	REC_WORD_VV	6.513	n/a	<>	-999.0	15	n/a	n/a	pyFR	0	TJ078
2114.08	0.016	2542762	TRIAL	n/a	n/a	n/a	-999.0	16	n/a	n/a	pyFR	0	TJ078
2114.096	1.6	2542778	ORIENT	n/a	n/a	n/a	-999.0	16	n/a	n/a	pyFR	0	TJ078
2116.984	1.6	2545667	WORD	n/a	wordpools/wordpool_EN.txt	CHALK	1.0	16	n/a	n/a	pyFR	0	TJ078
2119.771	1.6	2548454	WORD	n/a	wordpools/wordpool_EN.txt	CHEEK	2.0	16	n/a	n/a	pyFR	0	TJ078
2122.443	1.6	2551126	WORD	n/a	wordpools/wordpool_EN.txt	FLOOR	3.0	16	n/a	n/a	pyFR	0	TJ078
2124.864	1.6	2553547	WORD	n/a	wordpools/wordpool_EN.txt	BEAR	4.0	16	n/a	n/a	pyFR	0	TJ078
2127.568	1.6	2556251	WORD	n/a	wordpools/wordpool_EN.txt	DOG	5.0	16	n/a	n/a	pyFR	0	TJ078
2130.323	1.6	2559006	WORD	n/a	wordpools/wordpool_EN.txt	SPRING	6.0	16	n/a	n/a	pyFR	0	TJ078
2132.877	1.6	2561560	WORD	n/a	wordpools/wordpool_EN.txt	STONE	7.0	16	n/a	n/a	pyFR	0	TJ078
2135.448	1.6	2564131	WORD	n/a	wordpools/wordpool_EN.txt	TOOTH	8.0	16	n/a	n/a	pyFR	0	TJ078
2138.053	1.6	2566736	WORD	n/a	wordpools/wordpool_EN.txt	FOOT	9.0	16	n/a	n/a	pyFR	0	TJ078
2140.689	1.6	2569372	WORD	n/a	wordpools/wordpool_EN.txt	TOAST	10.0	16	n/a	n/a	pyFR	0	TJ078
2143.111	1.6	2571794	WORD	n/a	wordpools/wordpool_EN.txt	MAZE	11.0	16	n/a	n/a	pyFR	0	TJ078
2145.597	1.6	2574280	WORD	n/a	wordpools/wordpool_EN.txt	AXE	12.0	16	n/a	n/a	pyFR	0	TJ078
2148.203	1.6	2576886	WORD	n/a	wordpools/wordpool_EN.txt	ARK	13.0	16	n/a	n/a	pyFR	0	TJ078
2150.974	1.6	2579657	WORD	n/a	wordpools/wordpool_EN.txt	CAVE	14.0	16	n/a	n/a	pyFR	0	TJ078
2153.644	1.6	2582327	WORD	n/a	wordpools/wordpool_EN.txt	TOY	15.0	16	n/a	n/a	pyFR	0	TJ078
2155.249	1.067	2583932	START	n/a	n/a	n/a	n/a	16	[-999 -999 -999]	-999.0	pyFR	0	TJ078
2156.316	5.408	2584999	PROB	5.376	n/a	n/a	n/a	16	[7 1 8]	16.0	pyFR	0	TJ078
2161.724	7.246	2590407	PROB	7.221	n/a	n/a	n/a	16	[7 8 9]	24.0	pyFR	0	TJ078
2168.97	5.825	2597654	PROB	5.805	n/a	n/a	n/a	16	[7 2 7]	16.0	pyFR	0	TJ078
2174.795	4.124	2603479	PROB	4.124	n/a	n/a	n/a	16	[2 1 6]	9.0	pyFR	0	TJ078
2178.919	1.154	2607603	STOP	n/a	n/a	n/a	n/a	16	[-999 -999 -999]	-999.0	pyFR	0	TJ078
2180.073	3.135	2608757	REC_START	n/a	n/a	n/a	-999.0	16	n/a	n/a	pyFR	0	TJ078
2183.208	1.354	2611892	REC_WORD	3.135	n/a	ARK	-999.0	16	n/a	n/a	pyFR	0	TJ078
2184.562	8.837	2613246	REC_WORD	4.489	n/a	TOY	-999.0	16	n/a	n/a	pyFR	0	TJ078
2193.399	680.418	2622083	REC_WORD	13.326	n/a	CAVE	-999.0	16	n/a	n/a	pyFR	0	TJ078
2873.817	0.061	3302516	SESS_END	n/a	n/a	n/a	-999.0	16	n/a	n/a	pyFR	0	TJ078
2873.878	0.0	3302577	E	n/a	n/a	n/a	-999.0	16	n/a	n/a	pyFR	0	TJ078
