onset	duration	sample	trial_type	response_time	stim_file	item_name	serialpos	list	test	answer	experiment	session	subject
0.0	2.789	122194	E	n/a	n/a	n/a	-999	11	n/a	n/a	pyFR	1	TJ080
2.789	0.0	124983	SESS_START	n/a	n/a	n/a	-999	-999	n/a	n/a	pyFR	1	TJ080
2.789	55.055	124983	B	n/a	n/a	n/a	-999	-999	n/a	n/a	pyFR	1	TJ080
57.844	0.013	180036	START	n/a	n/a	n/a	n/a	0	[-999 -999 -999]	-999	pyFR	1	TJ080
57.857	10.851	180049	PROB	n/a	n/a	n/a	n/a	0	[3 2 6]	11	pyFR	1	TJ080
68.708	8.932	190900	PROB	n/a	n/a	n/a	n/a	0	[2 3 3]	8	pyFR	1	TJ080
77.64	10.888	199832	PROB	n/a	n/a	n/a	n/a	0	[4 8 1]	13	pyFR	1	TJ080
88.528	47.744	210719	STOP	n/a	n/a	n/a	n/a	0	[-999 -999 -999]	-999	pyFR	1	TJ080
136.272	0.017	258462	TRIAL	n/a	n/a	n/a	-999	1	n/a	n/a	pyFR	1	TJ080
136.289	2.871	258479	ORIENT	n/a	n/a	n/a	-999	1	n/a	n/a	pyFR	1	TJ080
139.16	2.756	261349	WORD	n/a	wordpools/wordpool_EN.txt	CROW	1	1	n/a	n/a	pyFR	1	TJ080
141.916	2.653	264105	WORD	n/a	wordpools/wordpool_EN.txt	WORLD	2	1	n/a	n/a	pyFR	1	TJ080
144.569	2.571	266758	WORD	n/a	wordpools/wordpool_EN.txt	PALM	3	1	n/a	n/a	pyFR	1	TJ080
147.14	2.672	269329	WORD	n/a	wordpools/wordpool_EN.txt	LAND	4	1	n/a	n/a	pyFR	1	TJ080
149.812	2.721	272001	WORD	n/a	wordpools/wordpool_EN.txt	ROOF	5	1	n/a	n/a	pyFR	1	TJ080
152.533	2.422	274722	WORD	n/a	wordpools/wordpool_EN.txt	TOAD	6	1	n/a	n/a	pyFR	1	TJ080
154.955	2.703	277144	WORD	n/a	wordpools/wordpool_EN.txt	STREET	7	1	n/a	n/a	pyFR	1	TJ080
157.658	2.805	279847	WORD	n/a	wordpools/wordpool_EN.txt	PEA	8	1	n/a	n/a	pyFR	1	TJ080
160.463	2.488	282652	WORD	n/a	wordpools/wordpool_EN.txt	STEAM	9	1	n/a	n/a	pyFR	1	TJ080
162.951	2.437	285140	WORD	n/a	wordpools/wordpool_EN.txt	CASH	10	1	n/a	n/a	pyFR	1	TJ080
165.388	2.605	287577	WORD	n/a	wordpools/wordpool_EN.txt	SOAP	11	1	n/a	n/a	pyFR	1	TJ080
167.993	2.42	290181	WORD	n/a	wordpools/wordpool_EN.txt	PLANE	12	1	n/a	n/a	pyFR	1	TJ080
170.413	2.755	292601	WORD	n/a	wordpools/wordpool_EN.txt	POND	13	1	n/a	n/a	pyFR	1	TJ080
173.168	2.437	295356	WORD	n/a	wordpools/wordpool_EN.txt	SEA	14	1	n/a	n/a	pyFR	1	TJ080
175.605	1.604	297793	WORD	n/a	wordpools/wordpool_EN.txt	DRUM	15	1	n/a	n/a	pyFR	1	TJ080
177.209	0.9	299397	START	n/a	n/a	n/a	n/a	1	[-999 -999 -999]	-999	pyFR	1	TJ080
178.109	8.197	300297	PROB	n/a	n/a	n/a	n/a	1	[8 1 6]	15	pyFR	1	TJ080
186.306	13.202	308494	PROB	n/a	n/a	n/a	n/a	1	[6 2 2]	10	pyFR	1	TJ080
199.508	1.184	321695	STOP	n/a	n/a	n/a	n/a	1	[-999 -999 -999]	-999	pyFR	1	TJ080
200.692	5.008	322879	REC_START	n/a	n/a	n/a	-999	1	n/a	n/a	pyFR	1	TJ080
205.7	10.232	327887	REC_WORD	10.232	n/a	CROW	-999	1	n/a	n/a	pyFR	1	TJ080
215.932	9.004	338119	REC_WORD	9.004	n/a	SEA	-999	1	n/a	n/a	pyFR	1	TJ080
224.936	35.629	347122	REC_WORD	35.629	n/a	CALL	-999	1	n/a	n/a	pyFR	1	TJ080
260.565	0.016	382750	TRIAL	n/a	n/a	n/a	-999	2	n/a	n/a	pyFR	1	TJ080
260.581	2.838	382766	ORIENT	n/a	n/a	n/a	-999	2	n/a	n/a	pyFR	1	TJ080
263.419	2.456	385604	WORD	n/a	wordpools/wordpool_EN.txt	LEG	1	2	n/a	n/a	pyFR	1	TJ080
265.875	2.437	388060	WORD	n/a	wordpools/wordpool_EN.txt	VASE	2	2	n/a	n/a	pyFR	1	TJ080
268.312	2.436	390497	WORD	n/a	wordpools/wordpool_EN.txt	BOWL	3	2	n/a	n/a	pyFR	1	TJ080
270.748	2.571	392933	WORD	n/a	wordpools/wordpool_EN.txt	SWORD	4	2	n/a	n/a	pyFR	1	TJ080
273.319	2.521	395504	WORD	n/a	wordpools/wordpool_EN.txt	EEL	5	2	n/a	n/a	pyFR	1	TJ080
275.84	2.688	398025	WORD	n/a	wordpools/wordpool_EN.txt	GLASS	6	2	n/a	n/a	pyFR	1	TJ080
278.528	2.504	400712	WORD	n/a	wordpools/wordpool_EN.txt	CUBE	7	2	n/a	n/a	pyFR	1	TJ080
281.032	2.504	403216	WORD	n/a	wordpools/wordpool_EN.txt	NET	8	2	n/a	n/a	pyFR	1	TJ080
283.536	2.638	405720	WORD	n/a	wordpools/wordpool_EN.txt	CHALK	9	2	n/a	n/a	pyFR	1	TJ080
286.174	2.454	408358	WORD	n/a	wordpools/wordpool_EN.txt	MAT	10	2	n/a	n/a	pyFR	1	TJ080
288.628	2.438	410812	WORD	n/a	wordpools/wordpool_EN.txt	COUCH	11	2	n/a	n/a	pyFR	1	TJ080
291.066	2.571	413250	WORD	n/a	wordpools/wordpool_EN.txt	DEER	12	2	n/a	n/a	pyFR	1	TJ080
293.637	2.671	415821	WORD	n/a	wordpools/wordpool_EN.txt	NOSE	13	2	n/a	n/a	pyFR	1	TJ080
296.308	2.521	418492	WORD	n/a	wordpools/wordpool_EN.txt	TOOL	14	2	n/a	n/a	pyFR	1	TJ080
298.829	1.604	421013	WORD	n/a	wordpools/wordpool_EN.txt	ROPE	15	2	n/a	n/a	pyFR	1	TJ080
300.433	1.117	422617	START	n/a	n/a	n/a	n/a	2	[-999 -999 -999]	-999	pyFR	1	TJ080
301.55	19.575	423734	PROB	n/a	n/a	n/a	n/a	2	[3 5 8]	16	pyFR	1	TJ080
321.125	1.128	443308	STOP	n/a	n/a	n/a	n/a	2	[-999 -999 -999]	-999	pyFR	1	TJ080
322.253	45.0	444436	REC_START	n/a	n/a	n/a	-999	2	n/a	n/a	pyFR	1	TJ080
367.253	2.68	489434	REC_WORD_VV	2.68	n/a	<>	-999	2	n/a	n/a	pyFR	1	TJ080
369.933	0.016	492114	TRIAL	n/a	n/a	n/a	-999	3	n/a	n/a	pyFR	1	TJ080
369.949	2.838	492130	ORIENT	n/a	n/a	n/a	-999	3	n/a	n/a	pyFR	1	TJ080
372.787	2.437	494968	WORD	n/a	wordpools/wordpool_EN.txt	WHALE	1	3	n/a	n/a	pyFR	1	TJ080
375.224	2.805	497405	WORD	n/a	wordpools/wordpool_EN.txt	VINE	2	3	n/a	n/a	pyFR	1	TJ080
378.029	2.754	500210	WORD	n/a	wordpools/wordpool_EN.txt	PIG	3	3	n/a	n/a	pyFR	1	TJ080
380.783	2.471	502964	WORD	n/a	wordpools/wordpool_EN.txt	SAIL	4	3	n/a	n/a	pyFR	1	TJ080
383.254	2.521	505435	WORD	n/a	wordpools/wordpool_EN.txt	FLAG	5	3	n/a	n/a	pyFR	1	TJ080
385.775	2.621	507956	WORD	n/a	wordpools/wordpool_EN.txt	DOOR	6	3	n/a	n/a	pyFR	1	TJ080
388.396	2.638	510577	WORD	n/a	wordpools/wordpool_EN.txt	WING	7	3	n/a	n/a	pyFR	1	TJ080
391.034	2.488	513214	WORD	n/a	wordpools/wordpool_EN.txt	SEED	8	3	n/a	n/a	pyFR	1	TJ080
393.522	2.671	515702	WORD	n/a	wordpools/wordpool_EN.txt	JAIL	9	3	n/a	n/a	pyFR	1	TJ080
396.193	2.487	518373	WORD	n/a	wordpools/wordpool_EN.txt	RUG	10	3	n/a	n/a	pyFR	1	TJ080
398.68	2.555	520860	WORD	n/a	wordpools/wordpool_EN.txt	MAIL	11	3	n/a	n/a	pyFR	1	TJ080
401.235	2.47	523415	WORD	n/a	wordpools/wordpool_EN.txt	STRING	12	3	n/a	n/a	pyFR	1	TJ080
403.705	2.505	525885	WORD	n/a	wordpools/wordpool_EN.txt	SHIELD	13	3	n/a	n/a	pyFR	1	TJ080
406.21	2.554	528390	WORD	n/a	wordpools/wordpool_EN.txt	STEM	14	3	n/a	n/a	pyFR	1	TJ080
408.764	1.604	530944	WORD	n/a	wordpools/wordpool_EN.txt	BROOM	15	3	n/a	n/a	pyFR	1	TJ080
410.368	1.201	532548	START	n/a	n/a	n/a	n/a	3	[-999 -999 -999]	-999	pyFR	1	TJ080
411.569	11.218	533749	PROB	n/a	n/a	n/a	n/a	3	[9 4 1]	14	pyFR	1	TJ080
422.787	8.213	544966	PROB	n/a	n/a	n/a	n/a	3	[5 2 1]	8	pyFR	1	TJ080
431.0	1.171	553179	STOP	n/a	n/a	n/a	n/a	3	[-999 -999 -999]	-999	pyFR	1	TJ080
432.171	9.806	554350	REC_START	n/a	n/a	n/a	-999	3	n/a	n/a	pyFR	1	TJ080
441.977	26.427	564156	REC_WORD	26.427	n/a	SAIL	-999	3	n/a	n/a	pyFR	1	TJ080
468.404	11.597	590582	REC_WORD	11.597	n/a	EEL	-999	3	n/a	n/a	pyFR	1	TJ080
480.001	0.016	602178	TRIAL	n/a	n/a	n/a	-999	4	n/a	n/a	pyFR	1	TJ080
480.017	2.771	602194	ORIENT	n/a	n/a	n/a	-999	4	n/a	n/a	pyFR	1	TJ080
482.788	2.588	604965	WORD	n/a	wordpools/wordpool_EN.txt	ARM	1	4	n/a	n/a	pyFR	1	TJ080
485.376	2.723	607553	WORD	n/a	wordpools/wordpool_EN.txt	SNAIL	2	4	n/a	n/a	pyFR	1	TJ080
488.099	2.703	610276	WORD	n/a	wordpools/wordpool_EN.txt	RICE	3	4	n/a	n/a	pyFR	1	TJ080
490.802	2.638	612979	WORD	n/a	wordpools/wordpool_EN.txt	SHEEP	4	4	n/a	n/a	pyFR	1	TJ080
493.44	2.754	615617	WORD	n/a	wordpools/wordpool_EN.txt	TRASH	5	4	n/a	n/a	pyFR	1	TJ080
496.194	2.806	618371	WORD	n/a	wordpools/wordpool_EN.txt	SLEEVE	6	4	n/a	n/a	pyFR	1	TJ080
499.0	2.42	621177	WORD	n/a	wordpools/wordpool_EN.txt	TOAST	7	4	n/a	n/a	pyFR	1	TJ080
501.42	2.522	623597	WORD	n/a	wordpools/wordpool_EN.txt	RAT	8	4	n/a	n/a	pyFR	1	TJ080
503.942	2.569	626118	WORD	n/a	wordpools/wordpool_EN.txt	FAN	9	4	n/a	n/a	pyFR	1	TJ080
506.511	2.538	628687	WORD	n/a	wordpools/wordpool_EN.txt	SEAL	10	4	n/a	n/a	pyFR	1	TJ080
509.049	2.438	631225	WORD	n/a	wordpools/wordpool_EN.txt	OWL	11	4	n/a	n/a	pyFR	1	TJ080
511.487	2.604	633663	WORD	n/a	wordpools/wordpool_EN.txt	SHEET	12	4	n/a	n/a	pyFR	1	TJ080
514.091	2.721	636267	WORD	n/a	wordpools/wordpool_EN.txt	STORM	13	4	n/a	n/a	pyFR	1	TJ080
516.812	2.538	638988	WORD	n/a	wordpools/wordpool_EN.txt	SNAKE	14	4	n/a	n/a	pyFR	1	TJ080
519.35	1.605	641526	WORD	n/a	wordpools/wordpool_EN.txt	BADGE	15	4	n/a	n/a	pyFR	1	TJ080
520.955	1.149	643131	START	n/a	n/a	n/a	n/a	4	[-999 -999 -999]	-999	pyFR	1	TJ080
522.104	8.181	644280	PROB	n/a	n/a	n/a	n/a	4	[7 1 7]	15	pyFR	1	TJ080
530.285	20.267	652460	PROB	n/a	n/a	n/a	n/a	4	[8 6 7]	21	pyFR	1	TJ080
550.552	1.22	672727	STOP	n/a	n/a	n/a	n/a	4	[-999 -999 -999]	-999	pyFR	1	TJ080
551.772	45.0	673947	REC_START	n/a	n/a	n/a	-999	4	n/a	n/a	pyFR	1	TJ080
596.772	3.297	718945	REC_WORD_VV	3.297	n/a	<>	-999	4	n/a	n/a	pyFR	1	TJ080
600.069	0.017	722242	TRIAL	n/a	n/a	n/a	-999	5	n/a	n/a	pyFR	1	TJ080
600.086	2.938	722259	ORIENT	n/a	n/a	n/a	-999	5	n/a	n/a	pyFR	1	TJ080
603.024	2.688	725197	WORD	n/a	wordpools/wordpool_EN.txt	SWAMP	1	5	n/a	n/a	pyFR	1	TJ080
605.712	2.437	727885	WORD	n/a	wordpools/wordpool_EN.txt	PIT	2	5	n/a	n/a	pyFR	1	TJ080
608.149	2.605	730322	WORD	n/a	wordpools/wordpool_EN.txt	PIN	3	5	n/a	n/a	pyFR	1	TJ080
610.754	2.771	732927	WORD	n/a	wordpools/wordpool_EN.txt	TEA	4	5	n/a	n/a	pyFR	1	TJ080
613.525	2.604	735697	WORD	n/a	wordpools/wordpool_EN.txt	COAT	5	5	n/a	n/a	pyFR	1	TJ080
616.129	2.454	738301	WORD	n/a	wordpools/wordpool_EN.txt	ROOM	6	5	n/a	n/a	pyFR	1	TJ080
618.583	2.738	740755	WORD	n/a	wordpools/wordpool_EN.txt	PANTS	7	5	n/a	n/a	pyFR	1	TJ080
621.321	2.572	743493	WORD	n/a	wordpools/wordpool_EN.txt	THUMB	8	5	n/a	n/a	pyFR	1	TJ080
623.893	2.454	746065	WORD	n/a	wordpools/wordpool_EN.txt	MOON	9	5	n/a	n/a	pyFR	1	TJ080
626.347	2.571	748519	WORD	n/a	wordpools/wordpool_EN.txt	SOUP	10	5	n/a	n/a	pyFR	1	TJ080
628.918	2.804	751090	WORD	n/a	wordpools/wordpool_EN.txt	SPRING	11	5	n/a	n/a	pyFR	1	TJ080
631.722	2.688	753894	WORD	n/a	wordpools/wordpool_EN.txt	ROCK	12	5	n/a	n/a	pyFR	1	TJ080
634.41	2.455	756582	WORD	n/a	wordpools/wordpool_EN.txt	SHIP	13	5	n/a	n/a	pyFR	1	TJ080
636.865	2.804	759037	WORD	n/a	wordpools/wordpool_EN.txt	WALL	14	5	n/a	n/a	pyFR	1	TJ080
639.669	1.604	761841	WORD	n/a	wordpools/wordpool_EN.txt	FUR	15	5	n/a	n/a	pyFR	1	TJ080
641.273	0.933	763444	START	n/a	n/a	n/a	n/a	5	[-999 -999 -999]	-999	pyFR	1	TJ080
642.206	34.103	764377	PROB	n/a	n/a	n/a	n/a	5	[8 7 9]	24	pyFR	1	TJ080
676.309	1.157	798479	STOP	n/a	n/a	n/a	n/a	5	[-999 -999 -999]	-999	pyFR	1	TJ080
677.466	10.303	799636	REC_START	n/a	n/a	n/a	-999	5	n/a	n/a	pyFR	1	TJ080
687.769	10.482	809939	REC_WORD	10.482	n/a	SOAP	-999	5	n/a	n/a	pyFR	1	TJ080
698.251	31.136	820420	REC_WORD	31.136	n/a	SAIL	-999	5	n/a	n/a	pyFR	1	TJ080
729.387	0.016	851555	TRIAL	n/a	n/a	n/a	-999	6	n/a	n/a	pyFR	1	TJ080
729.403	2.705	851571	ORIENT	n/a	n/a	n/a	-999	6	n/a	n/a	pyFR	1	TJ080
732.108	2.538	854276	WORD	n/a	wordpools/wordpool_EN.txt	MAZE	1	6	n/a	n/a	pyFR	1	TJ080
734.646	2.555	856814	WORD	n/a	wordpools/wordpool_EN.txt	SINK	2	6	n/a	n/a	pyFR	1	TJ080
737.201	2.771	859369	WORD	n/a	wordpools/wordpool_EN.txt	DIME	3	6	n/a	n/a	pyFR	1	TJ080
739.972	2.537	862140	WORD	n/a	wordpools/wordpool_EN.txt	FILM	4	6	n/a	n/a	pyFR	1	TJ080
742.509	2.687	864677	WORD	n/a	wordpools/wordpool_EN.txt	DRESS	5	6	n/a	n/a	pyFR	1	TJ080
745.196	2.789	867364	WORD	n/a	wordpools/wordpool_EN.txt	PURSE	6	6	n/a	n/a	pyFR	1	TJ080
747.985	2.62	870153	WORD	n/a	wordpools/wordpool_EN.txt	SPOON	7	6	n/a	n/a	pyFR	1	TJ080
750.605	2.455	872773	WORD	n/a	wordpools/wordpool_EN.txt	BAG	8	6	n/a	n/a	pyFR	1	TJ080
753.06	2.704	875227	WORD	n/a	wordpools/wordpool_EN.txt	FLEA	9	6	n/a	n/a	pyFR	1	TJ080
755.764	2.771	877931	WORD	n/a	wordpools/wordpool_EN.txt	LAKE	10	6	n/a	n/a	pyFR	1	TJ080
758.535	2.505	880702	WORD	n/a	wordpools/wordpool_EN.txt	MULE	11	6	n/a	n/a	pyFR	1	TJ080
761.04	2.754	883207	WORD	n/a	wordpools/wordpool_EN.txt	CHEEK	12	6	n/a	n/a	pyFR	1	TJ080
763.794	2.438	885961	WORD	n/a	wordpools/wordpool_EN.txt	GIRL	13	6	n/a	n/a	pyFR	1	TJ080
766.232	2.471	888399	WORD	n/a	wordpools/wordpool_EN.txt	PLANT	14	6	n/a	n/a	pyFR	1	TJ080
768.703	1.603	890870	WORD	n/a	wordpools/wordpool_EN.txt	SKUNK	15	6	n/a	n/a	pyFR	1	TJ080
770.306	0.984	892473	START	n/a	n/a	n/a	n/a	6	[-999 -999 -999]	-999	pyFR	1	TJ080
771.29	11.269	893457	PROB	n/a	n/a	n/a	n/a	6	[3 3 4]	10	pyFR	1	TJ080
782.559	9.688	904725	PROB	n/a	n/a	n/a	n/a	6	[4 3 2]	9	pyFR	1	TJ080
792.247	1.048	914413	STOP	n/a	n/a	n/a	n/a	6	[-999 -999 -999]	-999	pyFR	1	TJ080
793.295	1.451	915461	REC_START	n/a	n/a	n/a	-999	6	n/a	n/a	pyFR	1	TJ080
794.746	17.789	916912	REC_WORD	17.789	n/a	SKUNK	-999	6	n/a	n/a	pyFR	1	TJ080
812.535	27.972	934700	REC_WORD	27.972	n/a	SHIP	-999	6	n/a	n/a	pyFR	1	TJ080
840.507	0.016	962671	TRIAL	n/a	n/a	n/a	-999	7	n/a	n/a	pyFR	1	TJ080
840.523	2.838	962687	ORIENT	n/a	n/a	n/a	-999	7	n/a	n/a	pyFR	1	TJ080
843.361	2.589	965525	WORD	n/a	wordpools/wordpool_EN.txt	SHARK	1	7	n/a	n/a	pyFR	1	TJ080
845.95	2.587	968114	WORD	n/a	wordpools/wordpool_EN.txt	GOLD	2	7	n/a	n/a	pyFR	1	TJ080
848.537	2.554	970701	WORD	n/a	wordpools/wordpool_EN.txt	CLOTH	3	7	n/a	n/a	pyFR	1	TJ080
851.091	2.789	973255	WORD	n/a	wordpools/wordpool_EN.txt	FARM	4	7	n/a	n/a	pyFR	1	TJ080
853.88	2.453	976044	WORD	n/a	wordpools/wordpool_EN.txt	CUP	5	7	n/a	n/a	pyFR	1	TJ080
856.333	2.622	978497	WORD	n/a	wordpools/wordpool_EN.txt	WAND	6	7	n/a	n/a	pyFR	1	TJ080
858.955	2.47	981119	WORD	n/a	wordpools/wordpool_EN.txt	BOOK	7	7	n/a	n/a	pyFR	1	TJ080
861.425	2.755	983589	WORD	n/a	wordpools/wordpool_EN.txt	MILK	8	7	n/a	n/a	pyFR	1	TJ080
864.18	2.706	986344	WORD	n/a	wordpools/wordpool_EN.txt	STOVE	9	7	n/a	n/a	pyFR	1	TJ080
866.886	2.486	989049	WORD	n/a	wordpools/wordpool_EN.txt	HAND	10	7	n/a	n/a	pyFR	1	TJ080
869.372	2.471	991535	WORD	n/a	wordpools/wordpool_EN.txt	ROAD	11	7	n/a	n/a	pyFR	1	TJ080
871.843	2.771	994006	WORD	n/a	wordpools/wordpool_EN.txt	TOE	12	7	n/a	n/a	pyFR	1	TJ080
874.614	2.788	996777	WORD	n/a	wordpools/wordpool_EN.txt	OAR	13	7	n/a	n/a	pyFR	1	TJ080
877.402	2.505	999565	WORD	n/a	wordpools/wordpool_EN.txt	SLUSH	14	7	n/a	n/a	pyFR	1	TJ080
879.907	1.603	1002070	WORD	n/a	wordpools/wordpool_EN.txt	GRAPE	15	7	n/a	n/a	pyFR	1	TJ080
881.51	1.001	1003673	START	n/a	n/a	n/a	n/a	7	[-999 -999 -999]	-999	pyFR	1	TJ080
882.511	7.045	1004674	PROB	n/a	n/a	n/a	n/a	7	[4 5 5]	14	pyFR	1	TJ080
889.556	8.598	1011719	PROB	n/a	n/a	n/a	n/a	7	[6 8 1]	15	pyFR	1	TJ080
898.154	8.065	1020316	PROB	n/a	n/a	n/a	n/a	7	[1 6 9]	16	pyFR	1	TJ080
906.219	1.184	1028381	STOP	n/a	n/a	n/a	n/a	7	[-999 -999 -999]	-999	pyFR	1	TJ080
907.403	4.392	1029565	REC_START	n/a	n/a	n/a	-999	7	n/a	n/a	pyFR	1	TJ080
911.795	13.151	1033957	REC_WORD	13.151	n/a	GRAPE	-999	7	n/a	n/a	pyFR	1	TJ080
924.946	11.58	1047107	REC_WORD_VV	11.58	n/a	<>	-999	7	n/a	n/a	pyFR	1	TJ080
936.526	19.175	1058687	REC_WORD	19.175	n/a	OWL	-999	7	n/a	n/a	pyFR	1	TJ080
955.701	0.016	1077861	TRIAL	n/a	n/a	n/a	-999	8	n/a	n/a	pyFR	1	TJ080
955.717	2.755	1077877	ORIENT	n/a	n/a	n/a	-999	8	n/a	n/a	pyFR	1	TJ080
958.472	2.537	1080632	WORD	n/a	wordpools/wordpool_EN.txt	WORM	1	8	n/a	n/a	pyFR	1	TJ080
961.009	2.772	1083169	WORD	n/a	wordpools/wordpool_EN.txt	NEST	2	8	n/a	n/a	pyFR	1	TJ080
963.781	2.454	1085941	WORD	n/a	wordpools/wordpool_EN.txt	FACE	3	8	n/a	n/a	pyFR	1	TJ080
966.235	2.588	1088395	WORD	n/a	wordpools/wordpool_EN.txt	BIRD	4	8	n/a	n/a	pyFR	1	TJ080
968.823	2.554	1090983	WORD	n/a	wordpools/wordpool_EN.txt	CAKE	5	8	n/a	n/a	pyFR	1	TJ080
971.377	2.572	1093537	WORD	n/a	wordpools/wordpool_EN.txt	PEN	6	8	n/a	n/a	pyFR	1	TJ080
973.949	2.77	1096109	WORD	n/a	wordpools/wordpool_EN.txt	BOARD	7	8	n/a	n/a	pyFR	1	TJ080
976.719	2.788	1098878	WORD	n/a	wordpools/wordpool_EN.txt	PET	8	8	n/a	n/a	pyFR	1	TJ080
979.507	2.538	1101666	WORD	n/a	wordpools/wordpool_EN.txt	HEART	9	8	n/a	n/a	pyFR	1	TJ080
982.045	2.671	1104204	WORD	n/a	wordpools/wordpool_EN.txt	CAR	10	8	n/a	n/a	pyFR	1	TJ080
984.716	2.571	1106875	WORD	n/a	wordpools/wordpool_EN.txt	MOLE	11	8	n/a	n/a	pyFR	1	TJ080
987.287	2.705	1109446	WORD	n/a	wordpools/wordpool_EN.txt	MOTH	12	8	n/a	n/a	pyFR	1	TJ080
989.992	2.804	1112151	WORD	n/a	wordpools/wordpool_EN.txt	BAT	13	8	n/a	n/a	pyFR	1	TJ080
992.796	2.705	1114955	WORD	n/a	wordpools/wordpool_EN.txt	FORK	14	8	n/a	n/a	pyFR	1	TJ080
995.501	1.604	1117660	WORD	n/a	wordpools/wordpool_EN.txt	GRASS	15	8	n/a	n/a	pyFR	1	TJ080
997.105	0.95	1119264	START	n/a	n/a	n/a	n/a	8	[-999 -999 -999]	-999	pyFR	1	TJ080
998.055	7.629	1120214	PROB	n/a	n/a	n/a	n/a	8	[2 2 9]	13	pyFR	1	TJ080
1005.684	11.67	1127842	PROB	n/a	n/a	n/a	n/a	8	[2 7 3]	12	pyFR	1	TJ080
1017.354	1.07	1139512	STOP	n/a	n/a	n/a	n/a	8	[-999 -999 -999]	-999	pyFR	1	TJ080
1018.424	44.994	1140582	REC_START	n/a	n/a	n/a	-999	8	n/a	n/a	pyFR	1	TJ080
1063.418	8.896	1185574	REC_WORD_VV	8.896	n/a	<>	-999	8	n/a	n/a	pyFR	1	TJ080
1072.314	0.016	1194470	TRIAL	n/a	n/a	n/a	-999	9	n/a	n/a	pyFR	1	TJ080
1072.33	2.988	1194486	ORIENT	n/a	n/a	n/a	-999	9	n/a	n/a	pyFR	1	TJ080
1075.318	2.755	1197474	WORD	n/a	wordpools/wordpool_EN.txt	SMOKE	1	9	n/a	n/a	pyFR	1	TJ080
1078.073	2.588	1200229	WORD	n/a	wordpools/wordpool_EN.txt	SHRIMP	2	9	n/a	n/a	pyFR	1	TJ080
1080.661	2.721	1202817	WORD	n/a	wordpools/wordpool_EN.txt	CART	3	9	n/a	n/a	pyFR	1	TJ080
1083.382	2.788	1205538	WORD	n/a	wordpools/wordpool_EN.txt	FOG	4	9	n/a	n/a	pyFR	1	TJ080
1086.17	2.739	1208326	WORD	n/a	wordpools/wordpool_EN.txt	SALT	5	9	n/a	n/a	pyFR	1	TJ080
1088.909	2.603	1211064	WORD	n/a	wordpools/wordpool_EN.txt	HOOK	6	9	n/a	n/a	pyFR	1	TJ080
1091.512	2.422	1213667	WORD	n/a	wordpools/wordpool_EN.txt	JUDGE	7	9	n/a	n/a	pyFR	1	TJ080
1093.934	2.72	1216089	WORD	n/a	wordpools/wordpool_EN.txt	BEAR	8	9	n/a	n/a	pyFR	1	TJ080
1096.654	2.655	1218809	WORD	n/a	wordpools/wordpool_EN.txt	GOAT	9	9	n/a	n/a	pyFR	1	TJ080
1099.309	2.606	1221464	WORD	n/a	wordpools/wordpool_EN.txt	BEE	10	9	n/a	n/a	pyFR	1	TJ080
1101.915	2.536	1224070	WORD	n/a	wordpools/wordpool_EN.txt	FUDGE	11	9	n/a	n/a	pyFR	1	TJ080
1104.451	2.523	1226606	WORD	n/a	wordpools/wordpool_EN.txt	WEB	12	9	n/a	n/a	pyFR	1	TJ080
1106.974	2.685	1229129	WORD	n/a	wordpools/wordpool_EN.txt	BEACH	13	9	n/a	n/a	pyFR	1	TJ080
1109.659	2.605	1231814	WORD	n/a	wordpools/wordpool_EN.txt	VAN	14	9	n/a	n/a	pyFR	1	TJ080
1112.264	1.605	1234419	WORD	n/a	wordpools/wordpool_EN.txt	DOG	15	9	n/a	n/a	pyFR	1	TJ080
1113.869	1.017	1236024	START	n/a	n/a	n/a	n/a	9	[-999 -999 -999]	-999	pyFR	1	TJ080
1114.886	12.52	1237041	PROB	n/a	n/a	n/a	n/a	9	[7 1 4]	12	pyFR	1	TJ080
1127.406	18.093	1249560	PROB	n/a	n/a	n/a	n/a	9	[3 9 5]	17	pyFR	1	TJ080
1145.499	1.04	1267652	STOP	n/a	n/a	n/a	n/a	9	[-999 -999 -999]	-999	pyFR	1	TJ080
1146.539	45.0	1268692	REC_START	n/a	n/a	n/a	-999	9	n/a	n/a	pyFR	1	TJ080
1191.539	7.17	1313691	REC_WORD_VV	7.17	n/a	<>	-999	9	n/a	n/a	pyFR	1	TJ080
1198.709	0.017	1320861	TRIAL	n/a	n/a	n/a	-999	10	n/a	n/a	pyFR	1	TJ080
1198.726	2.755	1320878	ORIENT	n/a	n/a	n/a	-999	10	n/a	n/a	pyFR	1	TJ080
1201.481	2.505	1323632	WORD	n/a	wordpools/wordpool_EN.txt	CAGE	1	10	n/a	n/a	pyFR	1	TJ080
1203.986	2.503	1326137	WORD	n/a	wordpools/wordpool_EN.txt	DITCH	2	10	n/a	n/a	pyFR	1	TJ080
1206.489	2.505	1328640	WORD	n/a	wordpools/wordpool_EN.txt	LIP	3	10	n/a	n/a	pyFR	1	TJ080
1208.994	2.62	1331145	WORD	n/a	wordpools/wordpool_EN.txt	BLUSH	4	10	n/a	n/a	pyFR	1	TJ080
1211.614	2.738	1333765	WORD	n/a	wordpools/wordpool_EN.txt	CONE	5	10	n/a	n/a	pyFR	1	TJ080
1214.352	2.805	1336503	WORD	n/a	wordpools/wordpool_EN.txt	PEACH	6	10	n/a	n/a	pyFR	1	TJ080
1217.157	2.605	1339308	WORD	n/a	wordpools/wordpool_EN.txt	FLAME	7	10	n/a	n/a	pyFR	1	TJ080
1219.762	2.654	1341913	WORD	n/a	wordpools/wordpool_EN.txt	NAIL	8	10	n/a	n/a	pyFR	1	TJ080
1222.416	2.587	1344567	WORD	n/a	wordpools/wordpool_EN.txt	EGG	9	10	n/a	n/a	pyFR	1	TJ080
1225.003	2.421	1347154	WORD	n/a	wordpools/wordpool_EN.txt	BOY	10	10	n/a	n/a	pyFR	1	TJ080
1227.424	2.555	1349575	WORD	n/a	wordpools/wordpool_EN.txt	ROOT	11	10	n/a	n/a	pyFR	1	TJ080
1229.979	2.604	1352129	WORD	n/a	wordpools/wordpool_EN.txt	WAVE	12	10	n/a	n/a	pyFR	1	TJ080
1232.583	2.771	1354733	WORD	n/a	wordpools/wordpool_EN.txt	CLOCK	13	10	n/a	n/a	pyFR	1	TJ080
1235.354	2.721	1357504	WORD	n/a	wordpools/wordpool_EN.txt	FLUTE	14	10	n/a	n/a	pyFR	1	TJ080
1238.075	1.604	1360225	WORD	n/a	wordpools/wordpool_EN.txt	LOCK	15	10	n/a	n/a	pyFR	1	TJ080
1239.679	0.901	1361829	START	n/a	n/a	n/a	n/a	10	[-999 -999 -999]	-999	pyFR	1	TJ080
1240.58	11.903	1362730	PROB	n/a	n/a	n/a	n/a	10	[3 3 5]	11	pyFR	1	TJ080
1252.483	21.759	1374633	PROB	n/a	n/a	n/a	n/a	10	[6 8 7]	21	pyFR	1	TJ080
1274.242	1.163	1396391	STOP	n/a	n/a	n/a	n/a	10	[-999 -999 -999]	-999	pyFR	1	TJ080
1275.405	44.994	1397554	REC_START	n/a	n/a	n/a	-999	10	n/a	n/a	pyFR	1	TJ080
1320.399	22.571	1442546	REC_WORD_VV	22.571	n/a	<>	-999	10	n/a	n/a	pyFR	1	TJ080
1342.97	401.854	1465116	TRIAL	n/a	n/a	n/a	-999	11	n/a	n/a	pyFR	1	TJ080
1744.824	0.0	1866956	B	n/a	n/a	n/a	-999	11	n/a	n/a	pyFR	1	TJ080
1744.824	20.139	1866956	SESS_START	n/a	n/a	n/a	-999	11	n/a	n/a	pyFR	1	TJ080
1764.963	0.016	1887094	TRIAL	n/a	n/a	n/a	-999	11	n/a	n/a	pyFR	1	TJ080
1764.979	2.905	1887110	ORIENT	n/a	n/a	n/a	-999	11	n/a	n/a	pyFR	1	TJ080
1767.884	2.77	1890015	WORD	n/a	wordpools/wordpool_EN.txt	INK	1	11	n/a	n/a	pyFR	1	TJ080
1770.654	2.472	1892785	WORD	n/a	wordpools/wordpool_EN.txt	CORD	2	11	n/a	n/a	pyFR	1	TJ080
1773.126	2.67	1895257	WORD	n/a	wordpools/wordpool_EN.txt	CORN	3	11	n/a	n/a	pyFR	1	TJ080
1775.796	2.722	1897927	WORD	n/a	wordpools/wordpool_EN.txt	TOOTH	4	11	n/a	n/a	pyFR	1	TJ080
1778.518	2.522	1900649	WORD	n/a	wordpools/wordpool_EN.txt	COW	5	11	n/a	n/a	pyFR	1	TJ080
1781.04	2.636	1903171	WORD	n/a	wordpools/wordpool_EN.txt	YARD	6	11	n/a	n/a	pyFR	1	TJ080
1783.676	2.456	1905807	WORD	n/a	wordpools/wordpool_EN.txt	LAWN	7	11	n/a	n/a	pyFR	1	TJ080
1786.132	2.686	1908262	WORD	n/a	wordpools/wordpool_EN.txt	BELL	8	11	n/a	n/a	pyFR	1	TJ080
1788.818	2.606	1910948	WORD	n/a	wordpools/wordpool_EN.txt	FOOT	9	11	n/a	n/a	pyFR	1	TJ080
1791.424	2.471	1913554	WORD	n/a	wordpools/wordpool_EN.txt	BREAD	10	11	n/a	n/a	pyFR	1	TJ080
1793.895	2.736	1916025	WORD	n/a	wordpools/wordpool_EN.txt	HOOF	11	11	n/a	n/a	pyFR	1	TJ080
1796.631	2.456	1918761	WORD	n/a	wordpools/wordpool_EN.txt	TAPE	12	11	n/a	n/a	pyFR	1	TJ080
1799.087	2.804	1921217	WORD	n/a	wordpools/wordpool_EN.txt	FOOD	13	11	n/a	n/a	pyFR	1	TJ080
1801.891	2.754	1924021	WORD	n/a	wordpools/wordpool_EN.txt	MUD	14	11	n/a	n/a	pyFR	1	TJ080
1804.645	1.604	1926775	WORD	n/a	wordpools/wordpool_EN.txt	CAVE	15	11	n/a	n/a	pyFR	1	TJ080
1806.249	0.901	1928379	START	n/a	n/a	n/a	n/a	11	[-999 -999 -999]	-999	pyFR	1	TJ080
1807.15	12.32	1929280	PROB	n/a	n/a	n/a	n/a	11	[9 8 1]	18	pyFR	1	TJ080
1819.47	14.953	1941599	PROB	n/a	n/a	n/a	n/a	11	[5 3 1]	9	pyFR	1	TJ080
1834.423	1.074	1956552	STOP	n/a	n/a	n/a	n/a	11	[-999 -999 -999]	-999	pyFR	1	TJ080
1835.497	45.018	1957626	REC_START	n/a	n/a	n/a	-999	11	n/a	n/a	pyFR	1	TJ080
1880.515	3.013	2002642	REC_WORD_VV	3.013	n/a	<>	-999	11	n/a	n/a	pyFR	1	TJ080
1883.528	0.016	2005655	TRIAL	n/a	n/a	n/a	-999	12	n/a	n/a	pyFR	1	TJ080
1883.544	2.872	2005671	ORIENT	n/a	n/a	n/a	-999	12	n/a	n/a	pyFR	1	TJ080
1886.416	2.589	2008543	WORD	n/a	wordpools/wordpool_EN.txt	CROWN	1	12	n/a	n/a	pyFR	1	TJ080
1889.005	2.619	2011132	WORD	n/a	wordpools/wordpool_EN.txt	ICE	2	12	n/a	n/a	pyFR	1	TJ080
1891.624	2.489	2013751	WORD	n/a	wordpools/wordpool_EN.txt	STAR	3	12	n/a	n/a	pyFR	1	TJ080
1894.113	2.437	2016240	WORD	n/a	wordpools/wordpool_EN.txt	HEN	4	12	n/a	n/a	pyFR	1	TJ080
1896.55	2.521	2018677	WORD	n/a	wordpools/wordpool_EN.txt	DESK	5	12	n/a	n/a	pyFR	1	TJ080
1899.071	2.554	2021197	WORD	n/a	wordpools/wordpool_EN.txt	WOOD	6	12	n/a	n/a	pyFR	1	TJ080
1901.625	2.754	2023751	WORD	n/a	wordpools/wordpool_EN.txt	FORT	7	12	n/a	n/a	pyFR	1	TJ080
1904.379	2.657	2026505	WORD	n/a	wordpools/wordpool_EN.txt	TENT	8	12	n/a	n/a	pyFR	1	TJ080
1907.036	2.585	2029162	WORD	n/a	wordpools/wordpool_EN.txt	SPARK	9	12	n/a	n/a	pyFR	1	TJ080
1909.621	2.573	2031747	WORD	n/a	wordpools/wordpool_EN.txt	CANE	10	12	n/a	n/a	pyFR	1	TJ080
1912.194	2.603	2034320	WORD	n/a	wordpools/wordpool_EN.txt	STORE	11	12	n/a	n/a	pyFR	1	TJ080
1914.797	2.504	2036923	WORD	n/a	wordpools/wordpool_EN.txt	TAIL	12	12	n/a	n/a	pyFR	1	TJ080
1917.301	2.521	2039427	WORD	n/a	wordpools/wordpool_EN.txt	VEST	13	12	n/a	n/a	pyFR	1	TJ080
1919.822	2.487	2041948	WORD	n/a	wordpools/wordpool_EN.txt	BLOOM	14	12	n/a	n/a	pyFR	1	TJ080
1922.309	1.606	2044435	WORD	n/a	wordpools/wordpool_EN.txt	TIE	15	12	n/a	n/a	pyFR	1	TJ080
1923.915	0.915	2046041	START	n/a	n/a	n/a	n/a	12	[-999 -999 -999]	-999	pyFR	1	TJ080
1924.83	34.179	2046956	PROB	n/a	n/a	n/a	n/a	12	[8 4 4]	16	pyFR	1	TJ080
1959.009	1.232	2081133	STOP	n/a	n/a	n/a	n/a	12	[-999 -999 -999]	-999	pyFR	1	TJ080
1960.241	45.0	2082365	REC_START	n/a	n/a	n/a	-999	12	n/a	n/a	pyFR	1	TJ080
2005.241	3.397	2127364	REC_WORD_VV	3.397	n/a	<>	-999	12	n/a	n/a	pyFR	1	TJ080
2008.638	0.017	2130761	TRIAL	n/a	n/a	n/a	-999	13	n/a	n/a	pyFR	1	TJ080
2008.655	3.006	2130778	ORIENT	n/a	n/a	n/a	-999	13	n/a	n/a	pyFR	1	TJ080
2011.661	2.703	2133783	WORD	n/a	wordpools/wordpool_EN.txt	ANT	1	13	n/a	n/a	pyFR	1	TJ080
2014.364	2.656	2136486	WORD	n/a	wordpools/wordpool_EN.txt	RAKE	2	13	n/a	n/a	pyFR	1	TJ080
2017.02	2.47	2139142	WORD	n/a	wordpools/wordpool_EN.txt	HOUSE	3	13	n/a	n/a	pyFR	1	TJ080
2019.49	2.672	2141612	WORD	n/a	wordpools/wordpool_EN.txt	SKI	4	13	n/a	n/a	pyFR	1	TJ080
2022.162	2.67	2144284	WORD	n/a	wordpools/wordpool_EN.txt	HORN	5	13	n/a	n/a	pyFR	1	TJ080
2024.832	2.638	2146954	WORD	n/a	wordpools/wordpool_EN.txt	SOCK	6	13	n/a	n/a	pyFR	1	TJ080
2027.47	2.689	2149592	WORD	n/a	wordpools/wordpool_EN.txt	BATH	7	13	n/a	n/a	pyFR	1	TJ080
2030.159	2.586	2152281	WORD	n/a	wordpools/wordpool_EN.txt	CHIN	8	13	n/a	n/a	pyFR	1	TJ080
2032.745	2.805	2154867	WORD	n/a	wordpools/wordpool_EN.txt	FRUIT	9	13	n/a	n/a	pyFR	1	TJ080
2035.55	2.472	2157672	WORD	n/a	wordpools/wordpool_EN.txt	GLOVE	10	13	n/a	n/a	pyFR	1	TJ080
2038.022	2.703	2160143	WORD	n/a	wordpools/wordpool_EN.txt	TRAY	11	13	n/a	n/a	pyFR	1	TJ080
2040.725	2.423	2162846	WORD	n/a	wordpools/wordpool_EN.txt	SQUARE	12	13	n/a	n/a	pyFR	1	TJ080
2043.148	2.737	2165269	WORD	n/a	wordpools/wordpool_EN.txt	LAMP	13	13	n/a	n/a	pyFR	1	TJ080
2045.885	2.553	2168006	WORD	n/a	wordpools/wordpool_EN.txt	DOLL	14	13	n/a	n/a	pyFR	1	TJ080
2048.438	1.605	2170559	WORD	n/a	wordpools/wordpool_EN.txt	SMILE	15	13	n/a	n/a	pyFR	1	TJ080
2050.043	1.2	2172164	START	n/a	n/a	n/a	n/a	13	[-999 -999 -999]	-999	pyFR	1	TJ080
2051.243	50.851	2173364	PROB	n/a	n/a	n/a	n/a	13	[9 5 4]	18	pyFR	1	TJ080
2102.094	1.221	2224213	STOP	n/a	n/a	n/a	n/a	13	[-999 -999 -999]	-999	pyFR	1	TJ080
2103.315	45.0	2225434	REC_START	n/a	n/a	n/a	-999	13	n/a	n/a	pyFR	1	TJ080
2148.315	3.816	2270433	REC_WORD_VV	3.816	n/a	<>	-999	13	n/a	n/a	pyFR	1	TJ080
2152.131	0.016	2274248	TRIAL	n/a	n/a	n/a	-999	14	n/a	n/a	pyFR	1	TJ080
2152.147	2.905	2274264	ORIENT	n/a	n/a	n/a	-999	14	n/a	n/a	pyFR	1	TJ080
2155.052	2.703	2277169	WORD	n/a	wordpools/wordpool_EN.txt	OAK	1	14	n/a	n/a	pyFR	1	TJ080
2157.755	2.422	2279872	WORD	n/a	wordpools/wordpool_EN.txt	GEESE	2	14	n/a	n/a	pyFR	1	TJ080
2160.177	2.42	2282294	WORD	n/a	wordpools/wordpool_EN.txt	MUG	3	14	n/a	n/a	pyFR	1	TJ080
2162.597	2.572	2284714	WORD	n/a	wordpools/wordpool_EN.txt	STONE	4	14	n/a	n/a	pyFR	1	TJ080
2165.169	2.453	2287286	WORD	n/a	wordpools/wordpool_EN.txt	DART	5	14	n/a	n/a	pyFR	1	TJ080
2167.622	2.455	2289739	WORD	n/a	wordpools/wordpool_EN.txt	CLOUD	6	14	n/a	n/a	pyFR	1	TJ080
2170.077	2.453	2292194	WORD	n/a	wordpools/wordpool_EN.txt	PIE	7	14	n/a	n/a	pyFR	1	TJ080
2172.53	2.456	2294647	WORD	n/a	wordpools/wordpool_EN.txt	LEAF	8	14	n/a	n/a	pyFR	1	TJ080
2174.986	2.486	2297103	WORD	n/a	wordpools/wordpool_EN.txt	PIPE	9	14	n/a	n/a	pyFR	1	TJ080
2177.472	2.472	2299588	WORD	n/a	wordpools/wordpool_EN.txt	CHAIR	10	14	n/a	n/a	pyFR	1	TJ080
2179.944	2.603	2302060	WORD	n/a	wordpools/wordpool_EN.txt	SPONGE	11	14	n/a	n/a	pyFR	1	TJ080
2182.547	2.439	2304663	WORD	n/a	wordpools/wordpool_EN.txt	PLATE	12	14	n/a	n/a	pyFR	1	TJ080
2184.986	2.753	2307102	WORD	n/a	wordpools/wordpool_EN.txt	MAP	13	14	n/a	n/a	pyFR	1	TJ080
2187.739	2.555	2309855	WORD	n/a	wordpools/wordpool_EN.txt	STAIR	14	14	n/a	n/a	pyFR	1	TJ080
2190.294	1.604	2312410	WORD	n/a	wordpools/wordpool_EN.txt	FENCE	15	14	n/a	n/a	pyFR	1	TJ080
2191.898	0.933	2314014	START	n/a	n/a	n/a	n/a	14	[-999 -999 -999]	-999	pyFR	1	TJ080
2192.831	21.411	2314947	PROB	n/a	n/a	n/a	n/a	14	[8 6 3]	17	pyFR	1	TJ080
2214.242	1.195	2336357	STOP	n/a	n/a	n/a	n/a	14	[-999 -999 -999]	-999	pyFR	1	TJ080
2215.437	45.0	2337552	REC_START	n/a	n/a	n/a	-999	14	n/a	n/a	pyFR	1	TJ080
2260.437	8.189	2382551	REC_WORD_VV	8.189	n/a	<>	-999	14	n/a	n/a	pyFR	1	TJ080
2268.626	0.016	2390739	TRIAL	n/a	n/a	n/a	-999	15	n/a	n/a	pyFR	1	TJ080
2268.642	2.972	2390755	ORIENT	n/a	n/a	n/a	-999	15	n/a	n/a	pyFR	1	TJ080
2271.614	2.721	2393727	WORD	n/a	wordpools/wordpool_EN.txt	STICK	1	15	n/a	n/a	pyFR	1	TJ080
2274.335	2.589	2396448	WORD	n/a	wordpools/wordpool_EN.txt	JEEP	2	15	n/a	n/a	pyFR	1	TJ080
2276.924	2.604	2399037	WORD	n/a	wordpools/wordpool_EN.txt	ELF	3	15	n/a	n/a	pyFR	1	TJ080
2279.528	2.554	2401641	WORD	n/a	wordpools/wordpool_EN.txt	DUCK	4	15	n/a	n/a	pyFR	1	TJ080
2282.082	2.587	2404195	WORD	n/a	wordpools/wordpool_EN.txt	SHOE	5	15	n/a	n/a	pyFR	1	TJ080
2284.669	2.771	2406782	WORD	n/a	wordpools/wordpool_EN.txt	BAND	6	15	n/a	n/a	pyFR	1	TJ080
2287.44	2.805	2409553	WORD	n/a	wordpools/wordpool_EN.txt	HAWK	7	15	n/a	n/a	pyFR	1	TJ080
2290.245	2.689	2412357	WORD	n/a	wordpools/wordpool_EN.txt	BUSH	8	15	n/a	n/a	pyFR	1	TJ080
2292.934	2.687	2415046	WORD	n/a	wordpools/wordpool_EN.txt	SHIRT	9	15	n/a	n/a	pyFR	1	TJ080
2295.621	2.488	2417733	WORD	n/a	wordpools/wordpool_EN.txt	BRUSH	10	15	n/a	n/a	pyFR	1	TJ080
2298.109	2.57	2420221	WORD	n/a	wordpools/wordpool_EN.txt	HOLE	11	15	n/a	n/a	pyFR	1	TJ080
2300.679	2.738	2422791	WORD	n/a	wordpools/wordpool_EN.txt	BRICK	12	15	n/a	n/a	pyFR	1	TJ080
2303.417	2.489	2425529	WORD	n/a	wordpools/wordpool_EN.txt	RIB	13	15	n/a	n/a	pyFR	1	TJ080
2305.906	2.737	2428018	WORD	n/a	wordpools/wordpool_EN.txt	JET	14	15	n/a	n/a	pyFR	1	TJ080
2308.643	1.603	2430755	WORD	n/a	wordpools/wordpool_EN.txt	FOX	15	15	n/a	n/a	pyFR	1	TJ080
2310.246	0.968	2432358	START	n/a	n/a	n/a	n/a	15	[-999 -999 -999]	-999	pyFR	1	TJ080
2311.214	37.17	2433326	PROB	n/a	n/a	n/a	n/a	15	[8 3 9]	20	pyFR	1	TJ080
2348.384	1.145	2470494	STOP	n/a	n/a	n/a	n/a	15	[-999 -999 -999]	-999	pyFR	1	TJ080
2349.529	45.0	2471639	REC_START	n/a	n/a	n/a	-999	15	n/a	n/a	pyFR	1	TJ080
2394.529	2.746	2516638	REC_WORD_VV	2.746	n/a	<>	-999	15	n/a	n/a	pyFR	1	TJ080
2397.275	0.017	2519384	TRIAL	n/a	n/a	n/a	-999	16	n/a	n/a	pyFR	1	TJ080
2397.292	2.889	2519401	ORIENT	n/a	n/a	n/a	-999	16	n/a	n/a	pyFR	1	TJ080
2400.181	2.805	2522290	WORD	n/a	wordpools/wordpool_EN.txt	RAIN	1	16	n/a	n/a	pyFR	1	TJ080
2402.986	2.654	2525094	WORD	n/a	wordpools/wordpool_EN.txt	PARK	2	16	n/a	n/a	pyFR	1	TJ080
2405.64	2.77	2527748	WORD	n/a	wordpools/wordpool_EN.txt	MOOSE	3	16	n/a	n/a	pyFR	1	TJ080
2408.41	2.606	2530518	WORD	n/a	wordpools/wordpool_EN.txt	ROSE	4	16	n/a	n/a	pyFR	1	TJ080
2411.016	2.453	2533124	WORD	n/a	wordpools/wordpool_EN.txt	POLE	5	16	n/a	n/a	pyFR	1	TJ080
2413.469	2.589	2535577	WORD	n/a	wordpools/wordpool_EN.txt	EAR	6	16	n/a	n/a	pyFR	1	TJ080
2416.058	2.636	2538166	WORD	n/a	wordpools/wordpool_EN.txt	CAT	7	16	n/a	n/a	pyFR	1	TJ080
2418.694	2.638	2540802	WORD	n/a	wordpools/wordpool_EN.txt	TANK	8	16	n/a	n/a	pyFR	1	TJ080
2421.332	2.572	2543440	WORD	n/a	wordpools/wordpool_EN.txt	SIGN	9	16	n/a	n/a	pyFR	1	TJ080
2423.904	2.453	2546012	WORD	n/a	wordpools/wordpool_EN.txt	BRANCH	10	16	n/a	n/a	pyFR	1	TJ080
2426.357	2.606	2548465	WORD	n/a	wordpools/wordpool_EN.txt	HAT	11	16	n/a	n/a	pyFR	1	TJ080
2428.963	2.72	2551070	WORD	n/a	wordpools/wordpool_EN.txt	JAR	12	16	n/a	n/a	pyFR	1	TJ080
2431.683	2.405	2553790	WORD	n/a	wordpools/wordpool_EN.txt	PRINCE	13	16	n/a	n/a	pyFR	1	TJ080
2434.088	2.587	2556195	WORD	n/a	wordpools/wordpool_EN.txt	STRAW	14	16	n/a	n/a	pyFR	1	TJ080
2436.675	1.603	2558782	WORD	n/a	wordpools/wordpool_EN.txt	MOUTH	15	16	n/a	n/a	pyFR	1	TJ080
2438.278	1.135	2560385	START	n/a	n/a	n/a	n/a	16	[-999 -999 -999]	-999	pyFR	1	TJ080
2439.413	10.434	2561520	PROB	n/a	n/a	n/a	n/a	16	[4 1 2]	7	pyFR	1	TJ080
2449.847	22.787	2571954	PROB	n/a	n/a	n/a	n/a	16	[5 6 9]	20	pyFR	1	TJ080
2472.634	1.204	2594740	STOP	n/a	n/a	n/a	n/a	16	[-999 -999 -999]	-999	pyFR	1	TJ080
2473.838	44.994	2595944	REC_START	n/a	n/a	n/a	-999	16	n/a	n/a	pyFR	1	TJ080
2518.832	535.549	2640936	REC_WORD_VV	535.549	n/a	<>	-999	16	n/a	n/a	pyFR	1	TJ080
3054.381	0.061	3176466	SESS_END	n/a	n/a	n/a	-999	16	n/a	n/a	pyFR	1	TJ080
3054.442	0.0	3176527	E	n/a	n/a	n/a	-999	16	n/a	n/a	pyFR	1	TJ080
