onset	duration	sample	trial_type	response_time	stim_file	item_name	serialpos	list	test	answer	experiment	session	subject
0.0	0.0	75313	B	n/a	n/a	n/a	-999	-999	n/a	n/a	pyFR	0	TJ013
0.0	128.119	75313	SESS_START	n/a	n/a	n/a	-999	-999	n/a	n/a	pyFR	0	TJ013
128.119	0.039	126559	START	n/a	n/a	n/a	n/a	0	[-999 -999 -999]	-999	pyFR	0	TJ013
128.158	6.379	126575	PROB	n/a	n/a	n/a	n/a	0	[6 5 9]	23	pyFR	0	TJ013
134.537	7.313	129126	PROB	n/a	n/a	n/a	n/a	0	[7 4 9]	20	pyFR	0	TJ013
141.85	4.174	132051	PROB	n/a	n/a	n/a	n/a	0	[8 1 7]	16	pyFR	0	TJ013
146.024	4.224	133721	PROB	n/a	n/a	n/a	n/a	0	[3 3 4]	10	pyFR	0	TJ013
150.248	4.342	135410	PROB	n/a	n/a	n/a	n/a	0	[7 8 1]	16	pyFR	0	TJ013
154.59	3.575	137147	PROB	n/a	n/a	n/a	n/a	0	[9 2 2]	13	pyFR	0	TJ013
158.165	63.416	138577	STOP	n/a	n/a	n/a	n/a	0	[-999 -999 -999]	-999	pyFR	0	TJ013
221.581	0.016	163943	TRIAL	n/a	n/a	n/a	-999	-999	n/a	n/a	pyFR	0	TJ013
221.597	2.972	163949	ORIENT	n/a	n/a	n/a	-999	-999	n/a	n/a	pyFR	0	TJ013
224.569	2.721	165138	WORD	n/a	wordpools/wordpool_EN.txt	MOUSE	1	1	n/a	n/a	pyFR	0	TJ013
227.29	2.671	166226	WORD	n/a	wordpools/wordpool_EN.txt	COUCH	2	1	n/a	n/a	pyFR	0	TJ013
229.961	2.556	167294	WORD	n/a	wordpools/wordpool_EN.txt	TEA	3	1	n/a	n/a	pyFR	0	TJ013
232.517	2.604	168317	WORD	n/a	wordpools/wordpool_EN.txt	CROWN	4	1	n/a	n/a	pyFR	0	TJ013
235.121	2.539	169358	WORD	n/a	wordpools/wordpool_EN.txt	STORE	5	1	n/a	n/a	pyFR	0	TJ013
237.66	2.437	170374	WORD	n/a	wordpools/wordpool_EN.txt	STAR	6	1	n/a	n/a	pyFR	0	TJ013
240.097	2.739	171349	WORD	n/a	wordpools/wordpool_EN.txt	STRAW	7	1	n/a	n/a	pyFR	0	TJ013
242.836	2.738	172444	WORD	n/a	wordpools/wordpool_EN.txt	JAR	8	1	n/a	n/a	pyFR	0	TJ013
245.574	2.521	173539	WORD	n/a	wordpools/wordpool_EN.txt	GATE	9	1	n/a	n/a	pyFR	0	TJ013
248.095	2.805	174548	WORD	n/a	wordpools/wordpool_EN.txt	ICE	10	1	n/a	n/a	pyFR	0	TJ013
250.9	2.504	175670	WORD	n/a	wordpools/wordpool_EN.txt	HOLE	11	1	n/a	n/a	pyFR	0	TJ013
253.404	2.505	176671	WORD	n/a	wordpools/wordpool_EN.txt	FLUTE	12	1	n/a	n/a	pyFR	0	TJ013
255.909	2.589	177673	WORD	n/a	wordpools/wordpool_EN.txt	DEER	13	1	n/a	n/a	pyFR	0	TJ013
258.498	2.654	178709	WORD	n/a	wordpools/wordpool_EN.txt	SWAMP	14	1	n/a	n/a	pyFR	0	TJ013
261.152	1.606	179770	WORD	n/a	wordpools/wordpool_EN.txt	WAND	15	1	n/a	n/a	pyFR	0	TJ013
262.758	0.916	180413	START	n/a	n/a	n/a	n/a	1	[-999 -999 -999]	-999	pyFR	0	TJ013
263.674	9.333	180779	PROB	n/a	n/a	n/a	n/a	1	[4 1 7]	12	pyFR	0	TJ013
273.007	3.106	184512	PROB	n/a	n/a	n/a	n/a	1	[1 8 3]	12	pyFR	0	TJ013
276.113	4.709	185755	PROB	n/a	n/a	n/a	n/a	1	[3 9 3]	15	pyFR	0	TJ013
280.822	3.752	187638	PROB	n/a	n/a	n/a	n/a	1	[8 7 2]	16	pyFR	0	TJ013
284.574	1.48	189139	STOP	n/a	n/a	n/a	n/a	1	[-999 -999 -999]	-999	pyFR	0	TJ013
286.054	3.284	189731	REC_START	n/a	n/a	n/a	-999	-999	n/a	n/a	pyFR	0	TJ013
289.338	0.555	191044	REC_WORD	0.555	n/a	TEA	-999	1	n/a	n/a	pyFR	0	TJ013
289.893	0.587	191266	REC_WORD	0.587	n/a	WAND	-999	1	n/a	n/a	pyFR	0	TJ013
290.48	2.418	191501	REC_WORD	2.418	n/a	JAR	-999	1	n/a	n/a	pyFR	0	TJ013
292.898	3.251	192468	REC_WORD_VV	3.251	n/a	VV	-999	1	n/a	n/a	pyFR	0	TJ013
296.149	3.588	193769	REC_WORD	3.588	n/a	JUG	-999	1	n/a	n/a	pyFR	0	TJ013
299.737	6.471	195204	REC_WORD_VV	6.471	n/a	VV	-999	1	n/a	n/a	pyFR	0	TJ013
306.208	19.516	197792	REC_WORD	19.516	n/a	HOSE	-999	1	n/a	n/a	pyFR	0	TJ013
325.724	2.79	205598	REC_WORD_VV	2.79	n/a	VV	-999	1	n/a	n/a	pyFR	0	TJ013
328.514	28.349	206714	REC_WORD_VV	28.349	n/a	VV	-999	1	n/a	n/a	pyFR	0	TJ013
356.863	0.015	218053	TRIAL	n/a	n/a	n/a	-999	-999	n/a	n/a	pyFR	0	TJ013
356.878	2.723	218059	ORIENT	n/a	n/a	n/a	-999	-999	n/a	n/a	pyFR	0	TJ013
359.601	2.72	219149	WORD	n/a	wordpools/wordpool_EN.txt	BOMB	1	2	n/a	n/a	pyFR	0	TJ013
362.321	2.705	220237	WORD	n/a	wordpools/wordpool_EN.txt	TOOL	2	2	n/a	n/a	pyFR	0	TJ013
365.026	2.673	221319	WORD	n/a	wordpools/wordpool_EN.txt	TREE	3	2	n/a	n/a	pyFR	0	TJ013
367.699	2.687	222388	WORD	n/a	wordpools/wordpool_EN.txt	BENCH	4	2	n/a	n/a	pyFR	0	TJ013
370.386	2.672	223462	WORD	n/a	wordpools/wordpool_EN.txt	LOCK	5	2	n/a	n/a	pyFR	0	TJ013
373.058	2.572	224531	WORD	n/a	wordpools/wordpool_EN.txt	DRUM	6	2	n/a	n/a	pyFR	0	TJ013
375.63	2.587	225560	WORD	n/a	wordpools/wordpool_EN.txt	DAD	7	2	n/a	n/a	pyFR	0	TJ013
378.217	2.572	226595	WORD	n/a	wordpools/wordpool_EN.txt	ARM	8	2	n/a	n/a	pyFR	0	TJ013
380.789	2.487	227624	WORD	n/a	wordpools/wordpool_EN.txt	FOX	9	2	n/a	n/a	pyFR	0	TJ013
383.276	2.622	228618	WORD	n/a	wordpools/wordpool_EN.txt	DRESS	10	2	n/a	n/a	pyFR	0	TJ013
385.898	2.706	229667	WORD	n/a	wordpools/wordpool_EN.txt	BEACH	11	2	n/a	n/a	pyFR	0	TJ013
388.604	2.57	230749	WORD	n/a	wordpools/wordpool_EN.txt	PIPE	12	2	n/a	n/a	pyFR	0	TJ013
391.174	2.689	231777	WORD	n/a	wordpools/wordpool_EN.txt	SWORD	13	2	n/a	n/a	pyFR	0	TJ013
393.863	2.605	232853	WORD	n/a	wordpools/wordpool_EN.txt	WHEEL	14	2	n/a	n/a	pyFR	0	TJ013
396.468	1.621	233895	WORD	n/a	wordpools/wordpool_EN.txt	BAND	15	2	n/a	n/a	pyFR	0	TJ013
398.089	0.816	234543	START	n/a	n/a	n/a	n/a	2	[-999 -999 -999]	-999	pyFR	0	TJ013
398.905	6.964	234870	PROB	n/a	n/a	n/a	n/a	2	[6 7 5]	16	pyFR	0	TJ013
405.869	3.857	237655	PROB	n/a	n/a	n/a	n/a	2	[7 8 2]	17	pyFR	0	TJ013
409.726	4.34	239198	PROB	n/a	n/a	n/a	n/a	2	[2 1 3]	6	pyFR	0	TJ013
414.066	3.574	240934	PROB	n/a	n/a	n/a	n/a	2	[1 7 4]	12	pyFR	0	TJ013
417.64	5.406	242363	PROB	n/a	n/a	n/a	n/a	2	[5 2 6]	13	pyFR	0	TJ013
423.046	1.173	244526	STOP	n/a	n/a	n/a	n/a	2	[-999 -999 -999]	-999	pyFR	0	TJ013
424.219	7.987	244995	REC_START	n/a	n/a	n/a	-999	-999	n/a	n/a	pyFR	0	TJ013
432.206	0.808	248190	REC_WORD	0.808	n/a	BOMB	-999	2	n/a	n/a	pyFR	0	TJ013
433.014	0.761	248513	REC_WORD	0.761	n/a	FOX	-999	2	n/a	n/a	pyFR	0	TJ013
433.775	2.396	248817	REC_WORD	2.396	n/a	PIPE	-999	2	n/a	n/a	pyFR	0	TJ013
436.171	3.775	249776	REC_WORD_VV	3.775	n/a	VV	-999	2	n/a	n/a	pyFR	0	TJ013
439.946	1.21	251285	REC_WORD	1.21	n/a	TOOL	-999	2	n/a	n/a	pyFR	0	TJ013
441.156	9.638	251769	REC_WORD_VV	9.638	n/a	VV	-999	2	n/a	n/a	pyFR	0	TJ013
450.794	2.249	255625	REC_WORD	2.249	n/a	BENCH	-999	2	n/a	n/a	pyFR	0	TJ013
453.043	7.334	256524	REC_WORD	7.334	n/a	TREE	-999	2	n/a	n/a	pyFR	0	TJ013
460.377	6.485	259458	REC_WORD_VV	6.485	n/a	VV	-999	2	n/a	n/a	pyFR	0	TJ013
466.862	6.799	262051	REC_WORD_VV	6.799	n/a	VV	-999	2	n/a	n/a	pyFR	0	TJ013
473.661	0.016	264771	TRIAL	n/a	n/a	n/a	-999	-999	n/a	n/a	pyFR	0	TJ013
473.677	2.771	264777	ORIENT	n/a	n/a	n/a	-999	-999	n/a	n/a	pyFR	0	TJ013
476.448	2.471	265886	WORD	n/a	wordpools/wordpool_EN.txt	ROPE	1	3	n/a	n/a	pyFR	0	TJ013
478.919	2.438	266874	WORD	n/a	wordpools/wordpool_EN.txt	CART	2	3	n/a	n/a	pyFR	0	TJ013
481.357	2.654	267849	WORD	n/a	wordpools/wordpool_EN.txt	PRINCE	3	3	n/a	n/a	pyFR	0	TJ013
484.011	2.64	268911	WORD	n/a	wordpools/wordpool_EN.txt	VEST	4	3	n/a	n/a	pyFR	0	TJ013
486.651	2.77	269967	WORD	n/a	wordpools/wordpool_EN.txt	FORT	5	3	n/a	n/a	pyFR	0	TJ013
489.421	2.572	271075	WORD	n/a	wordpools/wordpool_EN.txt	TEETH	6	3	n/a	n/a	pyFR	0	TJ013
491.993	2.421	272104	WORD	n/a	wordpools/wordpool_EN.txt	BAG	7	3	n/a	n/a	pyFR	0	TJ013
494.414	2.788	273072	WORD	n/a	wordpools/wordpool_EN.txt	TOOTH	8	3	n/a	n/a	pyFR	0	TJ013
497.202	2.806	274187	WORD	n/a	wordpools/wordpool_EN.txt	COW	9	3	n/a	n/a	pyFR	0	TJ013
500.008	2.555	275309	WORD	n/a	wordpools/wordpool_EN.txt	BRICK	10	3	n/a	n/a	pyFR	0	TJ013
502.563	2.804	276331	WORD	n/a	wordpools/wordpool_EN.txt	PEARL	11	3	n/a	n/a	pyFR	0	TJ013
505.367	2.722	277453	WORD	n/a	wordpools/wordpool_EN.txt	FILM	12	3	n/a	n/a	pyFR	0	TJ013
508.089	2.456	278542	WORD	n/a	wordpools/wordpool_EN.txt	PIT	13	3	n/a	n/a	pyFR	0	TJ013
510.545	2.72	279524	WORD	n/a	wordpools/wordpool_EN.txt	FOG	14	3	n/a	n/a	pyFR	0	TJ013
513.265	1.606	280612	WORD	n/a	wordpools/wordpool_EN.txt	BOX	15	3	n/a	n/a	pyFR	0	TJ013
514.871	1.099	281254	START	n/a	n/a	n/a	n/a	3	[-999 -999 -999]	-999	pyFR	0	TJ013
515.97	5.009	281694	PROB	n/a	n/a	n/a	n/a	3	[2 2 7]	11	pyFR	0	TJ013
520.979	4.108	283697	PROB	n/a	n/a	n/a	n/a	3	[8 4 2]	14	pyFR	0	TJ013
525.087	4.358	285341	PROB	n/a	n/a	n/a	n/a	3	[3 4 3]	10	pyFR	0	TJ013
529.445	3.824	287084	PROB	n/a	n/a	n/a	n/a	3	[3 2 7]	12	pyFR	0	TJ013
533.269	4.29	288613	PROB	n/a	n/a	n/a	n/a	3	[9 1 9]	19	pyFR	0	TJ013
537.559	1.238	290329	STOP	n/a	n/a	n/a	n/a	3	[-999 -999 -999]	-999	pyFR	0	TJ013
538.797	1.805	290824	REC_START	n/a	n/a	n/a	-999	-999	n/a	n/a	pyFR	0	TJ013
540.602	10.391	291546	REC_WORD_VV	10.391	n/a	VV	-999	3	n/a	n/a	pyFR	0	TJ013
550.993	0.498	295703	REC_WORD	0.498	n/a	ROPE	-999	3	n/a	n/a	pyFR	0	TJ013
551.491	2.424	295902	REC_WORD	2.424	n/a	VEST	-999	3	n/a	n/a	pyFR	0	TJ013
553.915	4.831	296871	REC_WORD_VV	4.831	n/a	VV	-999	3	n/a	n/a	pyFR	0	TJ013
558.746	9.426	298804	REC_WORD_VV	9.426	n/a	VV	-999	3	n/a	n/a	pyFR	0	TJ013
568.172	1.0	302574	REC_WORD_VV	1.0	n/a	VV	-999	3	n/a	n/a	pyFR	0	TJ013
569.172	3.211	302974	REC_WORD_VV	3.211	n/a	VV	-999	3	n/a	n/a	pyFR	0	TJ013
572.383	9.949	304258	REC_WORD_VV	9.949	n/a	VV	-999	3	n/a	n/a	pyFR	0	TJ013
582.332	1.0	308238	REC_WORD_VV	1.0	n/a	VV	-999	3	n/a	n/a	pyFR	0	TJ013
583.332	49.455	308638	REC_WORD_VV	49.455	n/a	VV	-999	3	n/a	n/a	pyFR	0	TJ013
632.787	0.015	328419	TRIAL	n/a	n/a	n/a	-999	-999	n/a	n/a	pyFR	0	TJ013
632.802	2.906	328425	ORIENT	n/a	n/a	n/a	-999	-999	n/a	n/a	pyFR	0	TJ013
635.708	2.437	329587	WORD	n/a	wordpools/wordpool_EN.txt	CAT	1	4	n/a	n/a	pyFR	0	TJ013
638.145	2.472	330562	WORD	n/a	wordpools/wordpool_EN.txt	SHOE	2	4	n/a	n/a	pyFR	0	TJ013
640.617	2.47	331551	WORD	n/a	wordpools/wordpool_EN.txt	CAVE	3	4	n/a	n/a	pyFR	0	TJ013
643.087	2.489	332539	WORD	n/a	wordpools/wordpool_EN.txt	HORSE	4	4	n/a	n/a	pyFR	0	TJ013
645.576	2.637	333534	WORD	n/a	wordpools/wordpool_EN.txt	CLOCK	5	4	n/a	n/a	pyFR	0	TJ013
648.213	2.556	334589	WORD	n/a	wordpools/wordpool_EN.txt	FOOD	6	4	n/a	n/a	pyFR	0	TJ013
650.769	2.604	335612	WORD	n/a	wordpools/wordpool_EN.txt	CANE	7	4	n/a	n/a	pyFR	0	TJ013
653.373	2.755	336653	WORD	n/a	wordpools/wordpool_EN.txt	PEA	8	4	n/a	n/a	pyFR	0	TJ013
656.128	2.706	337755	WORD	n/a	wordpools/wordpool_EN.txt	VINE	9	4	n/a	n/a	pyFR	0	TJ013
658.834	2.771	338837	WORD	n/a	wordpools/wordpool_EN.txt	MAP	10	4	n/a	n/a	pyFR	0	TJ013
661.605	2.571	339946	WORD	n/a	wordpools/wordpool_EN.txt	KING	11	4	n/a	n/a	pyFR	0	TJ013
664.176	2.489	340974	WORD	n/a	wordpools/wordpool_EN.txt	FOOT	12	4	n/a	n/a	pyFR	0	TJ013
666.665	2.704	341970	WORD	n/a	wordpools/wordpool_EN.txt	KEY	13	4	n/a	n/a	pyFR	0	TJ013
669.369	2.654	343051	WORD	n/a	wordpools/wordpool_EN.txt	CAR	14	4	n/a	n/a	pyFR	0	TJ013
672.023	1.606	344113	WORD	n/a	wordpools/wordpool_EN.txt	JET	15	4	n/a	n/a	pyFR	0	TJ013
673.629	1.101	344755	START	n/a	n/a	n/a	n/a	4	[-999 -999 -999]	-999	pyFR	0	TJ013
674.73	5.726	345196	PROB	n/a	n/a	n/a	n/a	4	[7 5 4]	16	pyFR	0	TJ013
680.456	3.556	347486	PROB	n/a	n/a	n/a	n/a	4	[5 1 4]	13	pyFR	0	TJ013
684.012	4.291	348908	PROB	n/a	n/a	n/a	n/a	4	[4 9 7]	20	pyFR	0	TJ013
688.303	4.642	350625	PROB	n/a	n/a	n/a	n/a	4	[4 9 8]	11	pyFR	0	TJ013
692.945	6.765	352481	PROB	n/a	n/a	n/a	n/a	4	[7 2 7]	16	pyFR	0	TJ013
699.71	1.251	355187	STOP	n/a	n/a	n/a	n/a	4	[-999 -999 -999]	-999	pyFR	0	TJ013
700.961	4.641	355688	REC_START	n/a	n/a	n/a	-999	-999	n/a	n/a	pyFR	0	TJ013
705.602	0.456	357544	REC_WORD	0.456	n/a	CAT	-999	4	n/a	n/a	pyFR	0	TJ013
706.058	0.701	357726	REC_WORD	0.701	n/a	FOOD	-999	4	n/a	n/a	pyFR	0	TJ013
706.759	0.435	358007	REC_WORD	0.435	n/a	PET	-999	4	n/a	n/a	pyFR	0	TJ013
707.194	1.93	358181	REC_WORD	1.93	n/a	CAVE	-999	4	n/a	n/a	pyFR	0	TJ013
709.124	10.216	358953	REC_WORD_VV	10.216	n/a	VV	-999	4	n/a	n/a	pyFR	0	TJ013
719.34	0.471	363039	REC_WORD	0.471	n/a	PET	-999	4	n/a	n/a	pyFR	0	TJ013
719.811	2.85	363227	REC_WORD	2.85	n/a	CAVE	-999	4	n/a	n/a	pyFR	0	TJ013
722.661	3.044	364367	REC_WORD	3.044	n/a	PIPE	-999	4	n/a	n/a	pyFR	0	TJ013
725.705	16.539	365585	REC_WORD_VV	16.539	n/a	VV	-999	4	n/a	n/a	pyFR	0	TJ013
742.244	15.289	372200	REC_WORD	15.289	n/a	WING	-999	4	n/a	n/a	pyFR	0	TJ013
757.533	0.015	378316	TRIAL	n/a	n/a	n/a	-999	-999	n/a	n/a	pyFR	0	TJ013
757.548	2.704	378322	ORIENT	n/a	n/a	n/a	-999	-999	n/a	n/a	pyFR	0	TJ013
760.252	2.622	379403	WORD	n/a	wordpools/wordpool_EN.txt	KITE	1	5	n/a	n/a	pyFR	0	TJ013
762.874	2.806	380452	WORD	n/a	wordpools/wordpool_EN.txt	PIG	2	5	n/a	n/a	pyFR	0	TJ013
765.68	2.57	381574	WORD	n/a	wordpools/wordpool_EN.txt	CORN	3	5	n/a	n/a	pyFR	0	TJ013
768.25	2.672	382602	WORD	n/a	wordpools/wordpool_EN.txt	PLANT	4	5	n/a	n/a	pyFR	0	TJ013
770.922	2.488	383671	WORD	n/a	wordpools/wordpool_EN.txt	POLE	5	5	n/a	n/a	pyFR	0	TJ013
773.41	2.605	384666	WORD	n/a	wordpools/wordpool_EN.txt	FLAME	6	5	n/a	n/a	pyFR	0	TJ013
776.015	2.672	385708	WORD	n/a	wordpools/wordpool_EN.txt	FLAG	7	5	n/a	n/a	pyFR	0	TJ013
778.687	2.621	386777	WORD	n/a	wordpools/wordpool_EN.txt	PURSE	8	5	n/a	n/a	pyFR	0	TJ013
781.308	2.821	387825	WORD	n/a	wordpools/wordpool_EN.txt	ROAD	9	5	n/a	n/a	pyFR	0	TJ013
784.129	2.64	388954	WORD	n/a	wordpools/wordpool_EN.txt	FOAM	10	5	n/a	n/a	pyFR	0	TJ013
786.769	2.537	390010	WORD	n/a	wordpools/wordpool_EN.txt	PANTS	11	5	n/a	n/a	pyFR	0	TJ013
789.306	2.655	391024	WORD	n/a	wordpools/wordpool_EN.txt	HAWK	12	5	n/a	n/a	pyFR	0	TJ013
791.961	2.806	392086	WORD	n/a	wordpools/wordpool_EN.txt	LAWN	13	5	n/a	n/a	pyFR	0	TJ013
794.767	2.553	393209	WORD	n/a	wordpools/wordpool_EN.txt	ROOM	14	5	n/a	n/a	pyFR	0	TJ013
797.32	1.605	394230	WORD	n/a	wordpools/wordpool_EN.txt	FISH	15	5	n/a	n/a	pyFR	0	TJ013
798.925	0.95	394872	START	n/a	n/a	n/a	n/a	5	[-999 -999 -999]	-999	pyFR	0	TJ013
799.875	7.749	395252	PROB	n/a	n/a	n/a	n/a	5	[1 9 5]	15	pyFR	0	TJ013
807.624	4.191	398351	PROB	n/a	n/a	n/a	n/a	5	[8 9 6]	23	pyFR	0	TJ013
811.815	4.692	400028	PROB	n/a	n/a	n/a	n/a	5	[7 9 8]	24	pyFR	0	TJ013
816.507	5.61	401904	PROB	n/a	n/a	n/a	n/a	5	[2 9 7]	18	pyFR	0	TJ013
822.117	1.135	404148	STOP	n/a	n/a	n/a	n/a	5	[-999 -999 -999]	-999	pyFR	0	TJ013
823.252	9.956	404602	REC_START	n/a	n/a	n/a	-999	-999	n/a	n/a	pyFR	0	TJ013
833.208	0.433	408585	REC_WORD	0.433	n/a	CAT	-999	5	n/a	n/a	pyFR	0	TJ013
833.641	0.382	408758	REC_WORD	0.382	n/a	PLANT	-999	5	n/a	n/a	pyFR	0	TJ013
834.023	0.462	408911	REC_WORD_VV	0.462	n/a	VV	-999	5	n/a	n/a	pyFR	0	TJ013
834.485	2.229	409095	REC_WORD	2.229	n/a	POLE	-999	5	n/a	n/a	pyFR	0	TJ013
836.714	2.893	409987	REC_WORD	2.893	n/a	KITE	-999	5	n/a	n/a	pyFR	0	TJ013
839.607	13.889	411144	REC_WORD_VV	13.889	n/a	VV	-999	5	n/a	n/a	pyFR	0	TJ013
853.496	2.923	416699	REC_WORD	2.923	n/a	KITE	-999	5	n/a	n/a	pyFR	0	TJ013
856.419	16.259	417869	REC_WORD_VV	16.259	n/a	VV	-999	5	n/a	n/a	pyFR	0	TJ013
872.678	0.015	424372	TRIAL	n/a	n/a	n/a	-999	-999	n/a	n/a	pyFR	0	TJ013
872.693	2.754	424378	ORIENT	n/a	n/a	n/a	-999	-999	n/a	n/a	pyFR	0	TJ013
875.447	2.555	425480	WORD	n/a	wordpools/wordpool_EN.txt	CHIN	1	6	n/a	n/a	pyFR	0	TJ013
878.002	2.539	426502	WORD	n/a	wordpools/wordpool_EN.txt	SLUSH	2	6	n/a	n/a	pyFR	0	TJ013
880.541	2.437	427517	WORD	n/a	wordpools/wordpool_EN.txt	HAT	3	6	n/a	n/a	pyFR	0	TJ013
882.978	2.589	428492	WORD	n/a	wordpools/wordpool_EN.txt	SALT	4	6	n/a	n/a	pyFR	0	TJ013
885.567	2.503	429527	WORD	n/a	wordpools/wordpool_EN.txt	BOARD	5	6	n/a	n/a	pyFR	0	TJ013
888.07	2.456	430529	WORD	n/a	wordpools/wordpool_EN.txt	CHAIR	6	6	n/a	n/a	pyFR	0	TJ013
890.526	2.47	431511	WORD	n/a	wordpools/wordpool_EN.txt	LAMP	7	6	n/a	n/a	pyFR	0	TJ013
892.996	2.472	432499	WORD	n/a	wordpools/wordpool_EN.txt	LEAF	8	6	n/a	n/a	pyFR	0	TJ013
895.468	2.571	433488	WORD	n/a	wordpools/wordpool_EN.txt	BED	9	6	n/a	n/a	pyFR	0	TJ013
898.039	2.672	434516	WORD	n/a	wordpools/wordpool_EN.txt	NOSE	10	6	n/a	n/a	pyFR	0	TJ013
900.711	2.654	435585	WORD	n/a	wordpools/wordpool_EN.txt	CLAY	11	6	n/a	n/a	pyFR	0	TJ013
903.365	2.772	436646	WORD	n/a	wordpools/wordpool_EN.txt	FORK	12	6	n/a	n/a	pyFR	0	TJ013
906.137	2.738	437755	WORD	n/a	wordpools/wordpool_EN.txt	GEESE	13	6	n/a	n/a	pyFR	0	TJ013
908.875	2.589	438850	WORD	n/a	wordpools/wordpool_EN.txt	SEED	14	6	n/a	n/a	pyFR	0	TJ013
911.464	1.621	439886	WORD	n/a	wordpools/wordpool_EN.txt	DIME	15	6	n/a	n/a	pyFR	0	TJ013
913.085	0.883	440534	START	n/a	n/a	n/a	n/a	6	[-999 -999 -999]	-999	pyFR	0	TJ013
913.968	12.641	440887	PROB	n/a	n/a	n/a	n/a	6	[2 7 2]	11	pyFR	0	TJ013
926.609	5.342	445944	PROB	n/a	n/a	n/a	n/a	6	[7 9 8]	24	pyFR	0	TJ013
931.951	13.871	448080	PROB	n/a	n/a	n/a	n/a	6	[4 9 4]	17	pyFR	0	TJ013
945.822	1.141	453629	STOP	n/a	n/a	n/a	n/a	6	[-999 -999 -999]	-999	pyFR	0	TJ013
946.963	0.619	454085	REC_START	n/a	n/a	n/a	-999	-999	n/a	n/a	pyFR	0	TJ013
947.582	0.513	454333	REC_WORD	0.513	n/a	CHIN	-999	6	n/a	n/a	pyFR	0	TJ013
948.095	0.572	454538	REC_WORD	0.572	n/a	NOSE	-999	6	n/a	n/a	pyFR	0	TJ013
948.667	1.994	454766	REC_WORD	1.994	n/a	FORK	-999	6	n/a	n/a	pyFR	0	TJ013
950.661	5.513	455564	REC_WORD_VV	5.513	n/a	VV	-999	6	n/a	n/a	pyFR	0	TJ013
956.174	3.369	457769	REC_WORD	3.369	n/a	PLANT	-999	6	n/a	n/a	pyFR	0	TJ013
959.543	3.372	459117	REC_WORD_VV	3.372	n/a	VV	-999	6	n/a	n/a	pyFR	0	TJ013
962.915	17.13	460465	REC_WORD	17.13	n/a	FINGER	-999	6	n/a	n/a	pyFR	0	TJ013
980.045	3.483	467317	REC_WORD_VV	3.483	n/a	VV	-999	6	n/a	n/a	pyFR	0	TJ013
983.528	1.475	468710	REC_WORD_VV	1.475	n/a	VV	-999	6	n/a	n/a	pyFR	0	TJ013
985.003	0.924	469300	REC_WORD_VV	0.924	n/a	VV	-999	6	n/a	n/a	pyFR	0	TJ013
985.927	1.0	469670	REC_WORD_VV	1.0	n/a	VV	-999	6	n/a	n/a	pyFR	0	TJ013
986.927	1.0	470070	REC_WORD_VV	1.0	n/a	VV	-999	6	n/a	n/a	pyFR	0	TJ013
987.927	0.807	470470	REC_WORD_VV	0.807	n/a	VV	-999	6	n/a	n/a	pyFR	0	TJ013
988.734	1.0	470793	REC_WORD_VV	1.0	n/a	VV	-999	6	n/a	n/a	pyFR	0	TJ013
989.734	32.367	471193	REC_WORD_VV	32.367	n/a	VV	-999	6	n/a	n/a	pyFR	0	TJ013
1022.101	0.016	484139	TRIAL	n/a	n/a	n/a	-999	-999	n/a	n/a	pyFR	0	TJ013
1022.117	2.639	484145	ORIENT	n/a	n/a	n/a	-999	-999	n/a	n/a	pyFR	0	TJ013
1024.756	2.705	485201	WORD	n/a	wordpools/wordpool_EN.txt	LEG	1	7	n/a	n/a	pyFR	0	TJ013
1027.461	2.804	486283	WORD	n/a	wordpools/wordpool_EN.txt	SOUP	2	7	n/a	n/a	pyFR	0	TJ013
1030.265	2.738	487405	WORD	n/a	wordpools/wordpool_EN.txt	GOAT	3	7	n/a	n/a	pyFR	0	TJ013
1033.003	2.656	488500	WORD	n/a	wordpools/wordpool_EN.txt	ELF	4	7	n/a	n/a	pyFR	0	TJ013
1035.659	2.554	489562	WORD	n/a	wordpools/wordpool_EN.txt	STICK	5	7	n/a	n/a	pyFR	0	TJ013
1038.213	2.506	490584	WORD	n/a	wordpools/wordpool_EN.txt	STOVE	6	7	n/a	n/a	pyFR	0	TJ013
1040.719	2.537	491586	WORD	n/a	wordpools/wordpool_EN.txt	BRUSH	7	7	n/a	n/a	pyFR	0	TJ013
1043.256	2.621	492601	WORD	n/a	wordpools/wordpool_EN.txt	SNAKE	8	7	n/a	n/a	pyFR	0	TJ013
1045.877	2.789	493649	WORD	n/a	wordpools/wordpool_EN.txt	WOOD	9	7	n/a	n/a	pyFR	0	TJ013
1048.666	2.437	494765	WORD	n/a	wordpools/wordpool_EN.txt	TRAIN	10	7	n/a	n/a	pyFR	0	TJ013
1051.103	2.723	495739	WORD	n/a	wordpools/wordpool_EN.txt	CLOTH	11	7	n/a	n/a	pyFR	0	TJ013
1053.826	2.688	496829	WORD	n/a	wordpools/wordpool_EN.txt	BAT	12	7	n/a	n/a	pyFR	0	TJ013
1056.514	2.47	497904	WORD	n/a	wordpools/wordpool_EN.txt	TIE	13	7	n/a	n/a	pyFR	0	TJ013
1058.984	2.807	498892	WORD	n/a	wordpools/wordpool_EN.txt	INK	14	7	n/a	n/a	pyFR	0	TJ013
1061.791	1.62	500014	WORD	n/a	wordpools/wordpool_EN.txt	HOSE	15	7	n/a	n/a	pyFR	0	TJ013
1063.411	1.168	500662	START	n/a	n/a	n/a	n/a	7	[-999 -999 -999]	-999	pyFR	0	TJ013
1064.579	6.145	501130	PROB	n/a	n/a	n/a	n/a	7	[4 9 7]	20	pyFR	0	TJ013
1070.724	3.94	503588	PROB	n/a	n/a	n/a	n/a	7	[7 8 2]	17	pyFR	0	TJ013
1074.664	4.291	505163	PROB	n/a	n/a	n/a	n/a	7	[3 4 1]	8	pyFR	0	TJ013
1078.955	6.45	506880	PROB	n/a	n/a	n/a	n/a	7	[2 5 9]	16	pyFR	0	TJ013
1085.405	1.199	509460	STOP	n/a	n/a	n/a	n/a	7	[-999 -999 -999]	-999	pyFR	0	TJ013
1086.604	4.661	509939	REC_START	n/a	n/a	n/a	-999	-999	n/a	n/a	pyFR	0	TJ013
1091.265	0.474	511804	REC_WORD	0.474	n/a	HOSE	-999	7	n/a	n/a	pyFR	0	TJ013
1091.739	2.238	511993	REC_WORD	2.238	n/a	ELF	-999	7	n/a	n/a	pyFR	0	TJ013
1093.977	4.274	512888	REC_WORD	4.274	n/a	LEG	-999	7	n/a	n/a	pyFR	0	TJ013
1098.251	1.944	514598	REC_WORD_VV	1.944	n/a	VV	-999	7	n/a	n/a	pyFR	0	TJ013
1100.195	0.413	515376	REC_WORD	0.413	n/a	HOSE	-999	7	n/a	n/a	pyFR	0	TJ013
1100.608	0.485	515541	REC_WORD	0.485	n/a	ELF	-999	7	n/a	n/a	pyFR	0	TJ013
1101.093	2.136	515735	REC_WORD	2.136	n/a	LEG	-999	7	n/a	n/a	pyFR	0	TJ013
1103.229	0.185	516589	REC_WORD_VV	0.185	n/a	VV	-999	7	n/a	n/a	pyFR	0	TJ013
1103.414	13.459	516663	REC_WORD	13.459	n/a	PLANT	-999	7	n/a	n/a	pyFR	0	TJ013
1116.873	18.838	522046	REC_WORD_VV	18.838	n/a	VV	-999	7	n/a	n/a	pyFR	0	TJ013
1135.711	0.016	529581	TRIAL	n/a	n/a	n/a	-999	-999	n/a	n/a	pyFR	0	TJ013
1135.727	2.905	529588	ORIENT	n/a	n/a	n/a	-999	-999	n/a	n/a	pyFR	0	TJ013
1138.632	2.754	530750	WORD	n/a	wordpools/wordpool_EN.txt	BOOK	1	8	n/a	n/a	pyFR	0	TJ013
1141.386	2.755	531851	WORD	n/a	wordpools/wordpool_EN.txt	SUN	2	8	n/a	n/a	pyFR	0	TJ013
1144.141	2.456	532953	WORD	n/a	wordpools/wordpool_EN.txt	CUP	3	8	n/a	n/a	pyFR	0	TJ013
1146.597	2.47	533936	WORD	n/a	wordpools/wordpool_EN.txt	TRUCK	4	8	n/a	n/a	pyFR	0	TJ013
1149.067	2.422	534924	WORD	n/a	wordpools/wordpool_EN.txt	STEAM	5	8	n/a	n/a	pyFR	0	TJ013
1151.489	2.57	535892	WORD	n/a	wordpools/wordpool_EN.txt	STAIR	6	8	n/a	n/a	pyFR	0	TJ013
1154.059	2.673	536920	WORD	n/a	wordpools/wordpool_EN.txt	PEAR	7	8	n/a	n/a	pyFR	0	TJ013
1156.732	2.771	537989	WORD	n/a	wordpools/wordpool_EN.txt	SHIELD	8	8	n/a	n/a	pyFR	0	TJ013
1159.503	2.654	539098	WORD	n/a	wordpools/wordpool_EN.txt	FAN	9	8	n/a	n/a	pyFR	0	TJ013
1162.157	2.623	540159	WORD	n/a	wordpools/wordpool_EN.txt	ROOT	10	8	n/a	n/a	pyFR	0	TJ013
1164.78	2.805	541209	WORD	n/a	wordpools/wordpool_EN.txt	DOOR	11	8	n/a	n/a	pyFR	0	TJ013
1167.585	2.554	542331	WORD	n/a	wordpools/wordpool_EN.txt	VAN	12	8	n/a	n/a	pyFR	0	TJ013
1170.139	2.805	543352	WORD	n/a	wordpools/wordpool_EN.txt	FARM	13	8	n/a	n/a	pyFR	0	TJ013
1172.944	2.522	544474	WORD	n/a	wordpools/wordpool_EN.txt	EEL	14	8	n/a	n/a	pyFR	0	TJ013
1175.466	1.62	545483	WORD	n/a	wordpools/wordpool_EN.txt	NAIL	15	8	n/a	n/a	pyFR	0	TJ013
1177.086	1.151	546131	START	n/a	n/a	n/a	n/a	8	[-999 -999 -999]	-999	pyFR	0	TJ013
1178.237	6.98	546591	PROB	n/a	n/a	n/a	n/a	8	[4 7 7]	18	pyFR	0	TJ013
1185.217	4.107	549383	PROB	n/a	n/a	n/a	n/a	8	[6 4 6]	16	pyFR	0	TJ013
1189.324	7.781	551026	PROB	n/a	n/a	n/a	n/a	8	[7 5 9]	21	pyFR	0	TJ013
1197.105	3.844	554138	PROB	n/a	n/a	n/a	n/a	8	[1 8 1]	10	pyFR	0	TJ013
1200.949	1.099	555676	STOP	n/a	n/a	n/a	n/a	8	[-999 -999 -999]	-999	pyFR	0	TJ013
1202.048	1.859	556115	REC_START	n/a	n/a	n/a	-999	-999	n/a	n/a	pyFR	0	TJ013
1203.907	1.0	556859	REC_WORD_VV	1.0	n/a	VV	-999	8	n/a	n/a	pyFR	0	TJ013
1204.907	1.495	557259	REC_WORD_VV	1.495	n/a	VV	-999	8	n/a	n/a	pyFR	0	TJ013
1206.402	0.351	557857	REC_WORD	0.351	n/a	BOOK	-999	8	n/a	n/a	pyFR	0	TJ013
1206.753	0.315	557997	REC_WORD	0.315	n/a	DUMP	-999	8	n/a	n/a	pyFR	0	TJ013
1207.068	1.979	558123	REC_WORD	1.979	n/a	TRUCK	-999	8	n/a	n/a	pyFR	0	TJ013
1209.047	3.935	558915	REC_WORD_VV	3.935	n/a	VV	-999	8	n/a	n/a	pyFR	0	TJ013
1212.982	2.985	560489	REC_WORD	2.985	n/a	DAD	-999	8	n/a	n/a	pyFR	0	TJ013
1215.967	4.743	561683	REC_WORD_VV	4.743	n/a	VV	-999	8	n/a	n/a	pyFR	0	TJ013
1220.71	6.15	563580	REC_WORD_VV	6.15	n/a	VV	-999	8	n/a	n/a	pyFR	0	TJ013
1226.86	58.726	566040	REC_WORD	58.726	n/a	EEL	-999	8	n/a	n/a	pyFR	0	TJ013
1285.586	0.016	589529	TRIAL	n/a	n/a	n/a	-999	-999	n/a	n/a	pyFR	0	TJ013
1285.602	2.854	589536	ORIENT	n/a	n/a	n/a	-999	-999	n/a	n/a	pyFR	0	TJ013
1288.456	2.505	590677	WORD	n/a	wordpools/wordpool_EN.txt	BOOT	1	9	n/a	n/a	pyFR	0	TJ013
1290.961	2.789	591679	WORD	n/a	wordpools/wordpool_EN.txt	BIRD	2	9	n/a	n/a	pyFR	0	TJ013
1293.75	2.704	592795	WORD	n/a	wordpools/wordpool_EN.txt	WEB	3	9	n/a	n/a	pyFR	0	TJ013
1296.454	2.789	593876	WORD	n/a	wordpools/wordpool_EN.txt	MAZE	4	9	n/a	n/a	pyFR	0	TJ013
1299.243	2.788	594992	WORD	n/a	wordpools/wordpool_EN.txt	BUSH	5	9	n/a	n/a	pyFR	0	TJ013
1302.031	2.539	596107	WORD	n/a	wordpools/wordpool_EN.txt	CALF	6	9	n/a	n/a	pyFR	0	TJ013
1304.57	2.504	597123	WORD	n/a	wordpools/wordpool_EN.txt	GIRL	7	9	n/a	n/a	pyFR	0	TJ013
1307.074	2.639	598124	WORD	n/a	wordpools/wordpool_EN.txt	TOAST	8	9	n/a	n/a	pyFR	0	TJ013
1309.713	2.437	599180	WORD	n/a	wordpools/wordpool_EN.txt	PLANE	9	9	n/a	n/a	pyFR	0	TJ013
1312.15	2.738	600154	WORD	n/a	wordpools/wordpool_EN.txt	RAT	10	9	n/a	n/a	pyFR	0	TJ013
1314.888	2.673	601250	WORD	n/a	wordpools/wordpool_EN.txt	RIB	11	9	n/a	n/a	pyFR	0	TJ013
1317.561	2.653	602319	WORD	n/a	wordpools/wordpool_EN.txt	ROCK	12	9	n/a	n/a	pyFR	0	TJ013
1320.214	2.64	603380	WORD	n/a	wordpools/wordpool_EN.txt	GUARD	13	9	n/a	n/a	pyFR	0	TJ013
1322.854	2.805	604436	WORD	n/a	wordpools/wordpool_EN.txt	BEAN	14	9	n/a	n/a	pyFR	0	TJ013
1325.659	1.62	605558	WORD	n/a	wordpools/wordpool_EN.txt	JUICE	15	9	n/a	n/a	pyFR	0	TJ013
1327.279	1.117	606206	START	n/a	n/a	n/a	n/a	9	[-999 -999 -999]	-999	pyFR	0	TJ013
1328.396	6.763	606653	PROB	n/a	n/a	n/a	n/a	9	[2 4 4]	10	pyFR	0	TJ013
1335.159	6.479	609358	PROB	n/a	n/a	n/a	n/a	9	[1 8 7]	16	pyFR	0	TJ013
1341.638	15.041	611949	PROB	n/a	n/a	n/a	n/a	9	[5 5 9]	19	pyFR	0	TJ013
1356.679	1.073	617965	STOP	n/a	n/a	n/a	n/a	9	[-999 -999 -999]	-999	pyFR	0	TJ013
1357.752	6.541	618395	REC_START	n/a	n/a	n/a	-999	-999	n/a	n/a	pyFR	0	TJ013
1364.293	0.373	621011	REC_WORD	0.373	n/a	BOOK	-999	9	n/a	n/a	pyFR	0	TJ013
1364.666	2.357	621160	REC_WORD	2.357	n/a	BIRD	-999	9	n/a	n/a	pyFR	0	TJ013
1367.023	12.52	622103	REC_WORD_VV	12.52	n/a	VV	-999	9	n/a	n/a	pyFR	0	TJ013
1379.543	0.487	627111	REC_WORD	0.487	n/a	BOOK	-999	9	n/a	n/a	pyFR	0	TJ013
1380.03	8.732	627305	REC_WORD	8.732	n/a	BIRD	-999	9	n/a	n/a	pyFR	0	TJ013
1388.762	20.869	630798	REC_WORD	20.869	n/a	COW	-999	9	n/a	n/a	pyFR	0	TJ013
1409.631	0.015	639145	TRIAL	n/a	n/a	n/a	-999	-999	n/a	n/a	pyFR	0	TJ013
1409.646	3.023	639151	ORIENT	n/a	n/a	n/a	-999	-999	n/a	n/a	pyFR	0	TJ013
1412.669	2.67	640361	WORD	n/a	wordpools/wordpool_EN.txt	BREAD	1	10	n/a	n/a	pyFR	0	TJ013
1415.339	2.422	641429	WORD	n/a	wordpools/wordpool_EN.txt	TRAY	2	10	n/a	n/a	pyFR	0	TJ013
1417.761	2.621	642397	WORD	n/a	wordpools/wordpool_EN.txt	STONE	3	10	n/a	n/a	pyFR	0	TJ013
1420.382	2.555	643446	WORD	n/a	wordpools/wordpool_EN.txt	SEAT	4	10	n/a	n/a	pyFR	0	TJ013
1422.937	2.706	644468	WORD	n/a	wordpools/wordpool_EN.txt	PARK	5	10	n/a	n/a	pyFR	0	TJ013
1425.643	2.804	645550	WORD	n/a	wordpools/wordpool_EN.txt	MAT	6	10	n/a	n/a	pyFR	0	TJ013
1428.447	2.688	646672	WORD	n/a	wordpools/wordpool_EN.txt	DUCK	7	10	n/a	n/a	pyFR	0	TJ013
1431.135	2.672	647747	WORD	n/a	wordpools/wordpool_EN.txt	DESK	8	10	n/a	n/a	pyFR	0	TJ013
1433.807	2.454	648815	WORD	n/a	wordpools/wordpool_EN.txt	STEM	9	10	n/a	n/a	pyFR	0	TJ013
1436.261	2.755	649797	WORD	n/a	wordpools/wordpool_EN.txt	FACE	10	10	n/a	n/a	pyFR	0	TJ013
1439.016	2.689	650899	WORD	n/a	wordpools/wordpool_EN.txt	HOOK	11	10	n/a	n/a	pyFR	0	TJ013
1441.705	2.738	651975	WORD	n/a	wordpools/wordpool_EN.txt	RICE	12	10	n/a	n/a	pyFR	0	TJ013
1444.443	2.571	653070	WORD	n/a	wordpools/wordpool_EN.txt	BANK	13	10	n/a	n/a	pyFR	0	TJ013
1447.014	2.79	654098	WORD	n/a	wordpools/wordpool_EN.txt	SHIP	14	10	n/a	n/a	pyFR	0	TJ013
1449.804	1.62	655214	WORD	n/a	wordpools/wordpool_EN.txt	PIN	15	10	n/a	n/a	pyFR	0	TJ013
1451.424	1.185	655862	START	n/a	n/a	n/a	n/a	10	[-999 -999 -999]	-999	pyFR	0	TJ013
1452.609	7.513	656336	PROB	n/a	n/a	n/a	n/a	10	[1 5 4]	10	pyFR	0	TJ013
1460.122	6.613	659341	PROB	n/a	n/a	n/a	n/a	10	[4 9 5]	18	pyFR	0	TJ013
1466.735	5.04	661986	PROB	n/a	n/a	n/a	n/a	10	[4 8 5]	17	pyFR	0	TJ013
1471.775	1.055	664002	STOP	n/a	n/a	n/a	n/a	10	[-999 -999 -999]	-999	pyFR	0	TJ013
1472.83	6.943	664424	REC_START	n/a	n/a	n/a	-999	-999	n/a	n/a	pyFR	0	TJ013
1479.773	0.341	667201	REC_WORD	0.341	n/a	BREAD	-999	10	n/a	n/a	pyFR	0	TJ013
1480.114	7.008	667338	REC_WORD	7.008	n/a	TRAY	-999	10	n/a	n/a	pyFR	0	TJ013
1487.122	2.565	670141	REC_WORD	2.565	n/a	BENCH	-999	10	n/a	n/a	pyFR	0	TJ013
1489.687	3.224	671167	REC_WORD	3.224	n/a	RICE	-999	10	n/a	n/a	pyFR	0	TJ013
1492.911	4.963	672456	REC_WORD_VV	4.963	n/a	VV	-999	10	n/a	n/a	pyFR	0	TJ013
1497.874	15.954	674441	REC_WORD	15.954	n/a	RICE	-999	10	n/a	n/a	pyFR	0	TJ013
1513.828	3.152	680823	REC_WORD	3.152	n/a	BIRD	-999	10	n/a	n/a	pyFR	0	TJ013
1516.98	4.422	682083	REC_WORD_VV	4.422	n/a	VV	-999	10	n/a	n/a	pyFR	0	TJ013
1521.402	0.016	683852	TRIAL	n/a	n/a	n/a	-999	-999	n/a	n/a	pyFR	0	TJ013
1521.418	2.855	683859	ORIENT	n/a	n/a	n/a	-999	-999	n/a	n/a	pyFR	0	TJ013
1524.273	2.671	685001	WORD	n/a	wordpools/wordpool_EN.txt	TENT	1	11	n/a	n/a	pyFR	0	TJ013
1526.944	2.421	686069	WORD	n/a	wordpools/wordpool_EN.txt	CONE	2	11	n/a	n/a	pyFR	0	TJ013
1529.365	2.456	687037	WORD	n/a	wordpools/wordpool_EN.txt	CORD	3	11	n/a	n/a	pyFR	0	TJ013
1531.821	2.52	688020	WORD	n/a	wordpools/wordpool_EN.txt	STOOL	4	11	n/a	n/a	pyFR	0	TJ013
1534.341	2.472	689028	WORD	n/a	wordpools/wordpool_EN.txt	SUIT	5	11	n/a	n/a	pyFR	0	TJ013
1536.813	2.772	690016	WORD	n/a	wordpools/wordpool_EN.txt	BADGE	6	11	n/a	n/a	pyFR	0	TJ013
1539.585	2.687	691125	WORD	n/a	wordpools/wordpool_EN.txt	FROG	7	11	n/a	n/a	pyFR	0	TJ013
1542.272	2.789	692200	WORD	n/a	wordpools/wordpool_EN.txt	WORLD	8	11	n/a	n/a	pyFR	0	TJ013
1545.061	2.539	693315	WORD	n/a	wordpools/wordpool_EN.txt	POOL	9	11	n/a	n/a	pyFR	0	TJ013
1547.6	2.804	694331	WORD	n/a	wordpools/wordpool_EN.txt	THUMB	10	11	n/a	n/a	pyFR	0	TJ013
1550.404	2.622	695453	WORD	n/a	wordpools/wordpool_EN.txt	LAMB	11	11	n/a	n/a	pyFR	0	TJ013
1553.026	2.722	696501	WORD	n/a	wordpools/wordpool_EN.txt	MOUTH	12	11	n/a	n/a	pyFR	0	TJ013
1555.748	2.504	697590	WORD	n/a	wordpools/wordpool_EN.txt	CARD	13	11	n/a	n/a	pyFR	0	TJ013
1558.252	2.556	698592	WORD	n/a	wordpools/wordpool_EN.txt	FENCE	14	11	n/a	n/a	pyFR	0	TJ013
1560.808	1.62	699614	WORD	n/a	wordpools/wordpool_EN.txt	PIE	15	11	n/a	n/a	pyFR	0	TJ013
1562.428	1.034	700262	START	n/a	n/a	n/a	n/a	11	[-999 -999 -999]	-999	pyFR	0	TJ013
1563.462	7.08	700676	PROB	n/a	n/a	n/a	n/a	11	[6 3 5]	14	pyFR	0	TJ013
1570.542	3.656	703508	PROB	n/a	n/a	n/a	n/a	11	[1 1 3]	5	pyFR	0	TJ013
1574.198	4.593	704970	PROB	n/a	n/a	n/a	n/a	11	[2 1 5]	8	pyFR	0	TJ013
1578.791	14.04	706807	PROB	n/a	n/a	n/a	n/a	11	[9 9 5]	23	pyFR	0	TJ013
1592.831	1.104	712423	STOP	n/a	n/a	n/a	n/a	11	[-999 -999 -999]	-999	pyFR	0	TJ013
1593.935	6.745	712864	REC_START	n/a	n/a	n/a	-999	-999	n/a	n/a	pyFR	0	TJ013
1600.68	0.329	715562	REC_WORD	0.329	n/a	TENT	-999	11	n/a	n/a	pyFR	0	TJ013
1601.009	0.293	715694	REC_WORD	0.293	n/a	COUNT	-999	11	n/a	n/a	pyFR	0	TJ013
1601.302	2.166	715811	REC_WORD	2.166	n/a	FOOD	-999	11	n/a	n/a	pyFR	0	TJ013
1603.468	0.787	716677	REC_WORD_VV	0.787	n/a	VV	-999	11	n/a	n/a	pyFR	0	TJ013
1604.255	2.802	716992	REC_WORD	2.802	n/a	CORD	-999	11	n/a	n/a	pyFR	0	TJ013
1607.057	9.548	718113	REC_WORD_VV	9.548	n/a	VV	-999	11	n/a	n/a	pyFR	0	TJ013
1616.605	2.755	721932	REC_WORD_VV	2.755	n/a	VV	-999	11	n/a	n/a	pyFR	0	TJ013
1619.36	3.681	723034	REC_WORD	3.681	n/a	TREE	-999	11	n/a	n/a	pyFR	0	TJ013
1623.041	19.834	724506	REC_WORD_VV	19.834	n/a	VV	-999	11	n/a	n/a	pyFR	0	TJ013
1642.875	0.016	732440	TRIAL	n/a	n/a	n/a	-999	-999	n/a	n/a	pyFR	0	TJ013
1642.891	2.706	732446	ORIENT	n/a	n/a	n/a	-999	-999	n/a	n/a	pyFR	0	TJ013
1645.597	2.754	733528	WORD	n/a	wordpools/wordpool_EN.txt	PASTE	1	12	n/a	n/a	pyFR	0	TJ013
1648.351	2.688	734630	WORD	n/a	wordpools/wordpool_EN.txt	TOY	2	12	n/a	n/a	pyFR	0	TJ013
1651.039	2.656	735705	WORD	n/a	wordpools/wordpool_EN.txt	BOY	3	12	n/a	n/a	pyFR	0	TJ013
1653.695	2.47	736767	WORD	n/a	wordpools/wordpool_EN.txt	GRAPE	4	12	n/a	n/a	pyFR	0	TJ013
1656.165	2.722	737755	WORD	n/a	wordpools/wordpool_EN.txt	LAKE	5	12	n/a	n/a	pyFR	0	TJ013
1658.887	2.672	738844	WORD	n/a	wordpools/wordpool_EN.txt	BELL	6	12	n/a	n/a	pyFR	0	TJ013
1661.559	2.621	739913	WORD	n/a	wordpools/wordpool_EN.txt	CRANE	7	12	n/a	n/a	pyFR	0	TJ013
1664.18	2.689	740961	WORD	n/a	wordpools/wordpool_EN.txt	BLUSH	8	12	n/a	n/a	pyFR	0	TJ013
1666.869	2.605	742037	WORD	n/a	wordpools/wordpool_EN.txt	GOLD	9	12	n/a	n/a	pyFR	0	TJ013
1669.474	2.787	743079	WORD	n/a	wordpools/wordpool_EN.txt	BARN	10	12	n/a	n/a	pyFR	0	TJ013
1672.261	2.456	744194	WORD	n/a	wordpools/wordpool_EN.txt	AXE	11	12	n/a	n/a	pyFR	0	TJ013
1674.717	2.437	745176	WORD	n/a	wordpools/wordpool_EN.txt	BRANCH	12	12	n/a	n/a	pyFR	0	TJ013
1677.154	2.706	746151	WORD	n/a	wordpools/wordpool_EN.txt	SAIL	13	12	n/a	n/a	pyFR	0	TJ013
1679.86	2.738	747233	WORD	n/a	wordpools/wordpool_EN.txt	WING	14	12	n/a	n/a	pyFR	0	TJ013
1682.598	1.62	748328	WORD	n/a	wordpools/wordpool_EN.txt	SMOKE	15	12	n/a	n/a	pyFR	0	TJ013
1684.218	1.167	748976	START	n/a	n/a	n/a	n/a	12	[-999 -999 -999]	-999	pyFR	0	TJ013
1685.385	6.463	749443	PROB	n/a	n/a	n/a	n/a	12	[4 5 9]	18	pyFR	0	TJ013
1691.848	4.157	752028	PROB	n/a	n/a	n/a	n/a	12	[6 1 4]	11	pyFR	0	TJ013
1696.005	5.478	753691	PROB	n/a	n/a	n/a	n/a	12	[8 1 7]	16	pyFR	0	TJ013
1701.483	4.706	755882	PROB	n/a	n/a	n/a	n/a	12	[9 9 6]	24	pyFR	0	TJ013
1706.189	1.204	757764	STOP	n/a	n/a	n/a	n/a	12	[-999 -999 -999]	-999	pyFR	0	TJ013
1707.393	2.734	758246	REC_START	n/a	n/a	n/a	-999	-999	n/a	n/a	pyFR	0	TJ013
1710.127	1.0	759339	REC_WORD	1.0	n/a	BRANCH	-999	12	n/a	n/a	pyFR	0	TJ013
1711.127	0.944	759739	REC_WORD_VV	0.944	n/a	VV	-999	12	n/a	n/a	pyFR	0	TJ013
1712.071	0.496	760117	REC_WORD	0.496	n/a	SAIL	-999	12	n/a	n/a	pyFR	0	TJ013
1712.567	0.685	760315	REC_WORD	0.685	n/a	SING	-999	12	n/a	n/a	pyFR	0	TJ013
1713.252	2.428	760589	REC_WORD	2.428	n/a	WING	-999	12	n/a	n/a	pyFR	0	TJ013
1715.68	4.866	761561	REC_WORD_VV	4.866	n/a	VV	-999	12	n/a	n/a	pyFR	0	TJ013
1720.546	100.857	763507	REC_WORD	100.857	n/a	HAMMER	-999	12	n/a	n/a	pyFR	0	TJ013
1821.403	0.016	803848	TRIAL	n/a	n/a	n/a	-999	-999	n/a	n/a	pyFR	0	TJ013
1821.419	2.972	803855	ORIENT	n/a	n/a	n/a	-999	-999	n/a	n/a	pyFR	0	TJ013
1824.391	2.538	805043	WORD	n/a	wordpools/wordpool_EN.txt	BLOOM	1	13	n/a	n/a	pyFR	0	TJ013
1826.929	2.622	806059	WORD	n/a	wordpools/wordpool_EN.txt	TOAD	2	13	n/a	n/a	pyFR	0	TJ013
1829.551	2.487	807107	WORD	n/a	wordpools/wordpool_EN.txt	DOCK	3	13	n/a	n/a	pyFR	0	TJ013
1832.038	2.706	808102	WORD	n/a	wordpools/wordpool_EN.txt	SCHOOL	4	13	n/a	n/a	pyFR	0	TJ013
1834.744	2.571	809184	WORD	n/a	wordpools/wordpool_EN.txt	JUDGE	5	13	n/a	n/a	pyFR	0	TJ013
1837.315	2.721	810213	WORD	n/a	wordpools/wordpool_EN.txt	MUD	6	13	n/a	n/a	pyFR	0	TJ013
1840.036	2.74	811301	WORD	n/a	wordpools/wordpool_EN.txt	HORN	7	13	n/a	n/a	pyFR	0	TJ013
1842.776	2.771	812397	WORD	n/a	wordpools/wordpool_EN.txt	HEART	8	13	n/a	n/a	pyFR	0	TJ013
1845.547	2.504	813506	WORD	n/a	wordpools/wordpool_EN.txt	CAGE	9	13	n/a	n/a	pyFR	0	TJ013
1848.051	2.456	814507	WORD	n/a	wordpools/wordpool_EN.txt	STORM	10	13	n/a	n/a	pyFR	0	TJ013
1850.507	2.503	815489	WORD	n/a	wordpools/wordpool_EN.txt	SPARK	11	13	n/a	n/a	pyFR	0	TJ013
1853.01	2.556	816491	WORD	n/a	wordpools/wordpool_EN.txt	WHALE	12	13	n/a	n/a	pyFR	0	TJ013
1855.566	2.804	817513	WORD	n/a	wordpools/wordpool_EN.txt	JEEP	13	13	n/a	n/a	pyFR	0	TJ013
1858.37	2.555	818635	WORD	n/a	wordpools/wordpool_EN.txt	DART	14	13	n/a	n/a	pyFR	0	TJ013
1860.925	1.605	819656	WORD	n/a	wordpools/wordpool_EN.txt	MOTH	15	13	n/a	n/a	pyFR	0	TJ013
1862.53	0.849	820298	START	n/a	n/a	n/a	n/a	13	[-999 -999 -999]	-999	pyFR	0	TJ013
1863.379	5.978	820638	PROB	n/a	n/a	n/a	n/a	13	[9 9 9]	27	pyFR	0	TJ013
1869.357	4.925	823029	PROB	n/a	n/a	n/a	n/a	13	[5 6 3]	14	pyFR	0	TJ013
1874.282	4.226	824999	PROB	n/a	n/a	n/a	n/a	13	[1 9 5]	15	pyFR	0	TJ013
1878.508	4.562	826689	PROB	n/a	n/a	n/a	n/a	13	[2 1 2]	5	pyFR	0	TJ013
1883.07	1.148	828514	STOP	n/a	n/a	n/a	n/a	13	[-999 -999 -999]	-999	pyFR	0	TJ013
1884.218	3.573	828973	REC_START	n/a	n/a	n/a	-999	-999	n/a	n/a	pyFR	0	TJ013
1887.791	0.393	830403	REC_WORD	0.393	n/a	BLOOM	-999	13	n/a	n/a	pyFR	0	TJ013
1888.184	0.452	830560	REC_WORD	0.452	n/a	TOAD	-999	13	n/a	n/a	pyFR	0	TJ013
1888.636	0.257	830740	REC_WORD	0.257	n/a	DOCK	-999	13	n/a	n/a	pyFR	0	TJ013
1888.893	0.633	830843	REC_WORD	0.633	n/a	SCHOOL	-999	13	n/a	n/a	pyFR	0	TJ013
1889.526	2.09	831096	REC_WORD	2.09	n/a	HOLE	-999	13	n/a	n/a	pyFR	0	TJ013
1891.616	8.009	831932	REC_WORD_VV	8.009	n/a	VV	-999	13	n/a	n/a	pyFR	0	TJ013
1899.625	25.768	835136	REC_WORD	25.768	n/a	FLOUR	-999	13	n/a	n/a	pyFR	0	TJ013
1925.393	7.982	845443	REC_WORD_VV	7.982	n/a	VV	-999	13	n/a	n/a	pyFR	0	TJ013
1933.375	0.016	848635	TRIAL	n/a	n/a	n/a	-999	-999	n/a	n/a	pyFR	0	TJ013
1933.391	2.956	848642	ORIENT	n/a	n/a	n/a	-999	-999	n/a	n/a	pyFR	0	TJ013
1936.347	2.755	849824	WORD	n/a	wordpools/wordpool_EN.txt	CAKE	1	14	n/a	n/a	pyFR	0	TJ013
1939.102	2.821	850926	WORD	n/a	wordpools/wordpool_EN.txt	SHELL	2	14	n/a	n/a	pyFR	0	TJ013
1941.923	2.673	852055	WORD	n/a	wordpools/wordpool_EN.txt	ROSE	3	14	n/a	n/a	pyFR	0	TJ013
1944.596	2.57	853124	WORD	n/a	wordpools/wordpool_EN.txt	THREAD	4	14	n/a	n/a	pyFR	0	TJ013
1947.166	2.423	854152	WORD	n/a	wordpools/wordpool_EN.txt	STREET	5	14	n/a	n/a	pyFR	0	TJ013
1949.589	2.603	855121	WORD	n/a	wordpools/wordpool_EN.txt	SOAP	6	14	n/a	n/a	pyFR	0	TJ013
1952.192	2.556	856162	WORD	n/a	wordpools/wordpool_EN.txt	PEN	7	14	n/a	n/a	pyFR	0	TJ013
1954.748	2.57	857184	WORD	n/a	wordpools/wordpool_EN.txt	COAT	8	14	n/a	n/a	pyFR	0	TJ013
1957.318	2.489	858212	WORD	n/a	wordpools/wordpool_EN.txt	SHARK	9	14	n/a	n/a	pyFR	0	TJ013
1959.807	2.537	859208	WORD	n/a	wordpools/wordpool_EN.txt	SKUNK	10	14	n/a	n/a	pyFR	0	TJ013
1962.344	2.572	860223	WORD	n/a	wordpools/wordpool_EN.txt	STEAK	11	14	n/a	n/a	pyFR	0	TJ013
1964.916	2.722	861251	WORD	n/a	wordpools/wordpool_EN.txt	APE	12	14	n/a	n/a	pyFR	0	TJ013
1967.638	2.638	862340	WORD	n/a	wordpools/wordpool_EN.txt	CASH	13	14	n/a	n/a	pyFR	0	TJ013
1970.276	2.821	863395	WORD	n/a	wordpools/wordpool_EN.txt	SMILE	14	14	n/a	n/a	pyFR	0	TJ013
1973.097	1.606	864524	WORD	n/a	wordpools/wordpool_EN.txt	SPEAR	15	14	n/a	n/a	pyFR	0	TJ013
1974.703	0.933	865166	START	n/a	n/a	n/a	n/a	14	[-999 -999 -999]	-999	pyFR	0	TJ013
1975.636	4.558	865539	PROB	n/a	n/a	n/a	n/a	14	[1 6 7]	14	pyFR	0	TJ013
1980.194	3.541	867362	PROB	n/a	n/a	n/a	n/a	14	[1 2 3]	6	pyFR	0	TJ013
1983.735	3.622	868779	PROB	n/a	n/a	n/a	n/a	14	[7 1 5]	13	pyFR	0	TJ013
1987.357	5.777	870227	PROB	n/a	n/a	n/a	n/a	14	[4 3 9]	16	pyFR	0	TJ013
1993.134	3.432	872538	PROB	n/a	n/a	n/a	n/a	14	[4 1 9]	14	pyFR	0	TJ013
1996.566	1.095	873911	STOP	n/a	n/a	n/a	n/a	14	[-999 -999 -999]	-999	pyFR	0	TJ013
1997.661	2.649	874349	REC_START	n/a	n/a	n/a	-999	-999	n/a	n/a	pyFR	0	TJ013
2000.31	0.374	875408	REC_WORD	0.374	n/a	CAKE	-999	14	n/a	n/a	pyFR	0	TJ013
2000.684	0.653	875558	REC_WORD	0.653	n/a	SHELL	-999	14	n/a	n/a	pyFR	0	TJ013
2001.337	1.562	875819	REC_WORD	1.562	n/a	ROSE	-999	14	n/a	n/a	pyFR	0	TJ013
2002.899	5.921	876444	REC_WORD_VV	5.921	n/a	VV	-999	14	n/a	n/a	pyFR	0	TJ013
2008.82	0.417	878812	REC_WORD	0.417	n/a	CAKE	-999	14	n/a	n/a	pyFR	0	TJ013
2009.237	0.685	878979	REC_WORD	0.685	n/a	SHELL	-999	14	n/a	n/a	pyFR	0	TJ013
2009.922	0.763	879253	REC_WORD	0.763	n/a	ROSE	-999	14	n/a	n/a	pyFR	0	TJ013
2010.685	2.787	879558	REC_WORD	2.787	n/a	HOST	-999	14	n/a	n/a	pyFR	0	TJ013
2013.472	2.651	880673	REC_WORD_VV	2.651	n/a	VV	-999	14	n/a	n/a	pyFR	0	TJ013
2016.123	3.225	881733	REC_WORD	3.225	n/a	WOLF	-999	14	n/a	n/a	pyFR	0	TJ013
2019.348	5.501	883023	REC_WORD_VV	5.501	n/a	VV	-999	14	n/a	n/a	pyFR	0	TJ013
2024.849	9.423	885224	REC_WORD	9.423	n/a	WOLF	-999	14	n/a	n/a	pyFR	0	TJ013
2034.272	12.696	888993	REC_WORD	12.696	n/a	FLOUR	-999	14	n/a	n/a	pyFR	0	TJ013
2046.968	0.015	894071	TRIAL	n/a	n/a	n/a	-999	-999	n/a	n/a	pyFR	0	TJ013
2046.983	2.723	894077	ORIENT	n/a	n/a	n/a	-999	-999	n/a	n/a	pyFR	0	TJ013
2049.706	2.687	895166	WORD	n/a	wordpools/wordpool_EN.txt	HOOF	1	15	n/a	n/a	pyFR	0	TJ013
2052.393	2.788	896241	WORD	n/a	wordpools/wordpool_EN.txt	TAIL	2	15	n/a	n/a	pyFR	0	TJ013
2055.181	2.772	897356	WORD	n/a	wordpools/wordpool_EN.txt	FRUIT	3	15	n/a	n/a	pyFR	0	TJ013
2057.953	2.472	898465	WORD	n/a	wordpools/wordpool_EN.txt	RUG	4	15	n/a	n/a	pyFR	0	TJ013
2060.425	2.504	899454	WORD	n/a	wordpools/wordpool_EN.txt	SQUARE	5	15	n/a	n/a	pyFR	0	TJ013
2062.929	2.756	900455	WORD	n/a	wordpools/wordpool_EN.txt	SHEET	6	15	n/a	n/a	pyFR	0	TJ013
2065.685	2.771	901558	WORD	n/a	wordpools/wordpool_EN.txt	PLATE	7	15	n/a	n/a	pyFR	0	TJ013
2068.456	2.488	902666	WORD	n/a	wordpools/wordpool_EN.txt	SEA	8	15	n/a	n/a	pyFR	0	TJ013
2070.944	2.589	903661	WORD	n/a	wordpools/wordpool_EN.txt	SLEEVE	9	15	n/a	n/a	pyFR	0	TJ013
2073.533	2.654	904697	WORD	n/a	wordpools/wordpool_EN.txt	WALL	10	15	n/a	n/a	pyFR	0	TJ013
2076.187	2.805	905758	WORD	n/a	wordpools/wordpool_EN.txt	SEAL	11	15	n/a	n/a	pyFR	0	TJ013
2078.992	2.539	906880	WORD	n/a	wordpools/wordpool_EN.txt	QUEEN	12	15	n/a	n/a	pyFR	0	TJ013
2081.531	2.671	907896	WORD	n/a	wordpools/wordpool_EN.txt	MULE	13	15	n/a	n/a	pyFR	0	TJ013
2084.202	2.455	908964	WORD	n/a	wordpools/wordpool_EN.txt	GRASS	14	15	n/a	n/a	pyFR	0	TJ013
2086.657	1.62	909946	WORD	n/a	wordpools/wordpool_EN.txt	BEAR	15	15	n/a	n/a	pyFR	0	TJ013
2088.277	1.017	910594	START	n/a	n/a	n/a	n/a	15	[-999 -999 -999]	-999	pyFR	0	TJ013
2089.294	5.311	911001	PROB	n/a	n/a	n/a	n/a	15	[2 1 2]	5	pyFR	0	TJ013
2094.605	3.189	913125	PROB	n/a	n/a	n/a	n/a	15	[1 2 7]	10	pyFR	0	TJ013
2097.794	5.861	914401	PROB	n/a	n/a	n/a	n/a	15	[6 3 6]	15	pyFR	0	TJ013
2103.655	2.939	916745	PROB	n/a	n/a	n/a	n/a	15	[6 4 3]	13	pyFR	0	TJ013
2106.594	3.643	917921	PROB	n/a	n/a	n/a	n/a	15	[2 4 2]	8	pyFR	0	TJ013
2110.237	1.522	919378	STOP	n/a	n/a	n/a	n/a	15	[-999 -999 -999]	-999	pyFR	0	TJ013
2111.759	1.372	919986	REC_START	n/a	n/a	n/a	-999	-999	n/a	n/a	pyFR	0	TJ013
2113.131	0.526	920535	REC_WORD	0.526	n/a	FRUIT	-999	15	n/a	n/a	pyFR	0	TJ013
2113.657	0.331	920746	REC_WORD	0.331	n/a	MULE	-999	15	n/a	n/a	pyFR	0	TJ013
2113.988	2.189	920878	REC_WORD	2.189	n/a	SHOE	-999	15	n/a	n/a	pyFR	0	TJ013
2116.177	5.977	921754	REC_WORD_VV	5.977	n/a	VV	-999	15	n/a	n/a	pyFR	0	TJ013
2122.154	3.1	924144	REC_WORD	3.1	n/a	HOOF	-999	15	n/a	n/a	pyFR	0	TJ013
2125.254	13.879	925384	REC_WORD_VV	13.879	n/a	VV	-999	15	n/a	n/a	pyFR	0	TJ013
2139.133	0.754	930936	REC_WORD	0.754	n/a	MULE	-999	15	n/a	n/a	pyFR	0	TJ013
2139.887	0.843	931237	REC_WORD	0.843	n/a	SHOE	-999	15	n/a	n/a	pyFR	0	TJ013
2140.73	10.481	931574	REC_WORD	10.481	n/a	HOOF	-999	15	n/a	n/a	pyFR	0	TJ013
2151.211	95.039	935767	REC_WORD	95.039	n/a	HOOF	-999	15	n/a	n/a	pyFR	0	TJ013
2246.25	0.016	973781	TRIAL	n/a	n/a	n/a	-999	-999	n/a	n/a	pyFR	0	TJ013
2246.266	2.822	973787	ORIENT	n/a	n/a	n/a	-999	-999	n/a	n/a	pyFR	0	TJ013
2249.088	2.455	974916	WORD	n/a	wordpools/wordpool_EN.txt	SLIME	1	16	n/a	n/a	pyFR	0	TJ013
2251.543	2.587	975898	WORD	n/a	wordpools/wordpool_EN.txt	MUG	2	16	n/a	n/a	pyFR	0	TJ013
2254.13	2.673	976933	WORD	n/a	wordpools/wordpool_EN.txt	GLOVE	3	16	n/a	n/a	pyFR	0	TJ013
2256.803	2.772	978002	WORD	n/a	wordpools/wordpool_EN.txt	BATH	4	16	n/a	n/a	pyFR	0	TJ013
2259.575	2.687	979111	WORD	n/a	wordpools/wordpool_EN.txt	WOLF	5	16	n/a	n/a	pyFR	0	TJ013
2262.262	2.755	980185	WORD	n/a	wordpools/wordpool_EN.txt	DITCH	6	16	n/a	n/a	pyFR	0	TJ013
2265.017	2.756	981287	WORD	n/a	wordpools/wordpool_EN.txt	PALM	7	16	n/a	n/a	pyFR	0	TJ013
2267.773	2.822	982390	WORD	n/a	wordpools/wordpool_EN.txt	CHEEK	8	16	n/a	n/a	pyFR	0	TJ013
2270.595	2.454	983519	WORD	n/a	wordpools/wordpool_EN.txt	STRING	9	16	n/a	n/a	pyFR	0	TJ013
2273.049	2.822	984500	WORD	n/a	wordpools/wordpool_EN.txt	SHIRT	10	16	n/a	n/a	pyFR	0	TJ013
2275.871	2.622	985629	WORD	n/a	wordpools/wordpool_EN.txt	TANK	11	16	n/a	n/a	pyFR	0	TJ013
2278.493	2.654	986678	WORD	n/a	wordpools/wordpool_EN.txt	FUR	12	16	n/a	n/a	pyFR	0	TJ013
2281.147	2.606	987739	WORD	n/a	wordpools/wordpool_EN.txt	CLOWN	13	16	n/a	n/a	pyFR	0	TJ013
2283.753	2.838	988782	WORD	n/a	wordpools/wordpool_EN.txt	EGG	14	16	n/a	n/a	pyFR	0	TJ013
2286.591	1.62	989917	WORD	n/a	wordpools/wordpool_EN.txt	RAKE	15	16	n/a	n/a	pyFR	0	TJ013
2288.211	1.101	990565	START	n/a	n/a	n/a	n/a	16	[-999 -999 -999]	-999	pyFR	0	TJ013
2289.312	4.325	991005	PROB	n/a	n/a	n/a	n/a	16	[1 6 6]	13	pyFR	0	TJ013
2293.637	7.814	992735	PROB	n/a	n/a	n/a	n/a	16	[5 6 5]	16	pyFR	0	TJ013
2301.451	5.21	995861	PROB	n/a	n/a	n/a	n/a	16	[5 9 1]	15	pyFR	0	TJ013
2306.661	5.296	997944	PROB	n/a	n/a	n/a	n/a	16	[7 2 5]	14	pyFR	0	TJ013
2311.957	1.049	1000063	STOP	n/a	n/a	n/a	n/a	16	[-999 -999 -999]	-999	pyFR	0	TJ013
2313.006	2.779	1000482	REC_START	n/a	n/a	n/a	-999	-999	n/a	n/a	pyFR	0	TJ013
2315.785	0.45	1001594	REC_WORD	0.45	n/a	SLIME	-999	16	n/a	n/a	pyFR	0	TJ013
2316.235	3.144	1001774	REC_WORD	3.144	n/a	SLUG	-999	16	n/a	n/a	pyFR	0	TJ013
2319.379	2.462	1003031	REC_WORD	2.462	n/a	BUG	-999	16	n/a	n/a	pyFR	0	TJ013
2321.841	1.258	1004016	REC_WORD	1.258	n/a	WEAR	-999	16	n/a	n/a	pyFR	0	TJ013
2323.099	11.987	1004519	REC_WORD	11.987	n/a	FUR	-999	16	n/a	n/a	pyFR	0	TJ013
2335.086	0.856	1009314	REC_WORD	0.856	n/a	BATHROOM	-999	16	n/a	n/a	pyFR	0	TJ013
2335.942	2.4	1009656	REC_WORD_VV	2.4	n/a	VV	-999	16	n/a	n/a	pyFR	0	TJ013
2338.342	2.07	1010616	REC_WORD_VV	2.07	n/a	VV	-999	16	n/a	n/a	pyFR	0	TJ013
2340.412	617.264	1011444	REC_WORD	617.264	n/a	FUR	-999	16	n/a	n/a	pyFR	0	TJ013
2957.676	0.109	1258341	SESS_END	n/a	n/a	n/a	-999	-999	n/a	n/a	pyFR	0	TJ013
2957.785	0.0	1258385	E	n/a	n/a	n/a	-999	-999	n/a	n/a	pyFR	0	TJ013
