onset	duration	sample	trial_type	response_time	stim_file	item_name	serialpos	list	test	answer	experiment	session	subject
0.0	0.0	2090661	SESS_START	n/a	n/a	n/a	-999	-999	n/a	n/a	pyFR	2	TJ050
0.0	22.186	2090661	B	n/a	n/a	n/a	-999	-999	n/a	n/a	pyFR	2	TJ050
22.186	0.01	2135031	START	n/a	n/a	n/a	n/a	0	[-999 -999 -999]	-999	pyFR	2	TJ050
22.196	4.54	2135051	PROB	n/a	n/a	n/a	n/a	0	[9 7 2]	18	pyFR	2	TJ050
26.736	2.639	2144131	PROB	n/a	n/a	n/a	n/a	0	[9 3 7]	19	pyFR	2	TJ050
29.375	3.807	2149409	PROB	n/a	n/a	n/a	n/a	0	[4 8 7]	19	pyFR	2	TJ050
33.182	3.655	2157022	PROB	n/a	n/a	n/a	n/a	0	[5 9 9]	23	pyFR	2	TJ050
36.837	3.356	2164332	PROB	n/a	n/a	n/a	n/a	0	[3 8 8]	19	pyFR	2	TJ050
40.193	2.704	2171044	PROB	n/a	n/a	n/a	n/a	0	[4 7 4]	15	pyFR	2	TJ050
42.897	2.838	2176452	PROB	n/a	n/a	n/a	n/a	0	[5 5 9]	19	pyFR	2	TJ050
45.735	2.705	2182128	PROB	n/a	n/a	n/a	n/a	0	[1 6 3]	10	pyFR	2	TJ050
48.44	2.42	2187537	PROB	n/a	n/a	n/a	n/a	0	[7 3 8]	18	pyFR	2	TJ050
50.86	2.165	2192377	PROB	n/a	n/a	n/a	n/a	0	[3 5 4]	12	pyFR	2	TJ050
53.025	15.933	2196707	STOP	n/a	n/a	n/a	n/a	0	[-999 -999 -999]	-999	pyFR	2	TJ050
68.958	0.016	2228572	TRIAL	n/a	n/a	n/a	-999	1	n/a	n/a	pyFR	2	TJ050
68.974	2.938	2228604	ORIENT	n/a	n/a	n/a	-999	1	n/a	n/a	pyFR	2	TJ050
71.912	2.522	2234480	WORD	n/a	wordpools/wordpool_EN.txt	COAT	1	1	n/a	n/a	pyFR	2	TJ050
74.434	2.688	2239523	WORD	n/a	wordpools/wordpool_EN.txt	NAIL	2	1	n/a	n/a	pyFR	2	TJ050
77.122	2.453	2244899	WORD	n/a	wordpools/wordpool_EN.txt	JUDGE	3	1	n/a	n/a	pyFR	2	TJ050
79.575	2.606	2249805	WORD	n/a	wordpools/wordpool_EN.txt	WHALE	4	1	n/a	n/a	pyFR	2	TJ050
82.181	2.653	2255017	WORD	n/a	wordpools/wordpool_EN.txt	NET	5	1	n/a	n/a	pyFR	2	TJ050
84.834	2.438	2260323	WORD	n/a	wordpools/wordpool_EN.txt	JAIL	6	1	n/a	n/a	pyFR	2	TJ050
87.272	2.771	2265199	WORD	n/a	wordpools/wordpool_EN.txt	POOL	7	1	n/a	n/a	pyFR	2	TJ050
90.043	2.688	2270740	WORD	n/a	wordpools/wordpool_EN.txt	FUDGE	8	1	n/a	n/a	pyFR	2	TJ050
92.731	2.672	2276116	WORD	n/a	wordpools/wordpool_EN.txt	DRUM	9	1	n/a	n/a	pyFR	2	TJ050
95.403	2.536	2281460	WORD	n/a	wordpools/wordpool_EN.txt	FARM	10	1	n/a	n/a	pyFR	2	TJ050
97.939	2.605	2286532	WORD	n/a	wordpools/wordpool_EN.txt	GUARD	11	1	n/a	n/a	pyFR	2	TJ050
100.544	2.487	2291742	WORD	n/a	wordpools/wordpool_EN.txt	HEART	12	1	n/a	n/a	pyFR	2	TJ050
103.031	2.772	2296715	WORD	n/a	wordpools/wordpool_EN.txt	FOX	13	1	n/a	n/a	pyFR	2	TJ050
105.803	2.454	2302259	WORD	n/a	wordpools/wordpool_EN.txt	SLIME	14	1	n/a	n/a	pyFR	2	TJ050
108.257	1.62	2307167	WORD	n/a	wordpools/wordpool_EN.txt	TAIL	15	1	n/a	n/a	pyFR	2	TJ050
109.877	0.867	2310407	START	n/a	n/a	n/a	n/a	1	[-999 -999 -999]	-999	pyFR	2	TJ050
110.744	3.239	2312141	PROB	n/a	n/a	n/a	n/a	1	[4 4 6]	14	pyFR	2	TJ050
113.983	2.421	2318619	PROB	n/a	n/a	n/a	n/a	1	[2 2 3]	7	pyFR	2	TJ050
116.404	3.006	2323460	PROB	n/a	n/a	n/a	n/a	1	[8 9 4]	21	pyFR	2	TJ050
119.41	2.603	2329472	PROB	n/a	n/a	n/a	n/a	1	[3 8 6]	17	pyFR	2	TJ050
122.013	2.872	2334678	PROB	n/a	n/a	n/a	n/a	1	[4 2 5]	9	pyFR	2	TJ050
124.885	1.819	2340422	PROB	n/a	n/a	n/a	n/a	1	[2 2 1]	5	pyFR	2	TJ050
126.704	1.487	2344060	PROB	n/a	n/a	n/a	n/a	1	[1 1 1]	3	pyFR	2	TJ050
128.191	2.068	2347034	PROB	n/a	n/a	n/a	n/a	1	[6 3 5]	14	pyFR	2	TJ050
130.259	1.237	2351169	STOP	n/a	n/a	n/a	n/a	1	[-999 -999 -999]	-999	pyFR	2	TJ050
131.496	0.815	2353643	REC_START	n/a	n/a	n/a	-999	1	n/a	n/a	pyFR	2	TJ050
132.311	0.781	2355273	REC_WORD	0.781	n/a	COAT	-999	1	n/a	n/a	pyFR	2	TJ050
133.092	1.206	2356835	REC_WORD	1.206	n/a	NAIL	-999	1	n/a	n/a	pyFR	2	TJ050
134.298	0.939	2359247	REC_WORD	0.939	n/a	POOL	-999	1	n/a	n/a	pyFR	2	TJ050
135.237	2.226	2361125	REC_WORD	2.226	n/a	SLIME	-999	1	n/a	n/a	pyFR	2	TJ050
137.463	3.002	2365577	REC_WORD	3.002	n/a	HEART	-999	1	n/a	n/a	pyFR	2	TJ050
140.465	1.124	2371581	REC_WORD	1.124	n/a	FUDGE	-999	1	n/a	n/a	pyFR	2	TJ050
141.589	5.324	2373829	REC_WORD	5.324	n/a	POOL	-999	1	n/a	n/a	pyFR	2	TJ050
146.913	40.295	2384476	REC_WORD	40.295	n/a	JAIL	-999	1	n/a	n/a	pyFR	2	TJ050
187.208	0.016	2465063	TRIAL	n/a	n/a	n/a	-999	2	n/a	n/a	pyFR	2	TJ050
187.224	2.653	2465095	ORIENT	n/a	n/a	n/a	-999	2	n/a	n/a	pyFR	2	TJ050
189.877	2.605	2470401	WORD	n/a	wordpools/wordpool_EN.txt	JAR	1	2	n/a	n/a	pyFR	2	TJ050
192.482	2.588	2475611	WORD	n/a	wordpools/wordpool_EN.txt	CASH	2	2	n/a	n/a	pyFR	2	TJ050
195.07	2.788	2480787	WORD	n/a	wordpools/wordpool_EN.txt	DOCK	3	2	n/a	n/a	pyFR	2	TJ050
197.858	2.637	2486362	WORD	n/a	wordpools/wordpool_EN.txt	WORLD	4	2	n/a	n/a	pyFR	2	TJ050
200.495	2.707	2491636	WORD	n/a	wordpools/wordpool_EN.txt	CUP	5	2	n/a	n/a	pyFR	2	TJ050
203.202	2.652	2497050	WORD	n/a	wordpools/wordpool_EN.txt	SEED	6	2	n/a	n/a	pyFR	2	TJ050
205.854	2.456	2502354	WORD	n/a	wordpools/wordpool_EN.txt	BRIDGE	7	2	n/a	n/a	pyFR	2	TJ050
208.31	2.519	2507266	WORD	n/a	wordpools/wordpool_EN.txt	RAT	8	2	n/a	n/a	pyFR	2	TJ050
210.829	2.738	2512303	WORD	n/a	wordpools/wordpool_EN.txt	OAK	9	2	n/a	n/a	pyFR	2	TJ050
213.567	2.789	2517779	WORD	n/a	wordpools/wordpool_EN.txt	LAKE	10	2	n/a	n/a	pyFR	2	TJ050
216.356	2.637	2523357	WORD	n/a	wordpools/wordpool_EN.txt	EEL	11	2	n/a	n/a	pyFR	2	TJ050
218.993	2.738	2528631	WORD	n/a	wordpools/wordpool_EN.txt	MOON	12	2	n/a	n/a	pyFR	2	TJ050
221.731	2.489	2534107	WORD	n/a	wordpools/wordpool_EN.txt	SUN	13	2	n/a	n/a	pyFR	2	TJ050
224.22	2.553	2539085	WORD	n/a	wordpools/wordpool_EN.txt	SHOE	14	2	n/a	n/a	pyFR	2	TJ050
226.773	1.605	2544190	WORD	n/a	wordpools/wordpool_EN.txt	SOCK	15	2	n/a	n/a	pyFR	2	TJ050
228.378	1.0	2547400	START	n/a	n/a	n/a	n/a	2	[-999 -999 -999]	-999	pyFR	2	TJ050
229.378	2.838	2549400	PROB	n/a	n/a	n/a	n/a	2	[3 4 3]	10	pyFR	2	TJ050
232.216	2.286	2555076	PROB	n/a	n/a	n/a	n/a	2	[4 8 5]	17	pyFR	2	TJ050
234.502	2.12	2559648	PROB	n/a	n/a	n/a	n/a	2	[8 7 4]	19	pyFR	2	TJ050
236.622	2.388	2563888	PROB	n/a	n/a	n/a	n/a	2	[7 4 6]	17	pyFR	2	TJ050
239.01	2.405	2568663	PROB	n/a	n/a	n/a	n/a	2	[2 7 7]	16	pyFR	2	TJ050
241.415	2.353	2573473	PROB	n/a	n/a	n/a	n/a	2	[9 1 8]	18	pyFR	2	TJ050
243.768	1.937	2578179	PROB	n/a	n/a	n/a	n/a	2	[8 8 2]	18	pyFR	2	TJ050
245.705	2.12	2582053	PROB	n/a	n/a	n/a	n/a	2	[5 7 7]	17	pyFR	2	TJ050
247.825	2.632	2586293	PROB	n/a	n/a	n/a	n/a	2	[8 1 1]	10	pyFR	2	TJ050
250.457	1.242	2591557	STOP	n/a	n/a	n/a	n/a	2	[-999 -999 -999]	-999	pyFR	2	TJ050
251.699	0.0	2594041	REC_WORD_VV	0.0	n/a	<>	-999	2	n/a	n/a	pyFR	2	TJ050
251.699	0.993	2594041	REC_START	n/a	n/a	n/a	-999	2	n/a	n/a	pyFR	2	TJ050
252.692	1.022	2596026	REC_WORD	1.022	n/a	SUN	-999	2	n/a	n/a	pyFR	2	TJ050
253.714	0.956	2598070	REC_WORD	0.956	n/a	MOON	-999	2	n/a	n/a	pyFR	2	TJ050
254.67	1.014	2599982	REC_WORD	1.014	n/a	CUP	-999	2	n/a	n/a	pyFR	2	TJ050
255.684	4.848	2602010	REC_WORD	4.848	n/a	EEL	-999	2	n/a	n/a	pyFR	2	TJ050
260.532	14.508	2611706	REC_WORD	14.508	n/a	WORLD	-999	2	n/a	n/a	pyFR	2	TJ050
275.04	1.0	2640721	REC_WORD_VV	1.0	n/a	<>	-999	2	n/a	n/a	pyFR	2	TJ050
276.04	39.75	2642721	REC_WORD_VV	39.75	n/a	<>	-999	2	n/a	n/a	pyFR	2	TJ050
315.79	0.016	2722218	TRIAL	n/a	n/a	n/a	-999	3	n/a	n/a	pyFR	2	TJ050
315.806	2.888	2722250	ORIENT	n/a	n/a	n/a	-999	3	n/a	n/a	pyFR	2	TJ050
318.694	2.456	2728026	WORD	n/a	wordpools/wordpool_EN.txt	HILL	1	3	n/a	n/a	pyFR	2	TJ050
321.15	2.77	2732937	WORD	n/a	wordpools/wordpool_EN.txt	ARK	2	3	n/a	n/a	pyFR	2	TJ050
323.92	2.754	2738477	WORD	n/a	wordpools/wordpool_EN.txt	GRASS	3	3	n/a	n/a	pyFR	2	TJ050
326.674	2.472	2743985	WORD	n/a	wordpools/wordpool_EN.txt	WORM	4	3	n/a	n/a	pyFR	2	TJ050
329.146	2.654	2748929	WORD	n/a	wordpools/wordpool_EN.txt	STOOL	5	3	n/a	n/a	pyFR	2	TJ050
331.8	2.471	2754237	WORD	n/a	wordpools/wordpool_EN.txt	BOWL	6	3	n/a	n/a	pyFR	2	TJ050
334.271	2.437	2759178	WORD	n/a	wordpools/wordpool_EN.txt	VAN	7	3	n/a	n/a	pyFR	2	TJ050
336.708	2.488	2764052	WORD	n/a	wordpools/wordpool_EN.txt	TOOTH	8	3	n/a	n/a	pyFR	2	TJ050
339.196	2.671	2769028	WORD	n/a	wordpools/wordpool_EN.txt	SUIT	9	3	n/a	n/a	pyFR	2	TJ050
341.867	2.754	2774370	WORD	n/a	wordpools/wordpool_EN.txt	COW	10	3	n/a	n/a	pyFR	2	TJ050
344.621	2.756	2779878	WORD	n/a	wordpools/wordpool_EN.txt	SEAL	11	3	n/a	n/a	pyFR	2	TJ050
347.377	2.603	2785390	WORD	n/a	wordpools/wordpool_EN.txt	CALF	12	3	n/a	n/a	pyFR	2	TJ050
349.98	2.738	2790595	WORD	n/a	wordpools/wordpool_EN.txt	ROOF	13	3	n/a	n/a	pyFR	2	TJ050
352.718	2.672	2796071	WORD	n/a	wordpools/wordpool_EN.txt	CROWN	14	3	n/a	n/a	pyFR	2	TJ050
355.39	1.62	2801415	WORD	n/a	wordpools/wordpool_EN.txt	SKY	15	3	n/a	n/a	pyFR	2	TJ050
357.01	1.168	2804655	START	n/a	n/a	n/a	n/a	3	[-999 -999 -999]	-999	pyFR	2	TJ050
358.178	3.338	2806991	PROB	n/a	n/a	n/a	n/a	3	[7 1 5]	13	pyFR	2	TJ050
361.516	3.724	2813666	PROB	n/a	n/a	n/a	n/a	3	[6 9 5]	20	pyFR	2	TJ050
365.24	2.503	2821114	PROB	n/a	n/a	n/a	n/a	3	[9 3 8]	20	pyFR	2	TJ050
367.743	2.304	2826120	PROB	n/a	n/a	n/a	n/a	3	[7 3 4]	14	pyFR	2	TJ050
370.047	2.288	2830728	PROB	n/a	n/a	n/a	n/a	3	[1 8 7]	16	pyFR	2	TJ050
372.335	2.021	2835304	PROB	n/a	n/a	n/a	n/a	3	[7 1 4]	14	pyFR	2	TJ050
374.356	3.405	2839346	PROB	n/a	n/a	n/a	n/a	3	[7 8 1]	16	pyFR	2	TJ050
377.761	1.202	2846155	STOP	n/a	n/a	n/a	n/a	3	[-999 -999 -999]	-999	pyFR	2	TJ050
378.963	0.0	2848559	REC_START	n/a	n/a	n/a	-999	3	n/a	n/a	pyFR	2	TJ050
378.963	1.207	2848559	REC_WORD_VV	1.207	n/a	<>	-999	3	n/a	n/a	pyFR	2	TJ050
380.17	0.88	2850973	REC_WORD	0.88	n/a	COW	-999	3	n/a	n/a	pyFR	2	TJ050
381.05	1.611	2852733	REC_WORD	1.611	n/a	CALF	-999	3	n/a	n/a	pyFR	2	TJ050
382.661	1.072	2855955	REC_WORD	1.072	n/a	CROWN	-999	3	n/a	n/a	pyFR	2	TJ050
383.733	1.374	2858099	REC_WORD	1.374	n/a	WORM	-999	3	n/a	n/a	pyFR	2	TJ050
385.107	1.084	2860847	REC_WORD	1.084	n/a	HILL	-999	3	n/a	n/a	pyFR	2	TJ050
386.191	25.109	2863015	REC_WORD	25.109	n/a	ARK	-999	3	n/a	n/a	pyFR	2	TJ050
411.3	4.451	2913231	REC_WORD	4.451	n/a	CROWN	-999	3	n/a	n/a	pyFR	2	TJ050
415.751	0.82	2922133	REC_WORD	0.82	n/a	POOL	-999	3	n/a	n/a	pyFR	2	TJ050
416.571	21.81	2923772	REC_WORD	21.81	n/a	STOOL	-999	3	n/a	n/a	pyFR	2	TJ050
438.381	0.015	2967391	TRIAL	n/a	n/a	n/a	-999	4	n/a	n/a	pyFR	2	TJ050
438.396	2.654	2967421	ORIENT	n/a	n/a	n/a	-999	4	n/a	n/a	pyFR	2	TJ050
441.05	2.771	2972729	WORD	n/a	wordpools/wordpool_EN.txt	BOMB	1	4	n/a	n/a	pyFR	2	TJ050
443.821	2.772	2978270	WORD	n/a	wordpools/wordpool_EN.txt	STEAM	2	4	n/a	n/a	pyFR	2	TJ050
446.593	2.538	2983814	WORD	n/a	wordpools/wordpool_EN.txt	KEY	3	4	n/a	n/a	pyFR	2	TJ050
449.131	2.821	2988890	WORD	n/a	wordpools/wordpool_EN.txt	TENT	4	4	n/a	n/a	pyFR	2	TJ050
451.952	2.571	2994532	WORD	n/a	wordpools/wordpool_EN.txt	MILK	5	4	n/a	n/a	pyFR	2	TJ050
454.523	2.722	2999674	WORD	n/a	wordpools/wordpool_EN.txt	CAVE	6	4	n/a	n/a	pyFR	2	TJ050
457.245	2.537	3005118	WORD	n/a	wordpools/wordpool_EN.txt	SPARK	7	4	n/a	n/a	pyFR	2	TJ050
459.782	2.472	3010191	WORD	n/a	wordpools/wordpool_EN.txt	PEAR	8	4	n/a	n/a	pyFR	2	TJ050
462.254	2.686	3015135	WORD	n/a	wordpools/wordpool_EN.txt	TOY	9	4	n/a	n/a	pyFR	2	TJ050
464.94	2.755	3020507	WORD	n/a	wordpools/wordpool_EN.txt	SIGN	10	4	n/a	n/a	pyFR	2	TJ050
467.695	2.639	3026017	WORD	n/a	wordpools/wordpool_EN.txt	WALL	11	4	n/a	n/a	pyFR	2	TJ050
470.334	2.453	3031295	WORD	n/a	wordpools/wordpool_EN.txt	PASTE	12	4	n/a	n/a	pyFR	2	TJ050
472.787	2.488	3036200	WORD	n/a	wordpools/wordpool_EN.txt	POND	13	4	n/a	n/a	pyFR	2	TJ050
475.275	2.437	3041176	WORD	n/a	wordpools/wordpool_EN.txt	SKUNK	14	4	n/a	n/a	pyFR	2	TJ050
477.712	1.605	3046050	WORD	n/a	wordpools/wordpool_EN.txt	DIME	15	4	n/a	n/a	pyFR	2	TJ050
479.317	1.117	3049260	START	n/a	n/a	n/a	n/a	4	[-999 -999 -999]	-999	pyFR	2	TJ050
480.434	2.754	3051494	PROB	n/a	n/a	n/a	n/a	4	[6 2 4]	12	pyFR	2	TJ050
483.188	1.769	3057002	PROB	n/a	n/a	n/a	n/a	4	[8 8 1]	17	pyFR	2	TJ050
484.957	1.77	3060539	PROB	n/a	n/a	n/a	n/a	4	[1 7 3]	11	pyFR	2	TJ050
486.727	5.125	3064079	PROB	n/a	n/a	n/a	n/a	4	[9 8 7]	24	pyFR	2	TJ050
491.852	2.572	3074329	PROB	n/a	n/a	n/a	n/a	4	[5 7 9]	22	pyFR	2	TJ050
494.424	2.688	3079473	PROB	n/a	n/a	n/a	n/a	4	[9 7 3]	19	pyFR	2	TJ050
497.112	2.203	3084849	PROB	n/a	n/a	n/a	n/a	4	[8 8 2]	18	pyFR	2	TJ050
499.315	3.415	3089254	PROB	n/a	n/a	n/a	n/a	4	[9 9 7]	26	pyFR	2	TJ050
502.73	1.209	3096084	STOP	n/a	n/a	n/a	n/a	4	[-999 -999 -999]	-999	pyFR	2	TJ050
503.939	3.806	3098502	REC_START	n/a	n/a	n/a	-999	4	n/a	n/a	pyFR	2	TJ050
507.745	7.207	3106114	REC_WORD	7.207	n/a	DIME	-999	4	n/a	n/a	pyFR	2	TJ050
514.952	3.144	3120527	REC_WORD	3.144	n/a	MILK	-999	4	n/a	n/a	pyFR	2	TJ050
518.096	0.956	3126815	REC_WORD	0.956	n/a	SIGN	-999	4	n/a	n/a	pyFR	2	TJ050
519.052	3.646	3128727	REC_WORD	3.646	n/a	WALL	-999	4	n/a	n/a	pyFR	2	TJ050
522.698	5.309	3136019	REC_WORD	5.309	n/a	CUP	-999	4	n/a	n/a	pyFR	2	TJ050
528.007	6.14	3146636	REC_WORD	6.14	n/a	ROOF	-999	4	n/a	n/a	pyFR	2	TJ050
534.147	12.57	3158916	REC_WORD	12.57	n/a	TOY	-999	4	n/a	n/a	pyFR	2	TJ050
546.717	18.727	3184055	REC_WORD	18.727	n/a	WALK	-999	4	n/a	n/a	pyFR	2	TJ050
565.444	0.016	3221508	TRIAL	n/a	n/a	n/a	-999	5	n/a	n/a	pyFR	2	TJ050
565.46	2.805	3221540	ORIENT	n/a	n/a	n/a	-999	5	n/a	n/a	pyFR	2	TJ050
568.265	2.704	3227149	WORD	n/a	wordpools/wordpool_EN.txt	GOLD	1	5	n/a	n/a	pyFR	2	TJ050
570.969	2.438	3232557	WORD	n/a	wordpools/wordpool_EN.txt	FORT	2	5	n/a	n/a	pyFR	2	TJ050
573.407	2.788	3237433	WORD	n/a	wordpools/wordpool_EN.txt	BOOT	3	5	n/a	n/a	pyFR	2	TJ050
576.195	2.52	3243009	WORD	n/a	wordpools/wordpool_EN.txt	SPRING	4	5	n/a	n/a	pyFR	2	TJ050
578.715	2.572	3248049	WORD	n/a	wordpools/wordpool_EN.txt	MAZE	5	5	n/a	n/a	pyFR	2	TJ050
581.287	2.553	3253192	WORD	n/a	wordpools/wordpool_EN.txt	RIB	6	5	n/a	n/a	pyFR	2	TJ050
583.84	2.772	3258298	WORD	n/a	wordpools/wordpool_EN.txt	ROAD	7	5	n/a	n/a	pyFR	2	TJ050
586.612	2.437	3263842	WORD	n/a	wordpools/wordpool_EN.txt	FRUIT	8	5	n/a	n/a	pyFR	2	TJ050
589.049	2.455	3268716	WORD	n/a	wordpools/wordpool_EN.txt	STOVE	9	5	n/a	n/a	pyFR	2	TJ050
591.504	2.554	3273626	WORD	n/a	wordpools/wordpool_EN.txt	DEER	10	5	n/a	n/a	pyFR	2	TJ050
594.058	2.604	3278734	WORD	n/a	wordpools/wordpool_EN.txt	BANK	11	5	n/a	n/a	pyFR	2	TJ050
596.662	2.555	3283941	WORD	n/a	wordpools/wordpool_EN.txt	WOLF	12	5	n/a	n/a	pyFR	2	TJ050
599.217	2.503	3289051	WORD	n/a	wordpools/wordpool_EN.txt	YARD	13	5	n/a	n/a	pyFR	2	TJ050
601.72	2.672	3294057	WORD	n/a	wordpools/wordpool_EN.txt	BAT	14	5	n/a	n/a	pyFR	2	TJ050
604.392	1.62	3299401	WORD	n/a	wordpools/wordpool_EN.txt	GATE	15	5	n/a	n/a	pyFR	2	TJ050
606.012	0.934	3302641	START	n/a	n/a	n/a	n/a	5	[-999 -999 -999]	-999	pyFR	2	TJ050
606.946	3.005	3304509	PROB	n/a	n/a	n/a	n/a	5	[3 4 2]	9	pyFR	2	TJ050
609.951	2.938	3310518	PROB	n/a	n/a	n/a	n/a	5	[2 7 7]	16	pyFR	2	TJ050
612.889	2.721	3316394	PROB	n/a	n/a	n/a	n/a	5	[1 7 3]	11	pyFR	2	TJ050
615.61	1.821	3321836	PROB	n/a	n/a	n/a	n/a	5	[2 2 8]	12	pyFR	2	TJ050
617.431	2.086	3325478	PROB	n/a	n/a	n/a	n/a	5	[1 3 9]	13	pyFR	2	TJ050
619.517	5.092	3329650	PROB	n/a	n/a	n/a	n/a	5	[9 8 9]	24	pyFR	2	TJ050
624.609	2.256	3339833	PROB	n/a	n/a	n/a	n/a	5	[7 8 7]	22	pyFR	2	TJ050
626.865	1.2	3344345	STOP	n/a	n/a	n/a	n/a	5	[-999 -999 -999]	-999	pyFR	2	TJ050
628.065	0.0	3346745	REC_START	n/a	n/a	n/a	-999	5	n/a	n/a	pyFR	2	TJ050
628.065	2.181	3346745	REC_WORD_VV	2.181	n/a	<>	-999	5	n/a	n/a	pyFR	2	TJ050
630.246	4.6	3351107	REC_WORD	4.6	n/a	BOOT	-999	5	n/a	n/a	pyFR	2	TJ050
634.846	7.644	3360307	REC_WORD_VV	7.644	n/a	<>	-999	5	n/a	n/a	pyFR	2	TJ050
642.49	1.0	3375594	REC_WORD_VV	1.0	n/a	<>	-999	5	n/a	n/a	pyFR	2	TJ050
643.49	1.0	3377594	REC_WORD_VV	1.0	n/a	<>	-999	5	n/a	n/a	pyFR	2	TJ050
644.49	1.0	3379594	REC_WORD_VV	1.0	n/a	<>	-999	5	n/a	n/a	pyFR	2	TJ050
645.49	1.0	3381594	REC_WORD_VV	1.0	n/a	<>	-999	5	n/a	n/a	pyFR	2	TJ050
646.49	1.0	3383594	REC_WORD_VV	1.0	n/a	<>	-999	5	n/a	n/a	pyFR	2	TJ050
647.49	1.0	3385594	REC_WORD_VV	1.0	n/a	<>	-999	5	n/a	n/a	pyFR	2	TJ050
648.49	1.0	3387594	REC_WORD_VV	1.0	n/a	<>	-999	5	n/a	n/a	pyFR	2	TJ050
649.49	1.0	3389593	REC_WORD_VV	1.0	n/a	<>	-999	5	n/a	n/a	pyFR	2	TJ050
650.49	1.0	3391593	REC_WORD_VV	1.0	n/a	<>	-999	5	n/a	n/a	pyFR	2	TJ050
651.49	1.0	3393593	REC_WORD_VV	1.0	n/a	<>	-999	5	n/a	n/a	pyFR	2	TJ050
652.49	1.0	3395593	REC_WORD_VV	1.0	n/a	<>	-999	5	n/a	n/a	pyFR	2	TJ050
653.49	1.0	3397593	REC_WORD_VV	1.0	n/a	<>	-999	5	n/a	n/a	pyFR	2	TJ050
654.49	1.0	3399593	REC_WORD_VV	1.0	n/a	<>	-999	5	n/a	n/a	pyFR	2	TJ050
655.49	1.0	3401593	REC_WORD_VV	1.0	n/a	<>	-999	5	n/a	n/a	pyFR	2	TJ050
656.49	1.0	3403593	REC_WORD_VV	1.0	n/a	<>	-999	5	n/a	n/a	pyFR	2	TJ050
657.49	1.0	3405593	REC_WORD_VV	1.0	n/a	<>	-999	5	n/a	n/a	pyFR	2	TJ050
658.49	1.0	3407593	REC_WORD_VV	1.0	n/a	<>	-999	5	n/a	n/a	pyFR	2	TJ050
659.49	1.0	3409593	REC_WORD_VV	1.0	n/a	<>	-999	5	n/a	n/a	pyFR	2	TJ050
660.49	1.0	3411593	REC_WORD_VV	1.0	n/a	<>	-999	5	n/a	n/a	pyFR	2	TJ050
661.49	1.0	3413593	REC_WORD_VV	1.0	n/a	<>	-999	5	n/a	n/a	pyFR	2	TJ050
662.49	1.0	3415593	REC_WORD_VV	1.0	n/a	<>	-999	5	n/a	n/a	pyFR	2	TJ050
663.49	1.0	3417592	REC_WORD_VV	1.0	n/a	<>	-999	5	n/a	n/a	pyFR	2	TJ050
664.49	1.0	3419592	REC_WORD_VV	1.0	n/a	<>	-999	5	n/a	n/a	pyFR	2	TJ050
665.49	1.0	3421592	REC_WORD_VV	1.0	n/a	<>	-999	5	n/a	n/a	pyFR	2	TJ050
666.49	1.0	3423592	REC_WORD_VV	1.0	n/a	<>	-999	5	n/a	n/a	pyFR	2	TJ050
667.49	1.0	3425592	REC_WORD_VV	1.0	n/a	<>	-999	5	n/a	n/a	pyFR	2	TJ050
668.49	1.0	3427592	REC_WORD_VV	1.0	n/a	<>	-999	5	n/a	n/a	pyFR	2	TJ050
669.49	1.0	3429592	REC_WORD_VV	1.0	n/a	<>	-999	5	n/a	n/a	pyFR	2	TJ050
670.49	1.0	3431592	REC_WORD_VV	1.0	n/a	<>	-999	5	n/a	n/a	pyFR	2	TJ050
671.49	1.0	3433592	REC_WORD_VV	1.0	n/a	<>	-999	5	n/a	n/a	pyFR	2	TJ050
672.49	520.225	3435592	REC_WORD_VV	520.225	n/a	<>	-999	5	n/a	n/a	pyFR	2	TJ050
1192.715	0.016	4476004	TRIAL	n/a	n/a	n/a	-999	6	n/a	n/a	pyFR	2	TJ050
1192.731	2.872	4476036	ORIENT	n/a	n/a	n/a	-999	6	n/a	n/a	pyFR	2	TJ050
1195.603	2.438	4481780	WORD	n/a	wordpools/wordpool_EN.txt	WOOD	1	6	n/a	n/a	pyFR	2	TJ050
1198.041	2.487	4486655	WORD	n/a	wordpools/wordpool_EN.txt	BALL	2	6	n/a	n/a	pyFR	2	TJ050
1200.528	2.488	4491629	WORD	n/a	wordpools/wordpool_EN.txt	TIE	3	6	n/a	n/a	pyFR	2	TJ050
1203.016	2.604	4496605	WORD	n/a	wordpools/wordpool_EN.txt	WAND	4	6	n/a	n/a	pyFR	2	TJ050
1205.62	2.689	4501813	WORD	n/a	wordpools/wordpool_EN.txt	PEN	5	6	n/a	n/a	pyFR	2	TJ050
1208.309	2.805	4507191	WORD	n/a	wordpools/wordpool_EN.txt	ZOO	6	6	n/a	n/a	pyFR	2	TJ050
1211.114	2.486	4512800	WORD	n/a	wordpools/wordpool_EN.txt	PET	7	6	n/a	n/a	pyFR	2	TJ050
1213.6	2.454	4517772	WORD	n/a	wordpools/wordpool_EN.txt	PIE	8	6	n/a	n/a	pyFR	2	TJ050
1216.054	2.705	4522680	WORD	n/a	wordpools/wordpool_EN.txt	MOUTH	9	6	n/a	n/a	pyFR	2	TJ050
1218.759	2.672	4528090	WORD	n/a	wordpools/wordpool_EN.txt	BEACH	10	6	n/a	n/a	pyFR	2	TJ050
1221.431	2.821	4533434	WORD	n/a	wordpools/wordpool_EN.txt	HOOF	11	6	n/a	n/a	pyFR	2	TJ050
1224.252	2.704	4539076	WORD	n/a	wordpools/wordpool_EN.txt	GIRL	12	6	n/a	n/a	pyFR	2	TJ050
1226.956	2.472	4544483	WORD	n/a	wordpools/wordpool_EN.txt	ROOT	13	6	n/a	n/a	pyFR	2	TJ050
1229.428	2.57	4549427	WORD	n/a	wordpools/wordpool_EN.txt	RAKE	14	6	n/a	n/a	pyFR	2	TJ050
1231.998	1.62	4554567	WORD	n/a	wordpools/wordpool_EN.txt	TRUCK	15	6	n/a	n/a	pyFR	2	TJ050
1233.618	0.951	4557807	START	n/a	n/a	n/a	n/a	6	[-999 -999 -999]	-999	pyFR	2	TJ050
1234.569	2.988	4559709	PROB	n/a	n/a	n/a	n/a	6	[7 5 1]	13	pyFR	2	TJ050
1237.557	1.854	4565685	PROB	n/a	n/a	n/a	n/a	6	[6 2 5]	13	pyFR	2	TJ050
1239.411	2.888	4569392	PROB	n/a	n/a	n/a	n/a	6	[2 7 8]	17	pyFR	2	TJ050
1242.299	2.287	4575168	PROB	n/a	n/a	n/a	n/a	6	[3 7 4]	14	pyFR	2	TJ050
1244.586	2.303	4579742	PROB	n/a	n/a	n/a	n/a	6	[5 8 7]	20	pyFR	2	TJ050
1246.889	3.273	4584348	PROB	n/a	n/a	n/a	n/a	6	[8 4 6]	18	pyFR	2	TJ050
1250.162	2.437	4590894	PROB	n/a	n/a	n/a	n/a	6	[9 2 8]	18	pyFR	2	TJ050
1252.599	3.122	4595767	PROB	n/a	n/a	n/a	n/a	6	[8 2 5]	18	pyFR	2	TJ050
1255.721	1.219	4602011	STOP	n/a	n/a	n/a	n/a	6	[-999 -999 -999]	-999	pyFR	2	TJ050
1256.94	0.969	4604449	REC_START	n/a	n/a	n/a	-999	6	n/a	n/a	pyFR	2	TJ050
1257.909	0.744	4606387	REC_WORD	0.744	n/a	GIRL	-999	6	n/a	n/a	pyFR	2	TJ050
1258.653	0.972	4607875	REC_WORD	0.972	n/a	RULE	-999	6	n/a	n/a	pyFR	2	TJ050
1259.625	2.085	4609819	REC_WORD	2.085	n/a	RAKE	-999	6	n/a	n/a	pyFR	2	TJ050
1261.71	8.946	4613989	REC_WORD	8.946	n/a	BOMB	-999	6	n/a	n/a	pyFR	2	TJ050
1270.656	1.432	4631880	REC_WORD	1.432	n/a	BALL	-999	6	n/a	n/a	pyFR	2	TJ050
1272.088	2.343	4634744	REC_WORD	2.343	n/a	TIE	-999	6	n/a	n/a	pyFR	2	TJ050
1274.431	8.057	4639430	REC_WORD	8.057	n/a	TRUCK	-999	6	n/a	n/a	pyFR	2	TJ050
1282.488	31.7	4655543	REC_WORD	31.7	n/a	GRASS	-999	6	n/a	n/a	pyFR	2	TJ050
1314.188	0.015	4718941	TRIAL	n/a	n/a	n/a	-999	7	n/a	n/a	pyFR	2	TJ050
1314.203	2.972	4718971	ORIENT	n/a	n/a	n/a	-999	7	n/a	n/a	pyFR	2	TJ050
1317.175	2.654	4724915	WORD	n/a	wordpools/wordpool_EN.txt	FOAM	1	7	n/a	n/a	pyFR	2	TJ050
1319.829	2.488	4730223	WORD	n/a	wordpools/wordpool_EN.txt	BRANCH	2	7	n/a	n/a	pyFR	2	TJ050
1322.317	2.487	4735198	WORD	n/a	wordpools/wordpool_EN.txt	KING	3	7	n/a	n/a	pyFR	2	TJ050
1324.804	2.704	4740172	WORD	n/a	wordpools/wordpool_EN.txt	HOSE	4	7	n/a	n/a	pyFR	2	TJ050
1327.508	2.505	4745580	WORD	n/a	wordpools/wordpool_EN.txt	SHEET	5	7	n/a	n/a	pyFR	2	TJ050
1330.013	2.487	4750590	WORD	n/a	wordpools/wordpool_EN.txt	SHIELD	6	7	n/a	n/a	pyFR	2	TJ050
1332.5	2.673	4755564	WORD	n/a	wordpools/wordpool_EN.txt	PIG	7	7	n/a	n/a	pyFR	2	TJ050
1335.173	2.553	4760909	WORD	n/a	wordpools/wordpool_EN.txt	GLASS	8	7	n/a	n/a	pyFR	2	TJ050
1337.726	2.788	4766015	WORD	n/a	wordpools/wordpool_EN.txt	SPOON	9	7	n/a	n/a	pyFR	2	TJ050
1340.514	2.47	4771591	WORD	n/a	wordpools/wordpool_EN.txt	TEA	10	7	n/a	n/a	pyFR	2	TJ050
1342.984	2.672	4776531	WORD	n/a	wordpools/wordpool_EN.txt	CORD	11	7	n/a	n/a	pyFR	2	TJ050
1345.656	2.821	4781875	WORD	n/a	wordpools/wordpool_EN.txt	WHEEL	12	7	n/a	n/a	pyFR	2	TJ050
1348.477	2.554	4787516	WORD	n/a	wordpools/wordpool_EN.txt	FOOT	13	7	n/a	n/a	pyFR	2	TJ050
1351.031	2.805	4792624	WORD	n/a	wordpools/wordpool_EN.txt	BUSH	14	7	n/a	n/a	pyFR	2	TJ050
1353.836	1.605	4798234	WORD	n/a	wordpools/wordpool_EN.txt	CART	15	7	n/a	n/a	pyFR	2	TJ050
1355.441	1.0	4801444	START	n/a	n/a	n/a	n/a	7	[-999 -999 -999]	-999	pyFR	2	TJ050
1356.441	2.453	4803444	PROB	n/a	n/a	n/a	n/a	7	[5 5 3]	13	pyFR	2	TJ050
1358.894	2.288	4808350	PROB	n/a	n/a	n/a	n/a	7	[2 7 5]	14	pyFR	2	TJ050
1361.182	2.955	4812926	PROB	n/a	n/a	n/a	n/a	7	[1 8 3]	12	pyFR	2	TJ050
1364.137	3.355	4818835	PROB	n/a	n/a	n/a	n/a	7	[5 4 1]	10	pyFR	2	TJ050
1367.492	2.806	4825545	PROB	n/a	n/a	n/a	n/a	7	[9 6 8]	23	pyFR	2	TJ050
1370.298	2.186	4831157	PROB	n/a	n/a	n/a	n/a	7	[6 1 6]	13	pyFR	2	TJ050
1372.484	2.981	4835529	PROB	n/a	n/a	n/a	n/a	7	[9 7 8]	23	pyFR	2	TJ050
1375.465	1.126	4841490	STOP	n/a	n/a	n/a	n/a	7	[-999 -999 -999]	-999	pyFR	2	TJ050
1376.591	0.971	4843742	REC_START	n/a	n/a	n/a	-999	7	n/a	n/a	pyFR	2	TJ050
1377.562	0.849	4845684	REC_WORD	0.849	n/a	SHEET	-999	7	n/a	n/a	pyFR	2	TJ050
1378.411	1.122	4847382	REC_WORD	1.122	n/a	SHIELD	-999	7	n/a	n/a	pyFR	2	TJ050
1379.533	4.731	4849626	REC_WORD	4.731	n/a	GLASS	-999	7	n/a	n/a	pyFR	2	TJ050
1384.264	6.872	4859088	REC_WORD	6.872	n/a	SPOON	-999	7	n/a	n/a	pyFR	2	TJ050
1391.136	24.375	4872831	REC_WORD	24.375	n/a	CORD	-999	7	n/a	n/a	pyFR	2	TJ050
1415.511	5.015	4921580	REC_WORD	5.015	n/a	KING	-999	7	n/a	n/a	pyFR	2	TJ050
1420.526	13.345	4931609	REC_WORD	13.345	n/a	TEA	-999	7	n/a	n/a	pyFR	2	TJ050
1433.871	0.016	4958298	TRIAL	n/a	n/a	n/a	-999	8	n/a	n/a	pyFR	2	TJ050
1433.887	2.788	4958330	ORIENT	n/a	n/a	n/a	-999	8	n/a	n/a	pyFR	2	TJ050
1436.675	2.422	4963906	WORD	n/a	wordpools/wordpool_EN.txt	APE	1	8	n/a	n/a	pyFR	2	TJ050
1439.097	2.453	4968750	WORD	n/a	wordpools/wordpool_EN.txt	MUG	2	8	n/a	n/a	pyFR	2	TJ050
1441.55	2.723	4973656	WORD	n/a	wordpools/wordpool_EN.txt	JEEP	3	8	n/a	n/a	pyFR	2	TJ050
1444.273	2.586	4979101	WORD	n/a	wordpools/wordpool_EN.txt	CHEEK	4	8	n/a	n/a	pyFR	2	TJ050
1446.859	2.705	4984273	WORD	n/a	wordpools/wordpool_EN.txt	FLUTE	5	8	n/a	n/a	pyFR	2	TJ050
1449.564	2.622	4989683	WORD	n/a	wordpools/wordpool_EN.txt	PEACH	6	8	n/a	n/a	pyFR	2	TJ050
1452.186	2.753	4994927	WORD	n/a	wordpools/wordpool_EN.txt	CARD	7	8	n/a	n/a	pyFR	2	TJ050
1454.939	2.621	5000433	WORD	n/a	wordpools/wordpool_EN.txt	VEST	8	8	n/a	n/a	pyFR	2	TJ050
1457.56	2.589	5005674	WORD	n/a	wordpools/wordpool_EN.txt	DOOR	9	8	n/a	n/a	pyFR	2	TJ050
1460.149	2.453	5010852	WORD	n/a	wordpools/wordpool_EN.txt	CAT	10	8	n/a	n/a	pyFR	2	TJ050
1462.602	2.421	5015758	WORD	n/a	wordpools/wordpool_EN.txt	DOG	11	8	n/a	n/a	pyFR	2	TJ050
1465.023	2.788	5020600	WORD	n/a	wordpools/wordpool_EN.txt	THUMB	12	8	n/a	n/a	pyFR	2	TJ050
1467.811	2.555	5026176	WORD	n/a	wordpools/wordpool_EN.txt	DESK	13	8	n/a	n/a	pyFR	2	TJ050
1470.366	2.654	5031286	WORD	n/a	wordpools/wordpool_EN.txt	CLOUD	14	8	n/a	n/a	pyFR	2	TJ050
1473.02	1.62	5036593	WORD	n/a	wordpools/wordpool_EN.txt	SNAKE	15	8	n/a	n/a	pyFR	2	TJ050
1474.64	0.934	5039833	START	n/a	n/a	n/a	n/a	8	[-999 -999 -999]	-999	pyFR	2	TJ050
1475.574	2.639	5041701	PROB	n/a	n/a	n/a	n/a	8	[7 3 2]	12	pyFR	2	TJ050
1478.213	3.155	5046979	PROB	n/a	n/a	n/a	n/a	8	[6 7 7]	20	pyFR	2	TJ050
1481.368	2.219	5053289	PROB	n/a	n/a	n/a	n/a	8	[4 6 5]	15	pyFR	2	TJ050
1483.587	2.706	5057727	PROB	n/a	n/a	n/a	n/a	8	[9 1 9]	19	pyFR	2	TJ050
1486.293	2.587	5063138	PROB	n/a	n/a	n/a	n/a	8	[7 3 3]	13	pyFR	2	TJ050
1488.88	3.307	5068312	PROB	n/a	n/a	n/a	n/a	8	[9 4 5]	18	pyFR	2	TJ050
1492.187	1.886	5074926	PROB	n/a	n/a	n/a	n/a	8	[3 9 3]	15	pyFR	2	TJ050
1494.073	2.896	5078698	PROB	n/a	n/a	n/a	n/a	8	[9 2 5]	14	pyFR	2	TJ050
1496.969	1.211	5084490	STOP	n/a	n/a	n/a	n/a	8	[-999 -999 -999]	-999	pyFR	2	TJ050
1498.18	0.0	5086912	REC_WORD_VV	0.0	n/a	<>	-999	8	n/a	n/a	pyFR	2	TJ050
1498.18	1.0	5086912	REC_START	n/a	n/a	n/a	-999	8	n/a	n/a	pyFR	2	TJ050
1499.18	1.281	5088911	REC_WORD_VV	1.281	n/a	<>	-999	8	n/a	n/a	pyFR	2	TJ050
1500.461	1.125	5091473	REC_WORD	1.125	n/a	SNAKE	-999	8	n/a	n/a	pyFR	2	TJ050
1501.586	1.6	5093723	REC_WORD	1.6	n/a	APE	-999	8	n/a	n/a	pyFR	2	TJ050
1503.186	0.798	5096923	REC_WORD	0.798	n/a	DESK	-999	8	n/a	n/a	pyFR	2	TJ050
1503.984	4.107	5098519	REC_WORD	4.107	n/a	CLOUD	-999	8	n/a	n/a	pyFR	2	TJ050
1508.091	1.426	5106733	REC_WORD	1.426	n/a	PIG	-999	8	n/a	n/a	pyFR	2	TJ050
1509.517	2.458	5109585	REC_WORD	2.458	n/a	PEACH	-999	8	n/a	n/a	pyFR	2	TJ050
1511.975	15.218	5114501	REC_WORD	15.218	n/a	BRANCH	-999	8	n/a	n/a	pyFR	2	TJ050
1527.193	142.608	5144935	REC_WORD	142.608	n/a	DESK	-999	8	n/a	n/a	pyFR	2	TJ050
1669.801	0.016	5430141	TRIAL	n/a	n/a	n/a	-999	9	n/a	n/a	pyFR	2	TJ050
1669.817	2.772	5430173	ORIENT	n/a	n/a	n/a	-999	9	n/a	n/a	pyFR	2	TJ050
1672.589	2.471	5435717	WORD	n/a	wordpools/wordpool_EN.txt	MAT	1	9	n/a	n/a	pyFR	2	TJ050
1675.06	2.788	5440659	WORD	n/a	wordpools/wordpool_EN.txt	MOLE	2	9	n/a	n/a	pyFR	2	TJ050
1677.848	2.704	5446234	WORD	n/a	wordpools/wordpool_EN.txt	CHAIR	3	9	n/a	n/a	pyFR	2	TJ050
1680.552	2.539	5451642	WORD	n/a	wordpools/wordpool_EN.txt	SCHOOL	4	9	n/a	n/a	pyFR	2	TJ050
1683.091	2.72	5456720	WORD	n/a	wordpools/wordpool_EN.txt	FILM	5	9	n/a	n/a	pyFR	2	TJ050
1685.811	2.772	5462160	WORD	n/a	wordpools/wordpool_EN.txt	SWORD	6	9	n/a	n/a	pyFR	2	TJ050
1688.583	2.487	5467704	WORD	n/a	wordpools/wordpool_EN.txt	SQUARE	7	9	n/a	n/a	pyFR	2	TJ050
1691.07	2.605	5472677	WORD	n/a	wordpools/wordpool_EN.txt	FORK	8	9	n/a	n/a	pyFR	2	TJ050
1693.675	2.655	5477887	WORD	n/a	wordpools/wordpool_EN.txt	STEAK	9	9	n/a	n/a	pyFR	2	TJ050
1696.33	2.771	5483197	WORD	n/a	wordpools/wordpool_EN.txt	HEN	10	9	n/a	n/a	pyFR	2	TJ050
1699.101	2.737	5488739	WORD	n/a	wordpools/wordpool_EN.txt	FLEA	11	9	n/a	n/a	pyFR	2	TJ050
1701.838	2.705	5494213	WORD	n/a	wordpools/wordpool_EN.txt	INK	12	9	n/a	n/a	pyFR	2	TJ050
1704.543	2.755	5499622	WORD	n/a	wordpools/wordpool_EN.txt	BIRD	13	9	n/a	n/a	pyFR	2	TJ050
1707.298	2.654	5505132	WORD	n/a	wordpools/wordpool_EN.txt	PHONE	14	9	n/a	n/a	pyFR	2	TJ050
1709.952	1.62	5510440	WORD	n/a	wordpools/wordpool_EN.txt	PANTS	15	9	n/a	n/a	pyFR	2	TJ050
1711.572	1.168	5513680	START	n/a	n/a	n/a	n/a	9	[-999 -999 -999]	-999	pyFR	2	TJ050
1712.74	3.189	5516016	PROB	n/a	n/a	n/a	n/a	9	[3 3 4]	10	pyFR	2	TJ050
1715.929	2.171	5522394	PROB	n/a	n/a	n/a	n/a	9	[9 3 5]	17	pyFR	2	TJ050
1718.1	2.988	5526735	PROB	n/a	n/a	n/a	n/a	9	[8 3 2]	13	pyFR	2	TJ050
1721.088	2.12	5532711	PROB	n/a	n/a	n/a	n/a	9	[4 2 5]	11	pyFR	2	TJ050
1723.208	2.204	5536951	PROB	n/a	n/a	n/a	n/a	9	[7 8 8]	23	pyFR	2	TJ050
1725.412	3.806	5541359	PROB	n/a	n/a	n/a	n/a	9	[7 8 5]	20	pyFR	2	TJ050
1729.218	2.775	5548971	PROB	n/a	n/a	n/a	n/a	9	[9 4 1]	14	pyFR	2	TJ050
1731.993	1.099	5554520	STOP	n/a	n/a	n/a	n/a	9	[-999 -999 -999]	-999	pyFR	2	TJ050
1733.092	0.795	5556718	REC_START	n/a	n/a	n/a	-999	9	n/a	n/a	pyFR	2	TJ050
1733.887	0.998	5558308	REC_WORD	0.998	n/a	STEAK	-999	9	n/a	n/a	pyFR	2	TJ050
1734.885	1.042	5560304	REC_WORD	1.042	n/a	FLEA	-999	9	n/a	n/a	pyFR	2	TJ050
1735.927	1.141	5562388	REC_WORD	1.141	n/a	FILM	-999	9	n/a	n/a	pyFR	2	TJ050
1737.068	2.176	5564670	REC_WORD	2.176	n/a	SCHOOL	-999	9	n/a	n/a	pyFR	2	TJ050
1739.244	22.924	5569022	REC_WORD	22.924	n/a	CHAIR	-999	9	n/a	n/a	pyFR	2	TJ050
1762.168	47.119	5614868	REC_WORD	47.119	n/a	BIRD	-999	9	n/a	n/a	pyFR	2	TJ050
1809.287	0.016	5709103	TRIAL	n/a	n/a	n/a	-999	10	n/a	n/a	pyFR	2	TJ050
1809.303	3.006	5709135	ORIENT	n/a	n/a	n/a	-999	10	n/a	n/a	pyFR	2	TJ050
1812.309	2.469	5715147	WORD	n/a	wordpools/wordpool_EN.txt	LIP	1	10	n/a	n/a	pyFR	2	TJ050
1814.778	2.606	5720084	WORD	n/a	wordpools/wordpool_EN.txt	WEB	2	10	n/a	n/a	pyFR	2	TJ050
1817.384	2.553	5725296	WORD	n/a	wordpools/wordpool_EN.txt	ARM	3	10	n/a	n/a	pyFR	2	TJ050
1819.937	2.638	5730402	WORD	n/a	wordpools/wordpool_EN.txt	CUBE	4	10	n/a	n/a	pyFR	2	TJ050
1822.575	2.722	5735678	WORD	n/a	wordpools/wordpool_EN.txt	CLOWN	5	10	n/a	n/a	pyFR	2	TJ050
1825.297	2.586	5741122	WORD	n/a	wordpools/wordpool_EN.txt	KITE	6	10	n/a	n/a	pyFR	2	TJ050
1827.883	2.506	5746293	WORD	n/a	wordpools/wordpool_EN.txt	SAIL	7	10	n/a	n/a	pyFR	2	TJ050
1830.389	2.688	5751305	WORD	n/a	wordpools/wordpool_EN.txt	HORSE	8	10	n/a	n/a	pyFR	2	TJ050
1833.077	2.72	5756681	WORD	n/a	wordpools/wordpool_EN.txt	DITCH	9	10	n/a	n/a	pyFR	2	TJ050
1835.797	2.771	5762121	WORD	n/a	wordpools/wordpool_EN.txt	TANK	10	10	n/a	n/a	pyFR	2	TJ050
1838.568	2.656	5767663	WORD	n/a	wordpools/wordpool_EN.txt	CONE	11	10	n/a	n/a	pyFR	2	TJ050
1841.224	2.436	5772974	WORD	n/a	wordpools/wordpool_EN.txt	STREET	12	10	n/a	n/a	pyFR	2	TJ050
1843.66	2.506	5777846	WORD	n/a	wordpools/wordpool_EN.txt	TOE	13	10	n/a	n/a	pyFR	2	TJ050
1846.166	2.536	5782858	WORD	n/a	wordpools/wordpool_EN.txt	BENCH	14	10	n/a	n/a	pyFR	2	TJ050
1848.702	1.605	5787930	WORD	n/a	wordpools/wordpool_EN.txt	PARK	15	10	n/a	n/a	pyFR	2	TJ050
1850.307	0.933	5791140	START	n/a	n/a	n/a	n/a	10	[-999 -999 -999]	-999	pyFR	2	TJ050
1851.24	4.191	5793006	PROB	n/a	n/a	n/a	n/a	10	[6 5 4]	15	pyFR	2	TJ050
1855.431	2.336	5801387	PROB	n/a	n/a	n/a	n/a	10	[4 5 2]	11	pyFR	2	TJ050
1857.767	1.953	5806059	PROB	n/a	n/a	n/a	n/a	10	[1 2 4]	7	pyFR	2	TJ050
1859.72	1.736	5809965	PROB	n/a	n/a	n/a	n/a	10	[2 3 7]	12	pyFR	2	TJ050
1861.456	1.905	5813437	PROB	n/a	n/a	n/a	n/a	10	[9 3 2]	14	pyFR	2	TJ050
1863.361	2.153	5817247	PROB	n/a	n/a	n/a	n/a	10	[8 1 7]	16	pyFR	2	TJ050
1865.514	1.887	5821553	PROB	n/a	n/a	n/a	n/a	10	[5 1 1]	7	pyFR	2	TJ050
1867.401	1.82	5825327	PROB	n/a	n/a	n/a	n/a	10	[4 6 6]	14	pyFR	2	TJ050
1869.221	2.917	5828966	PROB	n/a	n/a	n/a	n/a	10	[8 3 9]	20	pyFR	2	TJ050
1872.138	1.174	5834800	STOP	n/a	n/a	n/a	n/a	10	[-999 -999 -999]	-999	pyFR	2	TJ050
1873.312	0.717	5837148	REC_START	n/a	n/a	n/a	-999	10	n/a	n/a	pyFR	2	TJ050
1874.029	0.988	5838582	REC_WORD	0.988	n/a	ARM	-999	10	n/a	n/a	pyFR	2	TJ050
1875.017	1.238	5840558	REC_WORD	1.238	n/a	CUBE	-999	10	n/a	n/a	pyFR	2	TJ050
1876.255	1.683	5843034	REC_WORD	1.683	n/a	BENCH	-999	10	n/a	n/a	pyFR	2	TJ050
1877.938	3.9	5846400	REC_WORD	3.9	n/a	SNAIL	-999	10	n/a	n/a	pyFR	2	TJ050
1881.838	3.596	5854199	REC_WORD	3.596	n/a	PEACH	-999	10	n/a	n/a	pyFR	2	TJ050
1885.434	4.703	5861391	REC_WORD	4.703	n/a	TANK	-999	10	n/a	n/a	pyFR	2	TJ050
1890.137	1.0	5870797	REC_WORD	1.0	n/a	SAIL	-999	10	n/a	n/a	pyFR	2	TJ050
1891.137	1.0	5872797	REC_WORD_VV	1.0	n/a	<>	-999	10	n/a	n/a	pyFR	2	TJ050
1892.137	1.0	5874797	REC_WORD_VV	1.0	n/a	<>	-999	10	n/a	n/a	pyFR	2	TJ050
1893.137	10.475	5876797	REC_WORD_VV	10.475	n/a	<>	-999	10	n/a	n/a	pyFR	2	TJ050
1903.612	12.169	5897746	REC_WORD	12.169	n/a	LIP	-999	10	n/a	n/a	pyFR	2	TJ050
1915.781	19.968	5922083	REC_WORD	19.968	n/a	STREET	-999	10	n/a	n/a	pyFR	2	TJ050
1935.749	0.016	5962018	TRIAL	n/a	n/a	n/a	-999	11	n/a	n/a	pyFR	2	TJ050
1935.765	2.922	5962050	ORIENT	n/a	n/a	n/a	-999	11	n/a	n/a	pyFR	2	TJ050
1938.687	2.788	5967893	WORD	n/a	wordpools/wordpool_EN.txt	JET	1	11	n/a	n/a	pyFR	2	TJ050
1941.475	2.588	5973469	WORD	n/a	wordpools/wordpool_EN.txt	FENCE	2	11	n/a	n/a	pyFR	2	TJ050
1944.063	2.687	5978645	WORD	n/a	wordpools/wordpool_EN.txt	NEST	3	11	n/a	n/a	pyFR	2	TJ050
1946.75	2.606	5984019	WORD	n/a	wordpools/wordpool_EN.txt	BELL	4	11	n/a	n/a	pyFR	2	TJ050
1949.356	2.721	5989231	WORD	n/a	wordpools/wordpool_EN.txt	WAVE	5	11	n/a	n/a	pyFR	2	TJ050
1952.077	2.553	5994672	WORD	n/a	wordpools/wordpool_EN.txt	STONE	6	11	n/a	n/a	pyFR	2	TJ050
1954.63	2.437	5999778	WORD	n/a	wordpools/wordpool_EN.txt	BOAT	7	11	n/a	n/a	pyFR	2	TJ050
1957.067	2.639	6004652	WORD	n/a	wordpools/wordpool_EN.txt	TOAD	8	11	n/a	n/a	pyFR	2	TJ050
1959.706	2.505	6009930	WORD	n/a	wordpools/wordpool_EN.txt	CLOTH	9	11	n/a	n/a	pyFR	2	TJ050
1962.211	2.754	6014940	WORD	n/a	wordpools/wordpool_EN.txt	TEETH	10	11	n/a	n/a	pyFR	2	TJ050
1964.965	2.57	6020447	WORD	n/a	wordpools/wordpool_EN.txt	MULE	11	11	n/a	n/a	pyFR	2	TJ050
1967.535	2.739	6025587	WORD	n/a	wordpools/wordpool_EN.txt	AXE	12	11	n/a	n/a	pyFR	2	TJ050
1970.274	2.754	6031065	WORD	n/a	wordpools/wordpool_EN.txt	ELF	13	11	n/a	n/a	pyFR	2	TJ050
1973.028	2.805	6036573	WORD	n/a	wordpools/wordpool_EN.txt	MOOSE	14	11	n/a	n/a	pyFR	2	TJ050
1975.833	1.62	6042183	WORD	n/a	wordpools/wordpool_EN.txt	PLATE	15	11	n/a	n/a	pyFR	2	TJ050
1977.453	0.885	6045423	START	n/a	n/a	n/a	n/a	11	[-999 -999 -999]	-999	pyFR	2	TJ050
1978.338	2.67	6047192	PROB	n/a	n/a	n/a	n/a	11	[7 2 7]	16	pyFR	2	TJ050
1981.008	1.452	6052532	PROB	n/a	n/a	n/a	n/a	11	[6 4 2]	12	pyFR	2	TJ050
1982.46	1.671	6055436	PROB	n/a	n/a	n/a	n/a	11	[2 1 9]	12	pyFR	2	TJ050
1984.131	2.003	6058778	PROB	n/a	n/a	n/a	n/a	11	[1 6 2]	9	pyFR	2	TJ050
1986.134	1.819	6062784	PROB	n/a	n/a	n/a	n/a	11	[2 6 6]	14	pyFR	2	TJ050
1987.953	1.953	6066422	PROB	n/a	n/a	n/a	n/a	11	[4 4 5]	13	pyFR	2	TJ050
1989.906	2.872	6070328	PROB	n/a	n/a	n/a	n/a	11	[4 9 6]	19	pyFR	2	TJ050
1992.778	2.338	6076071	PROB	n/a	n/a	n/a	n/a	11	[3 8 4]	15	pyFR	2	TJ050
1995.116	2.629	6080747	PROB	n/a	n/a	n/a	n/a	11	[6 4 8]	18	pyFR	2	TJ050
1997.745	1.227	6086005	STOP	n/a	n/a	n/a	n/a	11	[-999 -999 -999]	-999	pyFR	2	TJ050
1998.972	0.848	6088459	REC_START	n/a	n/a	n/a	-999	11	n/a	n/a	pyFR	2	TJ050
1999.82	1.095	6090155	REC_WORD	1.095	n/a	EEL	-999	11	n/a	n/a	pyFR	2	TJ050
2000.915	1.272	6092345	REC_WORD	1.272	n/a	MOOSE	-999	11	n/a	n/a	pyFR	2	TJ050
2002.187	5.332	6094889	REC_WORD	5.332	n/a	AXE	-999	11	n/a	n/a	pyFR	2	TJ050
2007.519	1.997	6105552	REC_WORD	1.997	n/a	BOAT	-999	11	n/a	n/a	pyFR	2	TJ050
2009.516	3.291	6109546	REC_WORD	3.291	n/a	JET	-999	11	n/a	n/a	pyFR	2	TJ050
2012.807	3.774	6116128	REC_WORD	3.774	n/a	WAVE	-999	11	n/a	n/a	pyFR	2	TJ050
2016.581	44.797	6123676	REC_WORD	44.797	n/a	BELL	-999	11	n/a	n/a	pyFR	2	TJ050
2061.378	0.016	6213266	TRIAL	n/a	n/a	n/a	-999	12	n/a	n/a	pyFR	2	TJ050
2061.394	2.654	6213298	ORIENT	n/a	n/a	n/a	-999	12	n/a	n/a	pyFR	2	TJ050
2064.048	2.504	6218606	WORD	n/a	wordpools/wordpool_EN.txt	MAP	1	12	n/a	n/a	pyFR	2	TJ050
2066.552	2.454	6223614	WORD	n/a	wordpools/wordpool_EN.txt	ANT	2	12	n/a	n/a	pyFR	2	TJ050
2069.006	2.439	6228522	WORD	n/a	wordpools/wordpool_EN.txt	CAGE	3	12	n/a	n/a	pyFR	2	TJ050
2071.445	2.737	6233400	WORD	n/a	wordpools/wordpool_EN.txt	SLUSH	4	12	n/a	n/a	pyFR	2	TJ050
2074.182	2.671	6238873	WORD	n/a	wordpools/wordpool_EN.txt	FACE	5	12	n/a	n/a	pyFR	2	TJ050
2076.853	2.455	6244215	WORD	n/a	wordpools/wordpool_EN.txt	SPEAR	6	12	n/a	n/a	pyFR	2	TJ050
2079.308	2.553	6249125	WORD	n/a	wordpools/wordpool_EN.txt	BEAN	7	12	n/a	n/a	pyFR	2	TJ050
2081.861	2.654	6254231	WORD	n/a	wordpools/wordpool_EN.txt	HOOK	8	12	n/a	n/a	pyFR	2	TJ050
2084.515	2.573	6259539	WORD	n/a	wordpools/wordpool_EN.txt	PIPE	9	12	n/a	n/a	pyFR	2	TJ050
2087.088	2.519	6264685	WORD	n/a	wordpools/wordpool_EN.txt	PIN	10	12	n/a	n/a	pyFR	2	TJ050
2089.607	2.656	6269722	WORD	n/a	wordpools/wordpool_EN.txt	PALM	11	12	n/a	n/a	pyFR	2	TJ050
2092.263	2.637	6275034	WORD	n/a	wordpools/wordpool_EN.txt	BOOK	12	12	n/a	n/a	pyFR	2	TJ050
2094.9	2.654	6280308	WORD	n/a	wordpools/wordpool_EN.txt	GEESE	13	12	n/a	n/a	pyFR	2	TJ050
2097.554	2.789	6285616	WORD	n/a	wordpools/wordpool_EN.txt	SPONGE	14	12	n/a	n/a	pyFR	2	TJ050
2100.343	1.62	6291194	WORD	n/a	wordpools/wordpool_EN.txt	FOOD	15	12	n/a	n/a	pyFR	2	TJ050
2101.963	1.118	6294433	START	n/a	n/a	n/a	n/a	12	[-999 -999 -999]	-999	pyFR	2	TJ050
2103.081	2.187	6296669	PROB	n/a	n/a	n/a	n/a	12	[3 7 1]	11	pyFR	2	TJ050
2105.268	2.503	6301043	PROB	n/a	n/a	n/a	n/a	12	[3 5 9]	17	pyFR	2	TJ050
2107.771	3.155	6306049	PROB	n/a	n/a	n/a	n/a	12	[4 5 8]	17	pyFR	2	TJ050
2110.926	2.288	6312359	PROB	n/a	n/a	n/a	n/a	12	[7 1 7]	15	pyFR	2	TJ050
2113.214	2.387	6316935	PROB	n/a	n/a	n/a	n/a	12	[3 5 9]	17	pyFR	2	TJ050
2115.601	2.555	6321708	PROB	n/a	n/a	n/a	n/a	12	[5 4 7]	16	pyFR	2	TJ050
2118.156	2.553	6326818	PROB	n/a	n/a	n/a	n/a	12	[5 7 9]	22	pyFR	2	TJ050
2120.709	2.389	6331924	PROB	n/a	n/a	n/a	n/a	12	[1 9 6]	16	pyFR	2	TJ050
2123.098	1.086	6336702	STOP	n/a	n/a	n/a	n/a	12	[-999 -999 -999]	-999	pyFR	2	TJ050
2124.184	0.0	6338874	REC_WORD_VV	0.0	n/a	<>	-999	12	n/a	n/a	pyFR	2	TJ050
2124.184	1.033	6338874	REC_START	n/a	n/a	n/a	-999	12	n/a	n/a	pyFR	2	TJ050
2125.217	0.853	6340940	REC_WORD	0.853	n/a	PALM	-999	12	n/a	n/a	pyFR	2	TJ050
2126.07	1.181	6342646	REC_WORD	1.181	n/a	HOOK	-999	12	n/a	n/a	pyFR	2	TJ050
2127.251	4.966	6345008	REC_WORD	4.966	n/a	SPEAR	-999	12	n/a	n/a	pyFR	2	TJ050
2132.217	2.321	6354939	REC_WORD	2.321	n/a	FACE	-999	12	n/a	n/a	pyFR	2	TJ050
2134.538	59.68	6359581	REC_WORD	59.68	n/a	CLOUD	-999	12	n/a	n/a	pyFR	2	TJ050
2194.218	0.016	6478937	TRIAL	n/a	n/a	n/a	-999	13	n/a	n/a	pyFR	2	TJ050
2194.234	2.989	6478969	ORIENT	n/a	n/a	n/a	-999	13	n/a	n/a	pyFR	2	TJ050
2197.223	2.738	6484946	WORD	n/a	wordpools/wordpool_EN.txt	SHELL	1	13	n/a	n/a	pyFR	2	TJ050
2199.961	2.604	6490422	WORD	n/a	wordpools/wordpool_EN.txt	MAIL	2	13	n/a	n/a	pyFR	2	TJ050
2202.565	2.738	6495630	WORD	n/a	wordpools/wordpool_EN.txt	HAND	3	13	n/a	n/a	pyFR	2	TJ050
2205.303	2.487	6501106	WORD	n/a	wordpools/wordpool_EN.txt	BOARD	4	13	n/a	n/a	pyFR	2	TJ050
2207.79	2.488	6506080	WORD	n/a	wordpools/wordpool_EN.txt	CLAY	5	13	n/a	n/a	pyFR	2	TJ050
2210.278	2.637	6511056	WORD	n/a	wordpools/wordpool_EN.txt	HORN	6	13	n/a	n/a	pyFR	2	TJ050
2212.915	2.472	6516329	WORD	n/a	wordpools/wordpool_EN.txt	FLAG	7	13	n/a	n/a	pyFR	2	TJ050
2215.387	2.637	6521273	WORD	n/a	wordpools/wordpool_EN.txt	PRINCE	8	13	n/a	n/a	pyFR	2	TJ050
2218.024	2.504	6526547	WORD	n/a	wordpools/wordpool_EN.txt	SEAT	9	13	n/a	n/a	pyFR	2	TJ050
2220.528	2.655	6531555	WORD	n/a	wordpools/wordpool_EN.txt	BAG	10	13	n/a	n/a	pyFR	2	TJ050
2223.183	2.67	6536865	WORD	n/a	wordpools/wordpool_EN.txt	ROPE	11	13	n/a	n/a	pyFR	2	TJ050
2225.853	2.688	6542204	WORD	n/a	wordpools/wordpool_EN.txt	GLOVE	12	13	n/a	n/a	pyFR	2	TJ050
2228.541	2.656	6547580	WORD	n/a	wordpools/wordpool_EN.txt	COUCH	13	13	n/a	n/a	pyFR	2	TJ050
2231.197	2.82	6552892	WORD	n/a	wordpools/wordpool_EN.txt	CAPE	14	13	n/a	n/a	pyFR	2	TJ050
2234.017	1.621	6558532	WORD	n/a	wordpools/wordpool_EN.txt	SNOW	15	13	n/a	n/a	pyFR	2	TJ050
2235.638	1.084	6561774	START	n/a	n/a	n/a	n/a	13	[-999 -999 -999]	-999	pyFR	2	TJ050
2236.722	2.571	6563942	PROB	n/a	n/a	n/a	n/a	13	[6 8 7]	21	pyFR	2	TJ050
2239.293	2.37	6569083	PROB	n/a	n/a	n/a	n/a	13	[7 5 3]	15	pyFR	2	TJ050
2241.663	2.706	6573823	PROB	n/a	n/a	n/a	n/a	13	[9 2 9]	20	pyFR	2	TJ050
2244.369	2.236	6579235	PROB	n/a	n/a	n/a	n/a	13	[3 8 3]	14	pyFR	2	TJ050
2246.605	2.237	6583707	PROB	n/a	n/a	n/a	n/a	13	[7 7 2]	16	pyFR	2	TJ050
2248.842	2.305	6588181	PROB	n/a	n/a	n/a	n/a	13	[9 5 5]	19	pyFR	2	TJ050
2251.147	2.27	6592791	PROB	n/a	n/a	n/a	n/a	13	[5 5 9]	19	pyFR	2	TJ050
2253.417	1.937	6597330	PROB	n/a	n/a	n/a	n/a	13	[5 5 4]	14	pyFR	2	TJ050
2255.354	2.543	6601204	PROB	n/a	n/a	n/a	n/a	13	[1 9 7]	17	pyFR	2	TJ050
2257.897	1.096	6606290	STOP	n/a	n/a	n/a	n/a	13	[-999 -999 -999]	-999	pyFR	2	TJ050
2258.993	0.891	6608482	REC_START	n/a	n/a	n/a	-999	13	n/a	n/a	pyFR	2	TJ050
2259.884	0.854	6610264	REC_WORD	0.854	n/a	GLOVE	-999	13	n/a	n/a	pyFR	2	TJ050
2260.738	0.922	6611972	REC_WORD	0.922	n/a	HAND	-999	13	n/a	n/a	pyFR	2	TJ050
2261.66	2.972	6613816	REC_WORD	2.972	n/a	SNOW	-999	13	n/a	n/a	pyFR	2	TJ050
2264.632	4.185	6619760	REC_WORD	4.185	n/a	SEAT	-999	13	n/a	n/a	pyFR	2	TJ050
2268.817	15.181	6628129	REC_WORD	15.181	n/a	FACE	-999	13	n/a	n/a	pyFR	2	TJ050
2283.998	1.0	6658490	REC_WORD_VV	1.0	n/a	<>	-999	13	n/a	n/a	pyFR	2	TJ050
2284.998	3.238	6660490	REC_WORD_VV	3.238	n/a	<>	-999	13	n/a	n/a	pyFR	2	TJ050
2288.236	7.792	6666966	REC_WORD	7.792	n/a	BOARD	-999	13	n/a	n/a	pyFR	2	TJ050
2296.028	2.997	6682549	REC_WORD	2.997	n/a	COUCH	-999	13	n/a	n/a	pyFR	2	TJ050
2299.025	28.084	6688543	REC_WORD	28.084	n/a	SEAT	-999	13	n/a	n/a	pyFR	2	TJ050
2327.109	0.016	6744709	TRIAL	n/a	n/a	n/a	-999	14	n/a	n/a	pyFR	2	TJ050
2327.125	2.937	6744741	ORIENT	n/a	n/a	n/a	-999	14	n/a	n/a	pyFR	2	TJ050
2330.062	2.604	6750615	WORD	n/a	wordpools/wordpool_EN.txt	CAR	1	14	n/a	n/a	pyFR	2	TJ050
2332.666	2.456	6755823	WORD	n/a	wordpools/wordpool_EN.txt	ROCK	2	14	n/a	n/a	pyFR	2	TJ050
2335.122	2.586	6760734	WORD	n/a	wordpools/wordpool_EN.txt	LAMB	3	14	n/a	n/a	pyFR	2	TJ050
2337.708	2.606	6765906	WORD	n/a	wordpools/wordpool_EN.txt	RICE	4	14	n/a	n/a	pyFR	2	TJ050
2340.314	2.753	6771118	WORD	n/a	wordpools/wordpool_EN.txt	ROOM	5	14	n/a	n/a	pyFR	2	TJ050
2343.067	2.588	6776624	WORD	n/a	wordpools/wordpool_EN.txt	NOSE	6	14	n/a	n/a	pyFR	2	TJ050
2345.655	2.622	6781800	WORD	n/a	wordpools/wordpool_EN.txt	SHIRT	7	14	n/a	n/a	pyFR	2	TJ050
2348.277	2.603	6787043	WORD	n/a	wordpools/wordpool_EN.txt	FAN	8	14	n/a	n/a	pyFR	2	TJ050
2350.88	2.556	6792249	WORD	n/a	wordpools/wordpool_EN.txt	CHIN	9	14	n/a	n/a	pyFR	2	TJ050
2353.436	2.586	6797361	WORD	n/a	wordpools/wordpool_EN.txt	JUICE	10	14	n/a	n/a	pyFR	2	TJ050
2356.022	2.454	6802533	WORD	n/a	wordpools/wordpool_EN.txt	BREAD	11	14	n/a	n/a	pyFR	2	TJ050
2358.476	2.555	6807441	WORD	n/a	wordpools/wordpool_EN.txt	STEM	12	14	n/a	n/a	pyFR	2	TJ050
2361.031	2.437	6812551	WORD	n/a	wordpools/wordpool_EN.txt	SNAIL	13	14	n/a	n/a	pyFR	2	TJ050
2363.468	2.756	6817424	WORD	n/a	wordpools/wordpool_EN.txt	SOUP	14	14	n/a	n/a	pyFR	2	TJ050
2366.224	1.619	6822936	WORD	n/a	wordpools/wordpool_EN.txt	SWAMP	15	14	n/a	n/a	pyFR	2	TJ050
2367.843	1.151	6826174	START	n/a	n/a	n/a	n/a	14	[-999 -999 -999]	-999	pyFR	2	TJ050
2368.994	2.588	6828476	PROB	n/a	n/a	n/a	n/a	14	[6 9 7]	21	pyFR	2	TJ050
2371.582	2.27	6833652	PROB	n/a	n/a	n/a	n/a	14	[6 7 5]	18	pyFR	2	TJ050
2373.852	2.938	6838192	PROB	n/a	n/a	n/a	n/a	14	[3 6 9]	18	pyFR	2	TJ050
2376.79	2.872	6844067	PROB	n/a	n/a	n/a	n/a	14	[4 3 5]	12	pyFR	2	TJ050
2379.662	2.455	6849811	PROB	n/a	n/a	n/a	n/a	14	[3 6 8]	17	pyFR	2	TJ050
2382.117	2.054	6854721	PROB	n/a	n/a	n/a	n/a	14	[1 5 5]	11	pyFR	2	TJ050
2384.171	1.851	6858829	PROB	n/a	n/a	n/a	n/a	14	[6 7 2]	15	pyFR	2	TJ050
2386.022	2.22	6862531	PROB	n/a	n/a	n/a	n/a	14	[4 3 8]	15	pyFR	2	TJ050
2388.242	1.204	6866971	STOP	n/a	n/a	n/a	n/a	14	[-999 -999 -999]	-999	pyFR	2	TJ050
2389.446	0.863	6869378	REC_START	n/a	n/a	n/a	-999	14	n/a	n/a	pyFR	2	TJ050
2390.309	1.145	6871104	REC_WORD	1.145	n/a	STEM	-999	14	n/a	n/a	pyFR	2	TJ050
2391.454	1.84	6873394	REC_WORD	1.84	n/a	SNAIL	-999	14	n/a	n/a	pyFR	2	TJ050
2393.294	1.526	6877074	REC_WORD	1.526	n/a	SOUP	-999	14	n/a	n/a	pyFR	2	TJ050
2394.82	13.123	6880126	REC_WORD	13.123	n/a	SWAMP	-999	14	n/a	n/a	pyFR	2	TJ050
2407.943	44.293	6906371	REC_WORD	44.293	n/a	HOOK	-999	14	n/a	n/a	pyFR	2	TJ050
2452.236	0.016	6994954	TRIAL	n/a	n/a	n/a	-999	15	n/a	n/a	pyFR	2	TJ050
2452.252	2.821	6994986	ORIENT	n/a	n/a	n/a	-999	15	n/a	n/a	pyFR	2	TJ050
2455.073	2.62	7000628	WORD	n/a	wordpools/wordpool_EN.txt	BLOOM	1	15	n/a	n/a	pyFR	2	TJ050
2457.693	2.623	7005867	WORD	n/a	wordpools/wordpool_EN.txt	BOY	2	15	n/a	n/a	pyFR	2	TJ050
2460.316	2.586	7011113	WORD	n/a	wordpools/wordpool_EN.txt	STAR	3	15	n/a	n/a	pyFR	2	TJ050
2462.902	2.688	7016285	WORD	n/a	wordpools/wordpool_EN.txt	FUR	4	15	n/a	n/a	pyFR	2	TJ050
2465.59	2.455	7021661	WORD	n/a	wordpools/wordpool_EN.txt	SINK	5	15	n/a	n/a	pyFR	2	TJ050
2468.045	2.687	7026571	WORD	n/a	wordpools/wordpool_EN.txt	TRAIN	6	15	n/a	n/a	pyFR	2	TJ050
2470.732	2.488	7031945	WORD	n/a	wordpools/wordpool_EN.txt	GOAT	7	15	n/a	n/a	pyFR	2	TJ050
2473.22	2.521	7036920	WORD	n/a	wordpools/wordpool_EN.txt	CANE	8	15	n/a	n/a	pyFR	2	TJ050
2475.741	2.622	7041962	WORD	n/a	wordpools/wordpool_EN.txt	BEE	9	15	n/a	n/a	pyFR	2	TJ050
2478.363	2.62	7047206	WORD	n/a	wordpools/wordpool_EN.txt	HOUSE	10	15	n/a	n/a	pyFR	2	TJ050
2480.983	2.804	7052446	WORD	n/a	wordpools/wordpool_EN.txt	SHARK	11	15	n/a	n/a	pyFR	2	TJ050
2483.787	2.705	7058054	WORD	n/a	wordpools/wordpool_EN.txt	BARN	12	15	n/a	n/a	pyFR	2	TJ050
2486.492	2.789	7063463	WORD	n/a	wordpools/wordpool_EN.txt	STRING	13	15	n/a	n/a	pyFR	2	TJ050
2489.281	2.486	7069041	WORD	n/a	wordpools/wordpool_EN.txt	SHRIMP	14	15	n/a	n/a	pyFR	2	TJ050
2491.767	1.605	7074013	WORD	n/a	wordpools/wordpool_EN.txt	EGG	15	15	n/a	n/a	pyFR	2	TJ050
2493.372	0.934	7077223	START	n/a	n/a	n/a	n/a	15	[-999 -999 -999]	-999	pyFR	2	TJ050
2494.306	3.271	7079091	PROB	n/a	n/a	n/a	n/a	15	[7 3 7]	17	pyFR	2	TJ050
2497.577	2.204	7085633	PROB	n/a	n/a	n/a	n/a	15	[3 6 2]	11	pyFR	2	TJ050
2499.781	2.388	7090040	PROB	n/a	n/a	n/a	n/a	15	[7 6 4]	17	pyFR	2	TJ050
2502.169	2.271	7094816	PROB	n/a	n/a	n/a	n/a	15	[5 7 7]	19	pyFR	2	TJ050
2504.44	2.018	7099358	PROB	n/a	n/a	n/a	n/a	15	[7 3 4]	14	pyFR	2	TJ050
2506.458	2.204	7103394	PROB	n/a	n/a	n/a	n/a	15	[5 2 1]	8	pyFR	2	TJ050
2508.662	2.187	7107802	PROB	n/a	n/a	n/a	n/a	15	[9 3 3]	15	pyFR	2	TJ050
2510.849	2.288	7112176	PROB	n/a	n/a	n/a	n/a	15	[1 7 5]	13	pyFR	2	TJ050
2513.137	1.68	7116751	PROB	n/a	n/a	n/a	n/a	15	[1 1 3]	5	pyFR	2	TJ050
2514.817	1.108	7120111	STOP	n/a	n/a	n/a	n/a	15	[-999 -999 -999]	-999	pyFR	2	TJ050
2515.925	1.216	7122327	REC_START	n/a	n/a	n/a	-999	15	n/a	n/a	pyFR	2	TJ050
2517.141	1.461	7124759	REC_WORD	1.461	n/a	SINK	-999	15	n/a	n/a	pyFR	2	TJ050
2518.602	2.447	7127681	REC_WORD	2.447	n/a	SHARK	-999	15	n/a	n/a	pyFR	2	TJ050
2521.049	1.491	7132575	REC_WORD	1.491	n/a	SHRIMP	-999	15	n/a	n/a	pyFR	2	TJ050
2522.54	1.812	7135557	REC_WORD	1.812	n/a	BLOOM	-999	15	n/a	n/a	pyFR	2	TJ050
2524.352	9.213	7139181	REC_WORD	9.213	n/a	BOY	-999	15	n/a	n/a	pyFR	2	TJ050
2533.565	6.02	7157606	REC_WORD	6.02	n/a	HOUSE	-999	15	n/a	n/a	pyFR	2	TJ050
2539.585	1.158	7169645	REC_WORD	1.158	n/a	CAR	-999	15	n/a	n/a	pyFR	2	TJ050
2540.743	10.973	7171961	REC_WORD	10.973	n/a	FUR	-999	15	n/a	n/a	pyFR	2	TJ050
2551.716	3.412	7193907	REC_WORD	3.412	n/a	STEW	-999	15	n/a	n/a	pyFR	2	TJ050
2555.128	63.67	7200730	REC_WORD	63.67	n/a	SNAIL	-999	15	n/a	n/a	pyFR	2	TJ050
2618.798	0.016	7328066	TRIAL	n/a	n/a	n/a	-999	16	n/a	n/a	pyFR	2	TJ050
2618.814	2.755	7328098	ORIENT	n/a	n/a	n/a	-999	16	n/a	n/a	pyFR	2	TJ050
2621.569	2.789	7333607	WORD	n/a	wordpools/wordpool_EN.txt	WEED	1	16	n/a	n/a	pyFR	2	TJ050
2624.358	2.52	7339185	WORD	n/a	wordpools/wordpool_EN.txt	STORE	2	16	n/a	n/a	pyFR	2	TJ050
2626.878	2.822	7344225	WORD	n/a	wordpools/wordpool_EN.txt	ICE	3	16	n/a	n/a	pyFR	2	TJ050
2629.7	2.771	7349869	WORD	n/a	wordpools/wordpool_EN.txt	BROOM	4	16	n/a	n/a	pyFR	2	TJ050
2632.471	2.723	7355411	WORD	n/a	wordpools/wordpool_EN.txt	BRICK	5	16	n/a	n/a	pyFR	2	TJ050
2635.194	2.653	7360856	WORD	n/a	wordpools/wordpool_EN.txt	RUG	6	16	n/a	n/a	pyFR	2	TJ050
2637.847	2.788	7366162	WORD	n/a	wordpools/wordpool_EN.txt	FOG	7	16	n/a	n/a	pyFR	2	TJ050
2640.635	2.438	7371738	WORD	n/a	wordpools/wordpool_EN.txt	SMILE	8	16	n/a	n/a	pyFR	2	TJ050
2643.073	2.787	7376614	WORD	n/a	wordpools/wordpool_EN.txt	EAR	9	16	n/a	n/a	pyFR	2	TJ050
2645.86	2.588	7382188	WORD	n/a	wordpools/wordpool_EN.txt	STRAW	10	16	n/a	n/a	pyFR	2	TJ050
2648.448	2.554	7387364	WORD	n/a	wordpools/wordpool_EN.txt	SHIP	11	16	n/a	n/a	pyFR	2	TJ050
2651.002	2.455	7392471	WORD	n/a	wordpools/wordpool_EN.txt	SEA	12	16	n/a	n/a	pyFR	2	TJ050
2653.457	2.587	7397381	WORD	n/a	wordpools/wordpool_EN.txt	SOAP	13	16	n/a	n/a	pyFR	2	TJ050
2656.044	2.789	7402555	WORD	n/a	wordpools/wordpool_EN.txt	PEARL	14	16	n/a	n/a	pyFR	2	TJ050
2658.833	1.619	7408133	WORD	n/a	wordpools/wordpool_EN.txt	DAD	15	16	n/a	n/a	pyFR	2	TJ050
2660.452	1.218	7411371	START	n/a	n/a	n/a	n/a	16	[-999 -999 -999]	-999	pyFR	2	TJ050
2661.67	3.79	7413807	PROB	n/a	n/a	n/a	n/a	16	[8 3 9]	20	pyFR	2	TJ050
2665.46	2.988	7421386	PROB	n/a	n/a	n/a	n/a	16	[6 9 2]	17	pyFR	2	TJ050
2668.448	2.454	7427362	PROB	n/a	n/a	n/a	n/a	16	[2 4 3]	9	pyFR	2	TJ050
2670.902	2.02	7432270	PROB	n/a	n/a	n/a	n/a	16	[2 3 2]	7	pyFR	2	TJ050
2672.922	1.77	7436310	PROB	n/a	n/a	n/a	n/a	16	[1 1 2]	4	pyFR	2	TJ050
2674.692	2.32	7439850	PROB	n/a	n/a	n/a	n/a	16	[8 1 3]	12	pyFR	2	TJ050
2677.012	5.557	7444489	PROB	n/a	n/a	n/a	n/a	16	[6 9 8]	23	pyFR	2	TJ050
2682.569	1.189	7455603	STOP	n/a	n/a	n/a	n/a	16	[-999 -999 -999]	-999	pyFR	2	TJ050
2683.758	1.359	7457981	REC_START	n/a	n/a	n/a	-999	16	n/a	n/a	pyFR	2	TJ050
2685.117	1.896	7460699	REC_WORD	1.896	n/a	EAR	-999	16	n/a	n/a	pyFR	2	TJ050
2687.013	0.851	7464491	REC_WORD	0.851	n/a	ICE	-999	16	n/a	n/a	pyFR	2	TJ050
2687.864	1.919	7466193	REC_WORD	1.919	n/a	BROOM	-999	16	n/a	n/a	pyFR	2	TJ050
2689.783	0.689	7470031	REC_WORD	0.689	n/a	WEED	-999	16	n/a	n/a	pyFR	2	TJ050
2690.472	5.919	7471408	REC_WORD	5.919	n/a	STORE	-999	16	n/a	n/a	pyFR	2	TJ050
2696.391	1.282	7483246	REC_WORD	1.282	n/a	BRICK	-999	16	n/a	n/a	pyFR	2	TJ050
2697.673	24.491	7485810	REC_WORD	24.491	n/a	RUG	-999	16	n/a	n/a	pyFR	2	TJ050
2722.164	1.246	7534790	REC_WORD	1.246	n/a	FOG	-999	16	n/a	n/a	pyFR	2	TJ050
2723.41	588.022	7537282	REC_WORD	588.022	n/a	SMILE	-999	16	n/a	n/a	pyFR	2	TJ050
3311.432	0.072	8713283	SESS_END	n/a	n/a	n/a	-999	16	n/a	n/a	pyFR	2	TJ050
3311.504	0.0	8713427	E	n/a	n/a	n/a	-999	16	n/a	n/a	pyFR	2	TJ050
