onset	duration	sample	trial_type	response_time	stim_file	item_name	serialpos	list	test	answer	experiment	session	subject
0.0	0.0	133986	B	n/a	n/a	n/a	-999.0	-999	n/a	n/a	pyFR	1	TJ068
0.0	26.85	133986	SESS_START	n/a	n/a	n/a	-999.0	-999	n/a	n/a	pyFR	1	TJ068
26.85	0.024	160836	START	n/a	n/a	n/a	n/a	0	[-999 -999 -999]	-999.0	pyFR	1	TJ068
26.874	9.008	160860	PROB	8.979	n/a	n/a	n/a	0	[8 9 9]	26.0	pyFR	1	TJ068
35.882	3.52	169868	PROB	3.491	n/a	n/a	n/a	0	[1 3 1]	5.0	pyFR	1	TJ068
39.402	4.237	173388	PROB	4.212	n/a	n/a	n/a	0	[8 2 6]	16.0	pyFR	1	TJ068
43.639	3.636	177625	PROB	3.614	n/a	n/a	n/a	0	[4 5 9]	18.0	pyFR	1	TJ068
47.275	4.288	181260	PROB	4.267	n/a	n/a	n/a	0	[9 3 8]	20.0	pyFR	1	TJ068
51.563	17.891	185548	PROB	17.891	n/a	n/a	n/a	0	[7 9 9]	25.0	pyFR	1	TJ068
69.454	13.418	203439	STOP	n/a	n/a	n/a	n/a	0	[-999 -999 -999]	-999.0	pyFR	1	TJ068
82.872	0.016	216857	TRIAL	n/a	n/a	n/a	-999.0	1	n/a	n/a	pyFR	1	TJ068
82.888	1.6	216873	ORIENT	n/a	n/a	n/a	-999.0	1	n/a	n/a	pyFR	1	TJ068
85.641	1.6	219626	WORD	n/a	wordpools/wordpool_EN.txt	CONE	1.0	1	n/a	n/a	pyFR	1	TJ068
88.292	1.6	222277	WORD	n/a	wordpools/wordpool_EN.txt	DOLL	2.0	1	n/a	n/a	pyFR	1	TJ068
91.061	1.6	225046	WORD	n/a	wordpools/wordpool_EN.txt	BAG	3.0	1	n/a	n/a	pyFR	1	TJ068
93.83	1.6	227815	WORD	n/a	wordpools/wordpool_EN.txt	ARM	4.0	1	n/a	n/a	pyFR	1	TJ068
96.534	1.6	230519	WORD	n/a	wordpools/wordpool_EN.txt	ELF	5.0	1	n/a	n/a	pyFR	1	TJ068
99.102	1.6	233087	WORD	n/a	wordpools/wordpool_EN.txt	FORK	6.0	1	n/a	n/a	pyFR	1	TJ068
101.705	1.6	235690	WORD	n/a	wordpools/wordpool_EN.txt	PALM	7.0	1	n/a	n/a	pyFR	1	TJ068
104.273	1.6	238258	WORD	n/a	wordpools/wordpool_EN.txt	CRANE	8.0	1	n/a	n/a	pyFR	1	TJ068
106.742	1.6	240727	WORD	n/a	wordpools/wordpool_EN.txt	SLUSH	9.0	1	n/a	n/a	pyFR	1	TJ068
109.495	1.6	243480	WORD	n/a	wordpools/wordpool_EN.txt	BRICK	10.0	1	n/a	n/a	pyFR	1	TJ068
112.196	1.6	246180	WORD	n/a	wordpools/wordpool_EN.txt	BOY	11.0	1	n/a	n/a	pyFR	1	TJ068
114.898	1.6	248882	WORD	n/a	wordpools/wordpool_EN.txt	BOX	12.0	1	n/a	n/a	pyFR	1	TJ068
117.401	1.6	251385	WORD	n/a	wordpools/wordpool_EN.txt	VASE	13.0	1	n/a	n/a	pyFR	1	TJ068
120.153	1.6	254137	WORD	n/a	wordpools/wordpool_EN.txt	EGG	14.0	1	n/a	n/a	pyFR	1	TJ068
122.589	1.6	256573	WORD	n/a	wordpools/wordpool_EN.txt	LAKE	15.0	1	n/a	n/a	pyFR	1	TJ068
124.207	1.0	258191	START	n/a	n/a	n/a	n/a	1	[-999 -999 -999]	-999.0	pyFR	1	TJ068
125.207	6.172	259191	PROB	6.142	n/a	n/a	n/a	1	[3 2 7]	12.0	pyFR	1	TJ068
131.379	4.987	265363	PROB	4.954	n/a	n/a	n/a	1	[1 8 9]	18.0	pyFR	1	TJ068
136.366	4.537	270350	PROB	4.503	n/a	n/a	n/a	1	[1 5 6]	12.0	pyFR	1	TJ068
140.903	3.879	274887	PROB	3.879	n/a	n/a	n/a	1	[2 2 2]	6.0	pyFR	1	TJ068
144.782	1.457	278766	STOP	n/a	n/a	n/a	n/a	1	[-999 -999 -999]	-999.0	pyFR	1	TJ068
146.239	1.0	280223	REC_START	n/a	n/a	n/a	-999.0	1	n/a	n/a	pyFR	1	TJ068
147.239	0.889	281223	REC_WORD	1.0	n/a	CONE	-999.0	1	n/a	n/a	pyFR	1	TJ068
148.128	1.095	282112	REC_WORD	1.889	n/a	DOLL	-999.0	1	n/a	n/a	pyFR	1	TJ068
149.223	4.473	283207	REC_WORD	2.984	n/a	PALM	-999.0	1	n/a	n/a	pyFR	1	TJ068
153.696	0.824	287680	REC_WORD	7.457	n/a	BOX	-999.0	1	n/a	n/a	pyFR	1	TJ068
154.52	2.615	288504	REC_WORD	8.281	n/a	BOY	-999.0	1	n/a	n/a	pyFR	1	TJ068
157.135	9.635	291119	REC_WORD	10.896	n/a	ARM	-999.0	1	n/a	n/a	pyFR	1	TJ068
166.77	37.57	300754	REC_WORD	20.531	n/a	CRANE	-999.0	1	n/a	n/a	pyFR	1	TJ068
204.34	0.017	338323	TRIAL	n/a	n/a	n/a	-999.0	2	n/a	n/a	pyFR	1	TJ068
204.357	1.6	338340	ORIENT	n/a	n/a	n/a	-999.0	2	n/a	n/a	pyFR	1	TJ068
207.009	1.6	340992	WORD	n/a	wordpools/wordpool_EN.txt	SUIT	1.0	2	n/a	n/a	pyFR	1	TJ068
209.529	1.6	343512	WORD	n/a	wordpools/wordpool_EN.txt	VEST	2.0	2	n/a	n/a	pyFR	1	TJ068
212.23	1.6	346213	WORD	n/a	wordpools/wordpool_EN.txt	COAT	3.0	2	n/a	n/a	pyFR	1	TJ068
214.899	1.6	348882	WORD	n/a	wordpools/wordpool_EN.txt	BATH	4.0	2	n/a	n/a	pyFR	1	TJ068
217.402	1.6	351385	WORD	n/a	wordpools/wordpool_EN.txt	PIPE	5.0	2	n/a	n/a	pyFR	1	TJ068
219.903	1.6	353886	WORD	n/a	wordpools/wordpool_EN.txt	SEAL	6.0	2	n/a	n/a	pyFR	1	TJ068
222.64	1.6	356623	WORD	n/a	wordpools/wordpool_EN.txt	BOMB	7.0	2	n/a	n/a	pyFR	1	TJ068
225.141	1.6	359124	WORD	n/a	wordpools/wordpool_EN.txt	FLAME	8.0	2	n/a	n/a	pyFR	1	TJ068
227.61	1.6	361593	WORD	n/a	wordpools/wordpool_EN.txt	TENT	9.0	2	n/a	n/a	pyFR	1	TJ068
230.262	1.6	364245	WORD	n/a	wordpools/wordpool_EN.txt	SPONGE	10.0	2	n/a	n/a	pyFR	1	TJ068
233.047	1.6	367030	WORD	n/a	wordpools/wordpool_EN.txt	WEED	11.0	2	n/a	n/a	pyFR	1	TJ068
235.85	1.6	369833	WORD	n/a	wordpools/wordpool_EN.txt	FISH	12.0	2	n/a	n/a	pyFR	1	TJ068
238.519	1.6	372502	WORD	n/a	wordpools/wordpool_EN.txt	RAKE	13.0	2	n/a	n/a	pyFR	1	TJ068
241.104	1.6	375086	WORD	n/a	wordpools/wordpool_EN.txt	SIGN	14.0	2	n/a	n/a	pyFR	1	TJ068
243.724	1.6	377706	WORD	n/a	wordpools/wordpool_EN.txt	FOX	15.0	2	n/a	n/a	pyFR	1	TJ068
245.342	1.084	379324	START	n/a	n/a	n/a	n/a	2	[-999 -999 -999]	-999.0	pyFR	1	TJ068
246.426	4.72	380408	PROB	4.699	n/a	n/a	n/a	2	[4 9 9]	22.0	pyFR	1	TJ068
251.146	4.22	385128	PROB	4.187	n/a	n/a	n/a	2	[6 4 8]	18.0	pyFR	1	TJ068
255.366	5.521	389348	PROB	5.495	n/a	n/a	n/a	2	[4 7 8]	19.0	pyFR	1	TJ068
260.887	4.271	394869	PROB	4.246	n/a	n/a	n/a	2	[3 1 7]	11.0	pyFR	1	TJ068
265.158	4.847	399140	PROB	4.847	n/a	n/a	n/a	2	[8 2 5]	15.0	pyFR	1	TJ068
270.005	1.108	403987	STOP	n/a	n/a	n/a	n/a	2	[-999 -999 -999]	-999.0	pyFR	1	TJ068
271.113	1.472	405095	REC_START	n/a	n/a	n/a	-999.0	2	n/a	n/a	pyFR	1	TJ068
272.585	0.69	406567	REC_WORD	1.472	n/a	SNAKE	-999.0	2	n/a	n/a	pyFR	1	TJ068
273.275	2.426	407257	REC_WORD	2.162	n/a	VEST	-999.0	2	n/a	n/a	pyFR	1	TJ068
275.701	4.958	409683	REC_WORD	4.588	n/a	SUIT	-999.0	2	n/a	n/a	pyFR	1	TJ068
280.659	1.0	414641	REC_WORD	9.546	n/a	FOX	-999.0	2	n/a	n/a	pyFR	1	TJ068
281.659	22.86	415641	REC_WORD_VV	10.546	n/a	<>	-999.0	2	n/a	n/a	pyFR	1	TJ068
304.519	14.052	438501	REC_WORD	33.406	n/a	SPONGE	-999.0	2	n/a	n/a	pyFR	1	TJ068
318.571	0.016	452552	TRIAL	n/a	n/a	n/a	-999.0	3	n/a	n/a	pyFR	1	TJ068
318.587	1.6	452568	ORIENT	n/a	n/a	n/a	-999.0	3	n/a	n/a	pyFR	1	TJ068
321.221	1.6	455202	WORD	n/a	wordpools/wordpool_EN.txt	BENCH	1.0	3	n/a	n/a	pyFR	1	TJ068
323.99	1.6	457971	WORD	n/a	wordpools/wordpool_EN.txt	WORM	2.0	3	n/a	n/a	pyFR	1	TJ068
326.794	1.6	460775	WORD	n/a	wordpools/wordpool_EN.txt	CAR	3.0	3	n/a	n/a	pyFR	1	TJ068
329.579	1.6	463560	WORD	n/a	wordpools/wordpool_EN.txt	DRUM	4.0	3	n/a	n/a	pyFR	1	TJ068
332.382	1.6	466363	WORD	n/a	wordpools/wordpool_EN.txt	HAND	5.0	3	n/a	n/a	pyFR	1	TJ068
335.15	1.6	469131	WORD	n/a	wordpools/wordpool_EN.txt	MOLE	6.0	3	n/a	n/a	pyFR	1	TJ068
337.703	1.6	471684	WORD	n/a	wordpools/wordpool_EN.txt	PEA	7.0	3	n/a	n/a	pyFR	1	TJ068
340.204	1.6	474185	WORD	n/a	wordpools/wordpool_EN.txt	SPOON	8.0	3	n/a	n/a	pyFR	1	TJ068
342.774	1.6	476755	WORD	n/a	wordpools/wordpool_EN.txt	LAWN	9.0	3	n/a	n/a	pyFR	1	TJ068
345.476	1.6	479457	WORD	n/a	wordpools/wordpool_EN.txt	CORD	10.0	3	n/a	n/a	pyFR	1	TJ068
348.261	1.6	482242	WORD	n/a	wordpools/wordpool_EN.txt	STRAW	11.0	3	n/a	n/a	pyFR	1	TJ068
350.896	1.6	484877	WORD	n/a	wordpools/wordpool_EN.txt	SPRING	12.0	3	n/a	n/a	pyFR	1	TJ068
353.566	1.6	487547	WORD	n/a	wordpools/wordpool_EN.txt	SKI	13.0	3	n/a	n/a	pyFR	1	TJ068
356.084	1.6	490065	WORD	n/a	wordpools/wordpool_EN.txt	STAIR	14.0	3	n/a	n/a	pyFR	1	TJ068
358.654	1.6	492635	WORD	n/a	wordpools/wordpool_EN.txt	NEST	15.0	3	n/a	n/a	pyFR	1	TJ068
360.272	0.849	494253	START	n/a	n/a	n/a	n/a	3	[-999 -999 -999]	-999.0	pyFR	1	TJ068
361.121	5.506	495102	PROB	5.485	n/a	n/a	n/a	3	[4 8 5]	17.0	pyFR	1	TJ068
366.627	2.685	500608	PROB	2.658	n/a	n/a	n/a	3	[5 5 6]	16.0	pyFR	1	TJ068
369.312	6.839	503293	PROB	6.805	n/a	n/a	n/a	3	[6 8 8]	22.0	pyFR	1	TJ068
376.151	3.002	510131	PROB	2.974	n/a	n/a	n/a	3	[1 4 4]	9.0	pyFR	1	TJ068
379.153	6.172	513133	PROB	6.172	n/a	n/a	n/a	3	[5 8 1]	14.0	pyFR	1	TJ068
385.325	1.119	519305	STOP	n/a	n/a	n/a	n/a	3	[-999 -999 -999]	-999.0	pyFR	1	TJ068
386.444	3.412	520424	REC_START	n/a	n/a	n/a	-999.0	3	n/a	n/a	pyFR	1	TJ068
389.856	0.928	523836	REC_WORD	3.412	n/a	SNAKE	-999.0	3	n/a	n/a	pyFR	1	TJ068
390.784	1.0	524764	REC_WORD	4.34	n/a	STRAW	-999.0	3	n/a	n/a	pyFR	1	TJ068
391.784	5.613	525764	REC_WORD_VV	5.34	n/a	<>	-999.0	3	n/a	n/a	pyFR	1	TJ068
397.397	4.658	531377	REC_WORD	10.953	n/a	WORM	-999.0	3	n/a	n/a	pyFR	1	TJ068
402.055	18.391	536035	REC_WORD	15.611	n/a	WAND	-999.0	3	n/a	n/a	pyFR	1	TJ068
420.446	13.154	554426	REC_WORD	34.002	n/a	LAWN	-999.0	3	n/a	n/a	pyFR	1	TJ068
433.6	0.017	567580	TRIAL	n/a	n/a	n/a	-999.0	4	n/a	n/a	pyFR	1	TJ068
433.617	1.6	567597	ORIENT	n/a	n/a	n/a	-999.0	4	n/a	n/a	pyFR	1	TJ068
436.536	1.6	570516	WORD	n/a	wordpools/wordpool_EN.txt	FOOT	1.0	4	n/a	n/a	pyFR	1	TJ068
439.337	1.6	573316	WORD	n/a	wordpools/wordpool_EN.txt	CHEEK	2.0	4	n/a	n/a	pyFR	1	TJ068
442.089	1.6	576068	WORD	n/a	wordpools/wordpool_EN.txt	GIRL	3.0	4	n/a	n/a	pyFR	1	TJ068
444.542	1.6	578521	WORD	n/a	wordpools/wordpool_EN.txt	GOLD	4.0	4	n/a	n/a	pyFR	1	TJ068
447.194	1.6	581173	WORD	n/a	wordpools/wordpool_EN.txt	WALL	5.0	4	n/a	n/a	pyFR	1	TJ068
449.946	1.6	583925	WORD	n/a	wordpools/wordpool_EN.txt	BROOM	6.0	4	n/a	n/a	pyFR	1	TJ068
452.466	1.6	586445	WORD	n/a	wordpools/wordpool_EN.txt	HILL	7.0	4	n/a	n/a	pyFR	1	TJ068
455.0	1.6	588979	WORD	n/a	wordpools/wordpool_EN.txt	BOOK	8.0	4	n/a	n/a	pyFR	1	TJ068
457.47	1.6	591449	WORD	n/a	wordpools/wordpool_EN.txt	TOAD	9.0	4	n/a	n/a	pyFR	1	TJ068
460.155	1.6	594134	WORD	n/a	wordpools/wordpool_EN.txt	SPARK	10.0	4	n/a	n/a	pyFR	1	TJ068
462.641	1.6	596620	WORD	n/a	wordpools/wordpool_EN.txt	SHEET	11.0	4	n/a	n/a	pyFR	1	TJ068
465.325	1.6	599304	WORD	n/a	wordpools/wordpool_EN.txt	WAVE	12.0	4	n/a	n/a	pyFR	1	TJ068
467.995	1.6	601974	WORD	n/a	wordpools/wordpool_EN.txt	QUEEN	13.0	4	n/a	n/a	pyFR	1	TJ068
470.681	1.6	604660	WORD	n/a	wordpools/wordpool_EN.txt	PLANT	14.0	4	n/a	n/a	pyFR	1	TJ068
473.199	1.6	607178	WORD	n/a	wordpools/wordpool_EN.txt	DUCK	15.0	4	n/a	n/a	pyFR	1	TJ068
474.803	1.115	608782	START	n/a	n/a	n/a	n/a	4	[-999 -999 -999]	-999.0	pyFR	1	TJ068
475.918	5.505	609897	PROB	5.472	n/a	n/a	n/a	4	[5 8 9]	22.0	pyFR	1	TJ068
481.423	4.154	615402	PROB	4.128	n/a	n/a	n/a	4	[7 5 7]	19.0	pyFR	1	TJ068
485.577	4.353	619556	PROB	4.332	n/a	n/a	n/a	4	[8 6 3]	17.0	pyFR	1	TJ068
489.93	3.587	623909	PROB	3.564	n/a	n/a	n/a	4	[5 2 5]	12.0	pyFR	1	TJ068
493.517	3.792	627496	PROB	3.792	n/a	n/a	n/a	4	[6 6 3]	15.0	pyFR	1	TJ068
497.309	1.096	631288	STOP	n/a	n/a	n/a	n/a	4	[-999 -999 -999]	-999.0	pyFR	1	TJ068
498.405	10.248	632384	REC_START	n/a	n/a	n/a	-999.0	4	n/a	n/a	pyFR	1	TJ068
508.653	1.698	642631	REC_WORD	10.248	n/a	QUEEN	-999.0	4	n/a	n/a	pyFR	1	TJ068
510.351	36.544	644329	REC_WORD	11.946	n/a	WALL	-999.0	4	n/a	n/a	pyFR	1	TJ068
546.895	0.016	680873	TRIAL	n/a	n/a	n/a	-999.0	5	n/a	n/a	pyFR	1	TJ068
546.911	1.6	680889	ORIENT	n/a	n/a	n/a	-999.0	5	n/a	n/a	pyFR	1	TJ068
549.664	1.6	683642	WORD	n/a	wordpools/wordpool_EN.txt	BREAD	1.0	5	n/a	n/a	pyFR	1	TJ068
552.165	1.6	686143	WORD	n/a	wordpools/wordpool_EN.txt	BED	2.0	5	n/a	n/a	pyFR	1	TJ068
554.735	1.6	688713	WORD	n/a	wordpools/wordpool_EN.txt	BADGE	3.0	5	n/a	n/a	pyFR	1	TJ068
557.421	1.6	691399	WORD	n/a	wordpools/wordpool_EN.txt	STEAK	4.0	5	n/a	n/a	pyFR	1	TJ068
559.888	1.6	693866	WORD	n/a	wordpools/wordpool_EN.txt	PEACH	5.0	5	n/a	n/a	pyFR	1	TJ068
562.307	1.6	696285	WORD	n/a	wordpools/wordpool_EN.txt	JET	6.0	5	n/a	n/a	pyFR	1	TJ068
565.059	1.6	699037	WORD	n/a	wordpools/wordpool_EN.txt	HOOK	7.0	5	n/a	n/a	pyFR	1	TJ068
567.496	1.6	701474	WORD	n/a	wordpools/wordpool_EN.txt	GEESE	8.0	5	n/a	n/a	pyFR	1	TJ068
569.997	1.6	703974	WORD	n/a	wordpools/wordpool_EN.txt	SMILE	9.0	5	n/a	n/a	pyFR	1	TJ068
572.5	1.6	706477	WORD	n/a	wordpools/wordpool_EN.txt	SNAKE	10.0	5	n/a	n/a	pyFR	1	TJ068
575.218	1.6	709195	WORD	n/a	wordpools/wordpool_EN.txt	BARN	11.0	5	n/a	n/a	pyFR	1	TJ068
578.003	1.6	711980	WORD	n/a	wordpools/wordpool_EN.txt	THREAD	12.0	5	n/a	n/a	pyFR	1	TJ068
580.457	1.6	714434	WORD	n/a	wordpools/wordpool_EN.txt	SKUNK	13.0	5	n/a	n/a	pyFR	1	TJ068
583.191	1.6	717168	WORD	n/a	wordpools/wordpool_EN.txt	PIN	14.0	5	n/a	n/a	pyFR	1	TJ068
585.877	1.6	719854	WORD	n/a	wordpools/wordpool_EN.txt	GRAPE	15.0	5	n/a	n/a	pyFR	1	TJ068
587.481	1.099	721458	START	n/a	n/a	n/a	n/a	5	[-999 -999 -999]	-999.0	pyFR	1	TJ068
588.58	6.654	722557	PROB	6.633	n/a	n/a	n/a	5	[9 8 9]	26.0	pyFR	1	TJ068
595.234	4.355	729211	PROB	4.332	n/a	n/a	n/a	5	[5 9 8]	22.0	pyFR	1	TJ068
599.589	5.254	733566	PROB	5.232	n/a	n/a	n/a	5	[3 6 4]	13.0	pyFR	1	TJ068
604.843	2.939	738820	PROB	2.939	n/a	n/a	n/a	5	[5 1 1]	7.0	pyFR	1	TJ068
607.782	1.081	741759	STOP	n/a	n/a	n/a	n/a	5	[-999 -999 -999]	-999.0	pyFR	1	TJ068
608.863	2.218	742840	REC_START	n/a	n/a	n/a	-999.0	5	n/a	n/a	pyFR	1	TJ068
611.081	8.037	745058	REC_WORD	2.218	n/a	SNAKE	-999.0	5	n/a	n/a	pyFR	1	TJ068
619.118	19.143	753095	REC_WORD	10.255	n/a	JET	-999.0	5	n/a	n/a	pyFR	1	TJ068
638.261	18.626	772237	REC_WORD	29.398	n/a	STEAK	-999.0	5	n/a	n/a	pyFR	1	TJ068
656.887	0.016	790863	TRIAL	n/a	n/a	n/a	-999.0	6	n/a	n/a	pyFR	1	TJ068
656.903	1.6	790879	ORIENT	n/a	n/a	n/a	-999.0	6	n/a	n/a	pyFR	1	TJ068
659.807	1.6	793783	WORD	n/a	wordpools/wordpool_EN.txt	ROOF	1.0	6	n/a	n/a	pyFR	1	TJ068
662.374	1.6	796350	WORD	n/a	wordpools/wordpool_EN.txt	TAPE	2.0	6	n/a	n/a	pyFR	1	TJ068
665.093	1.6	799069	WORD	n/a	wordpools/wordpool_EN.txt	DITCH	3.0	6	n/a	n/a	pyFR	1	TJ068
667.663	1.6	801639	WORD	n/a	wordpools/wordpool_EN.txt	SLIME	4.0	6	n/a	n/a	pyFR	1	TJ068
670.097	1.6	804073	WORD	n/a	wordpools/wordpool_EN.txt	POND	5.0	6	n/a	n/a	pyFR	1	TJ068
672.517	1.6	806493	WORD	n/a	wordpools/wordpool_EN.txt	TRAIN	6.0	6	n/a	n/a	pyFR	1	TJ068
674.985	1.6	808961	WORD	n/a	wordpools/wordpool_EN.txt	STOOL	7.0	6	n/a	n/a	pyFR	1	TJ068
677.455	1.6	811431	WORD	n/a	wordpools/wordpool_EN.txt	BEACH	8.0	6	n/a	n/a	pyFR	1	TJ068
679.956	1.6	813932	WORD	n/a	wordpools/wordpool_EN.txt	TREE	9.0	6	n/a	n/a	pyFR	1	TJ068
682.692	1.6	816668	WORD	n/a	wordpools/wordpool_EN.txt	MAIL	10.0	6	n/a	n/a	pyFR	1	TJ068
685.227	1.6	819203	WORD	n/a	wordpools/wordpool_EN.txt	FUDGE	11.0	6	n/a	n/a	pyFR	1	TJ068
687.763	1.6	821739	WORD	n/a	wordpools/wordpool_EN.txt	SHIRT	12.0	6	n/a	n/a	pyFR	1	TJ068
690.399	1.6	824375	WORD	n/a	wordpools/wordpool_EN.txt	ARK	13.0	6	n/a	n/a	pyFR	1	TJ068
693.067	1.6	827043	WORD	n/a	wordpools/wordpool_EN.txt	LOCK	14.0	6	n/a	n/a	pyFR	1	TJ068
695.819	1.6	829795	WORD	n/a	wordpools/wordpool_EN.txt	MAZE	15.0	6	n/a	n/a	pyFR	1	TJ068
697.423	1.066	831399	START	n/a	n/a	n/a	n/a	6	[-999 -999 -999]	-999.0	pyFR	1	TJ068
698.489	4.486	832465	PROB	4.452	n/a	n/a	n/a	6	[1 9 8]	18.0	pyFR	1	TJ068
702.975	4.153	836950	PROB	4.118	n/a	n/a	n/a	6	[1 4 8]	13.0	pyFR	1	TJ068
707.128	3.854	841103	PROB	3.821	n/a	n/a	n/a	6	[2 5 9]	16.0	pyFR	1	TJ068
710.982	4.37	844957	PROB	4.335	n/a	n/a	n/a	6	[7 9 1]	17.0	pyFR	1	TJ068
715.352	5.845	849327	PROB	5.845	n/a	n/a	n/a	6	[8 6 1]	13.0	pyFR	1	TJ068
721.197	1.095	855172	STOP	n/a	n/a	n/a	n/a	6	[-999 -999 -999]	-999.0	pyFR	1	TJ068
722.292	1.211	856267	REC_START	n/a	n/a	n/a	-999.0	6	n/a	n/a	pyFR	1	TJ068
723.503	1.392	857478	REC_WORD	1.211	n/a	ARK	-999.0	6	n/a	n/a	pyFR	1	TJ068
724.895	1.306	858870	REC_WORD	2.603	n/a	BEACH	-999.0	6	n/a	n/a	pyFR	1	TJ068
726.201	6.204	860176	REC_WORD	3.909	n/a	SHIRT	-999.0	6	n/a	n/a	pyFR	1	TJ068
732.405	38.444	866380	REC_WORD	10.113	n/a	FUDGE	-999.0	6	n/a	n/a	pyFR	1	TJ068
770.849	0.016	904823	TRIAL	n/a	n/a	n/a	-999.0	7	n/a	n/a	pyFR	1	TJ068
770.865	1.6	904839	ORIENT	n/a	n/a	n/a	-999.0	7	n/a	n/a	pyFR	1	TJ068
773.752	1.6	907726	WORD	n/a	wordpools/wordpool_EN.txt	ROAD	1.0	7	n/a	n/a	pyFR	1	TJ068
776.237	1.6	910211	WORD	n/a	wordpools/wordpool_EN.txt	HORN	2.0	7	n/a	n/a	pyFR	1	TJ068
778.639	1.6	912613	WORD	n/a	wordpools/wordpool_EN.txt	CLOUD	3.0	7	n/a	n/a	pyFR	1	TJ068
781.459	1.6	915433	WORD	n/a	wordpools/wordpool_EN.txt	GATE	4.0	7	n/a	n/a	pyFR	1	TJ068
784.193	1.6	918167	WORD	n/a	wordpools/wordpool_EN.txt	LAND	5.0	7	n/a	n/a	pyFR	1	TJ068
786.979	1.6	920953	WORD	n/a	wordpools/wordpool_EN.txt	DRESS	6.0	7	n/a	n/a	pyFR	1	TJ068
789.615	1.6	923589	WORD	n/a	wordpools/wordpool_EN.txt	TAIL	7.0	7	n/a	n/a	pyFR	1	TJ068
792.133	1.6	926107	WORD	n/a	wordpools/wordpool_EN.txt	HORSE	8.0	7	n/a	n/a	pyFR	1	TJ068
794.786	1.6	928760	WORD	n/a	wordpools/wordpool_EN.txt	CLIFF	9.0	7	n/a	n/a	pyFR	1	TJ068
797.572	1.6	931546	WORD	n/a	wordpools/wordpool_EN.txt	CLOTH	10.0	7	n/a	n/a	pyFR	1	TJ068
800.207	1.6	934181	WORD	n/a	wordpools/wordpool_EN.txt	DAD	11.0	7	n/a	n/a	pyFR	1	TJ068
802.776	1.6	936750	WORD	n/a	wordpools/wordpool_EN.txt	CAVE	12.0	7	n/a	n/a	pyFR	1	TJ068
805.479	1.6	939453	WORD	n/a	wordpools/wordpool_EN.txt	JUICE	13.0	7	n/a	n/a	pyFR	1	TJ068
808.08	1.6	942054	WORD	n/a	wordpools/wordpool_EN.txt	WHEEL	14.0	7	n/a	n/a	pyFR	1	TJ068
810.783	1.6	944757	WORD	n/a	wordpools/wordpool_EN.txt	RAT	15.0	7	n/a	n/a	pyFR	1	TJ068
812.386	0.898	946360	START	n/a	n/a	n/a	n/a	7	[-999 -999 -999]	-999.0	pyFR	1	TJ068
813.284	6.039	947258	PROB	6.017	n/a	n/a	n/a	7	[3 4 7]	14.0	pyFR	1	TJ068
819.323	6.089	953297	PROB	6.067	n/a	n/a	n/a	7	[2 5 1]	8.0	pyFR	1	TJ068
825.412	4.054	959386	PROB	4.026	n/a	n/a	n/a	7	[1 7 6]	14.0	pyFR	1	TJ068
829.466	4.012	963440	PROB	4.012	n/a	n/a	n/a	7	[2 8 1]	11.0	pyFR	1	TJ068
833.478	1.159	967451	STOP	n/a	n/a	n/a	n/a	7	[-999 -999 -999]	-999.0	pyFR	1	TJ068
834.637	1.547	968610	REC_START	n/a	n/a	n/a	-999.0	7	n/a	n/a	pyFR	1	TJ068
836.184	1.637	970157	REC_WORD	1.547	n/a	CAVE	-999.0	7	n/a	n/a	pyFR	1	TJ068
837.821	5.241	971794	REC_WORD	3.184	n/a	DAD	-999.0	7	n/a	n/a	pyFR	1	TJ068
843.062	8.055	977035	REC_WORD	8.425	n/a	TAIL	-999.0	7	n/a	n/a	pyFR	1	TJ068
851.117	6.791	985090	REC_WORD	16.48	n/a	LAND	-999.0	7	n/a	n/a	pyFR	1	TJ068
857.908	9.044	991881	REC_WORD	23.271	n/a	END	-999.0	7	n/a	n/a	pyFR	1	TJ068
866.952	20.83	1000925	REC_WORD	32.315	n/a	ROAD	-999.0	7	n/a	n/a	pyFR	1	TJ068
887.782	0.016	1021755	TRIAL	n/a	n/a	n/a	-999.0	8	n/a	n/a	pyFR	1	TJ068
887.798	1.6	1021771	ORIENT	n/a	n/a	n/a	-999.0	8	n/a	n/a	pyFR	1	TJ068
890.684	1.6	1024657	WORD	n/a	wordpools/wordpool_EN.txt	PANTS	1.0	8	n/a	n/a	pyFR	1	TJ068
893.436	1.6	1027409	WORD	n/a	wordpools/wordpool_EN.txt	PARK	2.0	8	n/a	n/a	pyFR	1	TJ068
896.07	1.6	1030043	WORD	n/a	wordpools/wordpool_EN.txt	AXE	3.0	8	n/a	n/a	pyFR	1	TJ068
898.59	1.6	1032562	WORD	n/a	wordpools/wordpool_EN.txt	PURSE	4.0	8	n/a	n/a	pyFR	1	TJ068
901.175	1.6	1035147	WORD	n/a	wordpools/wordpool_EN.txt	BOOT	5.0	8	n/a	n/a	pyFR	1	TJ068
903.594	1.6	1037566	WORD	n/a	wordpools/wordpool_EN.txt	MUD	6.0	8	n/a	n/a	pyFR	1	TJ068
906.029	1.6	1040001	WORD	n/a	wordpools/wordpool_EN.txt	RICE	7.0	8	n/a	n/a	pyFR	1	TJ068
908.814	1.6	1042786	WORD	n/a	wordpools/wordpool_EN.txt	BALL	8.0	8	n/a	n/a	pyFR	1	TJ068
911.283	1.6	1045255	WORD	n/a	wordpools/wordpool_EN.txt	MAT	9.0	8	n/a	n/a	pyFR	1	TJ068
913.77	1.6	1047742	WORD	n/a	wordpools/wordpool_EN.txt	CHIEF	10.0	8	n/a	n/a	pyFR	1	TJ068
916.304	1.6	1050276	WORD	n/a	wordpools/wordpool_EN.txt	HAWK	11.0	8	n/a	n/a	pyFR	1	TJ068
919.09	1.6	1053062	WORD	n/a	wordpools/wordpool_EN.txt	MOON	12.0	8	n/a	n/a	pyFR	1	TJ068
921.842	1.6	1055814	WORD	n/a	wordpools/wordpool_EN.txt	MULE	13.0	8	n/a	n/a	pyFR	1	TJ068
924.327	1.6	1058299	WORD	n/a	wordpools/wordpool_EN.txt	PRINCE	14.0	8	n/a	n/a	pyFR	1	TJ068
927.096	1.6	1061068	WORD	n/a	wordpools/wordpool_EN.txt	KEY	15.0	8	n/a	n/a	pyFR	1	TJ068
928.7	0.933	1062672	START	n/a	n/a	n/a	n/a	8	[-999 -999 -999]	-999.0	pyFR	1	TJ068
929.633	4.871	1063605	PROB	4.837	n/a	n/a	n/a	8	[1 4 7]	13.0	pyFR	1	TJ068
934.504	5.67	1068476	PROB	5.645	n/a	n/a	n/a	8	[2 6 8]	16.0	pyFR	1	TJ068
940.174	5.138	1074146	PROB	5.103	n/a	n/a	n/a	8	[9 8 3]	20.0	pyFR	1	TJ068
945.312	3.677	1079284	PROB	3.677	n/a	n/a	n/a	8	[5 1 4]	10.0	pyFR	1	TJ068
948.989	1.161	1082961	STOP	n/a	n/a	n/a	n/a	8	[-999 -999 -999]	-999.0	pyFR	1	TJ068
950.15	1.952	1084122	REC_START	n/a	n/a	n/a	-999.0	8	n/a	n/a	pyFR	1	TJ068
952.102	0.911	1086074	REC_WORD	1.952	n/a	CHIEF	-999.0	8	n/a	n/a	pyFR	1	TJ068
953.013	1.465	1086985	REC_WORD	2.863	n/a	PRINCE	-999.0	8	n/a	n/a	pyFR	1	TJ068
954.478	2.422	1088450	REC_WORD	4.328	n/a	KEY	-999.0	8	n/a	n/a	pyFR	1	TJ068
956.9	6.271	1090872	REC_WORD	6.75	n/a	MAT	-999.0	8	n/a	n/a	pyFR	1	TJ068
963.171	35.119	1097142	REC_WORD	13.021	n/a	HAWK	-999.0	8	n/a	n/a	pyFR	1	TJ068
998.29	0.016	1132261	TRIAL	n/a	n/a	n/a	-999.0	9	n/a	n/a	pyFR	1	TJ068
998.306	1.6	1132277	ORIENT	n/a	n/a	n/a	-999.0	9	n/a	n/a	pyFR	1	TJ068
1000.975	1.6	1134946	WORD	n/a	wordpools/wordpool_EN.txt	OAK	1.0	9	n/a	n/a	pyFR	1	TJ068
1003.545	1.6	1137516	WORD	n/a	wordpools/wordpool_EN.txt	SHIELD	2.0	9	n/a	n/a	pyFR	1	TJ068
1006.129	1.6	1140100	WORD	n/a	wordpools/wordpool_EN.txt	TRAY	3.0	9	n/a	n/a	pyFR	1	TJ068
1008.683	1.6	1142654	WORD	n/a	wordpools/wordpool_EN.txt	VINE	4.0	9	n/a	n/a	pyFR	1	TJ068
1011.267	1.6	1145238	WORD	n/a	wordpools/wordpool_EN.txt	SKY	5.0	9	n/a	n/a	pyFR	1	TJ068
1013.969	1.6	1147940	WORD	n/a	wordpools/wordpool_EN.txt	MAP	6.0	9	n/a	n/a	pyFR	1	TJ068
1016.539	1.6	1150510	WORD	n/a	wordpools/wordpool_EN.txt	CART	7.0	9	n/a	n/a	pyFR	1	TJ068
1019.09	1.6	1153061	WORD	n/a	wordpools/wordpool_EN.txt	GLOVE	8.0	9	n/a	n/a	pyFR	1	TJ068
1021.543	1.6	1155514	WORD	n/a	wordpools/wordpool_EN.txt	CASH	9.0	9	n/a	n/a	pyFR	1	TJ068
1024.211	1.6	1158182	WORD	n/a	wordpools/wordpool_EN.txt	FLEA	10.0	9	n/a	n/a	pyFR	1	TJ068
1026.813	1.6	1160784	WORD	n/a	wordpools/wordpool_EN.txt	SOCK	11.0	9	n/a	n/a	pyFR	1	TJ068
1029.6	1.6	1163570	WORD	n/a	wordpools/wordpool_EN.txt	LEG	12.0	9	n/a	n/a	pyFR	1	TJ068
1032.351	1.6	1166321	WORD	n/a	wordpools/wordpool_EN.txt	JAR	13.0	9	n/a	n/a	pyFR	1	TJ068
1035.154	1.6	1169124	WORD	n/a	wordpools/wordpool_EN.txt	VAN	14.0	9	n/a	n/a	pyFR	1	TJ068
1037.939	1.6	1171909	WORD	n/a	wordpools/wordpool_EN.txt	EEL	15.0	9	n/a	n/a	pyFR	1	TJ068
1039.543	1.15	1173513	START	n/a	n/a	n/a	n/a	9	[-999 -999 -999]	-999.0	pyFR	1	TJ068
1040.693	6.839	1174663	PROB	6.809	n/a	n/a	n/a	9	[8 4 8]	20.0	pyFR	1	TJ068
1047.532	3.785	1181502	PROB	3.753	n/a	n/a	n/a	9	[7 5 9]	22.0	pyFR	1	TJ068
1051.317	9.56	1185287	PROB	9.56	n/a	n/a	n/a	9	[9 5 7]	23.0	pyFR	1	TJ068
1060.877	1.2	1194847	STOP	n/a	n/a	n/a	n/a	9	[-999 -999 -999]	-999.0	pyFR	1	TJ068
1062.077	5.389	1196047	REC_START	n/a	n/a	n/a	-999.0	9	n/a	n/a	pyFR	1	TJ068
1067.466	2.238	1201436	REC_WORD	5.389	n/a	CART	-999.0	9	n/a	n/a	pyFR	1	TJ068
1069.704	1.307	1203674	REC_WORD	7.627	n/a	MAN	-999.0	9	n/a	n/a	pyFR	1	TJ068
1071.011	5.138	1204981	REC_WORD	8.934	n/a	GLOVE	-999.0	9	n/a	n/a	pyFR	1	TJ068
1076.149	33.502	1210119	REC_WORD	14.072	n/a	EEL	-999.0	9	n/a	n/a	pyFR	1	TJ068
1109.651	0.016	1243620	TRIAL	n/a	n/a	n/a	-999.0	10	n/a	n/a	pyFR	1	TJ068
1109.667	1.6	1243636	ORIENT	n/a	n/a	n/a	-999.0	10	n/a	n/a	pyFR	1	TJ068
1112.636	1.6	1246605	WORD	n/a	wordpools/wordpool_EN.txt	STRING	1.0	10	n/a	n/a	pyFR	1	TJ068
1115.138	1.6	1249107	WORD	n/a	wordpools/wordpool_EN.txt	PLANE	2.0	10	n/a	n/a	pyFR	1	TJ068
1117.707	1.6	1251676	WORD	n/a	wordpools/wordpool_EN.txt	BANK	3.0	10	n/a	n/a	pyFR	1	TJ068
1120.41	1.6	1254379	WORD	n/a	wordpools/wordpool_EN.txt	OAR	4.0	10	n/a	n/a	pyFR	1	TJ068
1122.961	1.6	1256930	WORD	n/a	wordpools/wordpool_EN.txt	NET	5.0	10	n/a	n/a	pyFR	1	TJ068
1125.564	1.6	1259533	WORD	n/a	wordpools/wordpool_EN.txt	DEER	6.0	10	n/a	n/a	pyFR	1	TJ068
1128.098	1.6	1262067	WORD	n/a	wordpools/wordpool_EN.txt	STORM	7.0	10	n/a	n/a	pyFR	1	TJ068
1130.535	1.6	1264504	WORD	n/a	wordpools/wordpool_EN.txt	MILK	8.0	10	n/a	n/a	pyFR	1	TJ068
1133.119	1.6	1267088	WORD	n/a	wordpools/wordpool_EN.txt	FLOOR	9.0	10	n/a	n/a	pyFR	1	TJ068
1135.639	1.6	1269608	WORD	n/a	wordpools/wordpool_EN.txt	PASTE	10.0	10	n/a	n/a	pyFR	1	TJ068
1138.207	1.6	1272176	WORD	n/a	wordpools/wordpool_EN.txt	SEAT	11.0	10	n/a	n/a	pyFR	1	TJ068
1140.76	1.6	1274729	WORD	n/a	wordpools/wordpool_EN.txt	CAPE	12.0	10	n/a	n/a	pyFR	1	TJ068
1143.529	1.6	1277498	WORD	n/a	wordpools/wordpool_EN.txt	SUN	13.0	10	n/a	n/a	pyFR	1	TJ068
1146.314	1.6	1280283	WORD	n/a	wordpools/wordpool_EN.txt	RUG	14.0	10	n/a	n/a	pyFR	1	TJ068
1148.933	1.6	1282902	WORD	n/a	wordpools/wordpool_EN.txt	SHIP	15.0	10	n/a	n/a	pyFR	1	TJ068
1150.536	1.133	1284505	START	n/a	n/a	n/a	n/a	10	[-999 -999 -999]	-999.0	pyFR	1	TJ068
1151.669	4.087	1285638	PROB	4.057	n/a	n/a	n/a	10	[2 6 4]	12.0	pyFR	1	TJ068
1155.756	5.387	1289725	PROB	5.353	n/a	n/a	n/a	10	[1 6 3]	10.0	pyFR	1	TJ068
1161.143	5.472	1295111	PROB	5.445	n/a	n/a	n/a	10	[6 8 9]	23.0	pyFR	1	TJ068
1166.615	3.803	1300583	PROB	3.783	n/a	n/a	n/a	10	[1 4 8]	13.0	pyFR	1	TJ068
1170.418	3.883	1304386	PROB	3.883	n/a	n/a	n/a	10	[1 6 6]	13.0	pyFR	1	TJ068
1174.301	1.222	1308269	STOP	n/a	n/a	n/a	n/a	10	[-999 -999 -999]	-999.0	pyFR	1	TJ068
1175.523	2.266	1309491	REC_START	n/a	n/a	n/a	-999.0	10	n/a	n/a	pyFR	1	TJ068
1177.789	0.718	1311757	REC_WORD	2.266	n/a	PASTE	-999.0	10	n/a	n/a	pyFR	1	TJ068
1178.507	6.562	1312475	REC_WORD	2.984	n/a	RUG	-999.0	10	n/a	n/a	pyFR	1	TJ068
1185.069	38.444	1319037	REC_WORD	9.546	n/a	OAR	-999.0	10	n/a	n/a	pyFR	1	TJ068
1223.513	0.017	1357481	TRIAL	n/a	n/a	n/a	-999.0	11	n/a	n/a	pyFR	1	TJ068
1223.53	1.6	1357498	ORIENT	n/a	n/a	n/a	-999.0	11	n/a	n/a	pyFR	1	TJ068
1226.364	1.6	1360331	WORD	n/a	wordpools/wordpool_EN.txt	ROCK	1.0	11	n/a	n/a	pyFR	1	TJ068
1229.167	1.6	1363134	WORD	n/a	wordpools/wordpool_EN.txt	FROG	2.0	11	n/a	n/a	pyFR	1	TJ068
1231.936	1.6	1365903	WORD	n/a	wordpools/wordpool_EN.txt	TOY	3.0	11	n/a	n/a	pyFR	1	TJ068
1234.555	1.6	1368522	WORD	n/a	wordpools/wordpool_EN.txt	ROOM	4.0	11	n/a	n/a	pyFR	1	TJ068
1237.323	1.6	1371290	WORD	n/a	wordpools/wordpool_EN.txt	SNOW	5.0	11	n/a	n/a	pyFR	1	TJ068
1240.026	1.6	1373993	WORD	n/a	wordpools/wordpool_EN.txt	SWAMP	6.0	11	n/a	n/a	pyFR	1	TJ068
1242.579	1.6	1376546	WORD	n/a	wordpools/wordpool_EN.txt	TOE	7.0	11	n/a	n/a	pyFR	1	TJ068
1245.263	1.6	1379230	WORD	n/a	wordpools/wordpool_EN.txt	ROOT	8.0	11	n/a	n/a	pyFR	1	TJ068
1247.767	1.6	1381734	WORD	n/a	wordpools/wordpool_EN.txt	TANK	9.0	11	n/a	n/a	pyFR	1	TJ068
1250.385	1.6	1384352	WORD	n/a	wordpools/wordpool_EN.txt	MOTH	10.0	11	n/a	n/a	pyFR	1	TJ068
1253.137	1.6	1387104	WORD	n/a	wordpools/wordpool_EN.txt	THUMB	11.0	11	n/a	n/a	pyFR	1	TJ068
1255.573	1.6	1389540	WORD	n/a	wordpools/wordpool_EN.txt	DOG	12.0	11	n/a	n/a	pyFR	1	TJ068
1258.124	1.6	1392091	WORD	n/a	wordpools/wordpool_EN.txt	SMOKE	13.0	11	n/a	n/a	pyFR	1	TJ068
1260.777	1.6	1394744	WORD	n/a	wordpools/wordpool_EN.txt	PIG	14.0	11	n/a	n/a	pyFR	1	TJ068
1263.228	1.6	1397195	WORD	n/a	wordpools/wordpool_EN.txt	FILM	15.0	11	n/a	n/a	pyFR	1	TJ068
1264.831	0.983	1398798	START	n/a	n/a	n/a	n/a	11	[-999 -999 -999]	-999.0	pyFR	1	TJ068
1265.814	3.821	1399781	PROB	3.8	n/a	n/a	n/a	11	[1 4 6]	11.0	pyFR	1	TJ068
1269.635	4.269	1403602	PROB	4.242	n/a	n/a	n/a	11	[9 6 2]	17.0	pyFR	1	TJ068
1273.904	4.17	1407871	PROB	4.149	n/a	n/a	n/a	11	[2 1 9]	12.0	pyFR	1	TJ068
1278.074	5.556	1412041	PROB	5.524	n/a	n/a	n/a	11	[2 9 5]	16.0	pyFR	1	TJ068
1283.63	4.104	1417597	PROB	4.104	n/a	n/a	n/a	11	[4 6 8]	18.0	pyFR	1	TJ068
1287.734	1.183	1421701	STOP	n/a	n/a	n/a	n/a	11	[-999 -999 -999]	-999.0	pyFR	1	TJ068
1288.917	1.086	1422884	REC_START	n/a	n/a	n/a	-999.0	11	n/a	n/a	pyFR	1	TJ068
1290.003	0.992	1423970	REC_WORD	1.086	n/a	SWAMP	-999.0	11	n/a	n/a	pyFR	1	TJ068
1290.995	3.054	1424961	REC_WORD	2.078	n/a	THUMB	-999.0	11	n/a	n/a	pyFR	1	TJ068
1294.049	8.684	1428015	REC_WORD	5.132	n/a	TOE	-999.0	11	n/a	n/a	pyFR	1	TJ068
1302.733	9.259	1436699	REC_WORD	13.816	n/a	DOG	-999.0	11	n/a	n/a	pyFR	1	TJ068
1311.992	24.65	1445958	REC_WORD	23.075	n/a	ROCK	-999.0	11	n/a	n/a	pyFR	1	TJ068
1336.642	0.016	1470608	TRIAL	n/a	n/a	n/a	-999.0	12	n/a	n/a	pyFR	1	TJ068
1336.658	1.6	1470624	ORIENT	n/a	n/a	n/a	-999.0	12	n/a	n/a	pyFR	1	TJ068
1339.527	1.6	1473493	WORD	n/a	wordpools/wordpool_EN.txt	SOAP	1.0	12	n/a	n/a	pyFR	1	TJ068
1342.312	1.6	1476278	WORD	n/a	wordpools/wordpool_EN.txt	LIP	2.0	12	n/a	n/a	pyFR	1	TJ068
1344.964	1.6	1478930	WORD	n/a	wordpools/wordpool_EN.txt	TRUCK	3.0	12	n/a	n/a	pyFR	1	TJ068
1347.634	1.6	1481600	WORD	n/a	wordpools/wordpool_EN.txt	SEED	4.0	12	n/a	n/a	pyFR	1	TJ068
1350.118	1.6	1484084	WORD	n/a	wordpools/wordpool_EN.txt	MUG	5.0	12	n/a	n/a	pyFR	1	TJ068
1352.655	1.6	1486621	WORD	n/a	wordpools/wordpool_EN.txt	WEB	6.0	12	n/a	n/a	pyFR	1	TJ068
1355.339	1.6	1489305	WORD	n/a	wordpools/wordpool_EN.txt	CHIN	7.0	12	n/a	n/a	pyFR	1	TJ068
1358.141	1.6	1492106	WORD	n/a	wordpools/wordpool_EN.txt	WAND	8.0	12	n/a	n/a	pyFR	1	TJ068
1360.645	1.6	1494610	WORD	n/a	wordpools/wordpool_EN.txt	PEN	9.0	12	n/a	n/a	pyFR	1	TJ068
1363.112	1.6	1497077	WORD	n/a	wordpools/wordpool_EN.txt	STOVE	10.0	12	n/a	n/a	pyFR	1	TJ068
1365.699	1.6	1499664	WORD	n/a	wordpools/wordpool_EN.txt	CAKE	11.0	12	n/a	n/a	pyFR	1	TJ068
1368.401	1.6	1502366	WORD	n/a	wordpools/wordpool_EN.txt	BRIDGE	12.0	12	n/a	n/a	pyFR	1	TJ068
1371.002	1.6	1504967	WORD	n/a	wordpools/wordpool_EN.txt	GOAT	13.0	12	n/a	n/a	pyFR	1	TJ068
1373.605	1.6	1507570	WORD	n/a	wordpools/wordpool_EN.txt	ZOO	14.0	12	n/a	n/a	pyFR	1	TJ068
1376.34	1.6	1510305	WORD	n/a	wordpools/wordpool_EN.txt	CAT	15.0	12	n/a	n/a	pyFR	1	TJ068
1377.943	0.899	1511908	START	n/a	n/a	n/a	n/a	12	[-999 -999 -999]	-999.0	pyFR	1	TJ068
1378.842	4.922	1512807	PROB	4.892	n/a	n/a	n/a	12	[6 9 4]	19.0	pyFR	1	TJ068
1383.764	5.203	1517729	PROB	5.178	n/a	n/a	n/a	12	[4 3 3]	10.0	pyFR	1	TJ068
1388.967	4.555	1522932	PROB	4.527	n/a	n/a	n/a	12	[3 9 3]	15.0	pyFR	1	TJ068
1393.522	4.555	1527487	PROB	4.555	n/a	n/a	n/a	12	[3 4 4]	11.0	pyFR	1	TJ068
1398.077	1.05	1532042	STOP	n/a	n/a	n/a	n/a	12	[-999 -999 -999]	-999.0	pyFR	1	TJ068
1399.127	2.563	1533092	REC_START	n/a	n/a	n/a	-999.0	12	n/a	n/a	pyFR	1	TJ068
1401.69	1.413	1535655	REC_WORD	2.563	n/a	GOAT	-999.0	12	n/a	n/a	pyFR	1	TJ068
1403.103	2.154	1537068	REC_WORD	3.976	n/a	CAT	-999.0	12	n/a	n/a	pyFR	1	TJ068
1405.257	6.288	1539222	REC_WORD	6.13	n/a	ZOO	-999.0	12	n/a	n/a	pyFR	1	TJ068
1411.545	15.638	1545510	REC_WORD	12.418	n/a	SOAP	-999.0	12	n/a	n/a	pyFR	1	TJ068
1427.183	10.934	1561147	REC_WORD	28.056	n/a	CHIN	-999.0	12	n/a	n/a	pyFR	1	TJ068
1438.117	2.964	1572081	REC_WORD	38.99	n/a	MUG	-999.0	12	n/a	n/a	pyFR	1	TJ068
1441.081	1.08	1575045	REC_WORD	41.954	n/a	INTERNET	-999.0	12	n/a	n/a	pyFR	1	TJ068
1442.161	4.473	1576125	REC_WORD	43.034	n/a	WEB	-999.0	12	n/a	n/a	pyFR	1	TJ068
1446.634	0.016	1580598	TRIAL	n/a	n/a	n/a	-999.0	13	n/a	n/a	pyFR	1	TJ068
1446.65	1.6	1580614	ORIENT	n/a	n/a	n/a	-999.0	13	n/a	n/a	pyFR	1	TJ068
1449.436	1.6	1583400	WORD	n/a	wordpools/wordpool_EN.txt	FOAM	1.0	13	n/a	n/a	pyFR	1	TJ068
1451.903	1.6	1585867	WORD	n/a	wordpools/wordpool_EN.txt	MOUTH	2.0	13	n/a	n/a	pyFR	1	TJ068
1454.407	1.6	1588371	WORD	n/a	wordpools/wordpool_EN.txt	DOOR	3.0	13	n/a	n/a	pyFR	1	TJ068
1457.191	1.6	1591155	WORD	n/a	wordpools/wordpool_EN.txt	COW	4.0	13	n/a	n/a	pyFR	1	TJ068
1459.811	1.6	1593775	WORD	n/a	wordpools/wordpool_EN.txt	BEAN	5.0	13	n/a	n/a	pyFR	1	TJ068
1462.296	1.6	1596260	WORD	n/a	wordpools/wordpool_EN.txt	HOOF	6.0	13	n/a	n/a	pyFR	1	TJ068
1465.048	1.6	1599012	WORD	n/a	wordpools/wordpool_EN.txt	DOCK	7.0	13	n/a	n/a	pyFR	1	TJ068
1467.801	1.6	1601765	WORD	n/a	wordpools/wordpool_EN.txt	WORLD	8.0	13	n/a	n/a	pyFR	1	TJ068
1470.52	1.6	1604484	WORD	n/a	wordpools/wordpool_EN.txt	GLASS	9.0	13	n/a	n/a	pyFR	1	TJ068
1473.171	1.6	1607135	WORD	n/a	wordpools/wordpool_EN.txt	BRANCH	10.0	13	n/a	n/a	pyFR	1	TJ068
1475.84	1.6	1609804	WORD	n/a	wordpools/wordpool_EN.txt	SLEEVE	11.0	13	n/a	n/a	pyFR	1	TJ068
1478.56	1.6	1612524	WORD	n/a	wordpools/wordpool_EN.txt	LEAF	12.0	13	n/a	n/a	pyFR	1	TJ068
1481.028	1.6	1614992	WORD	n/a	wordpools/wordpool_EN.txt	BEAR	13.0	13	n/a	n/a	pyFR	1	TJ068
1483.481	1.6	1617445	WORD	n/a	wordpools/wordpool_EN.txt	MOOSE	14.0	13	n/a	n/a	pyFR	1	TJ068
1485.915	1.6	1619879	WORD	n/a	wordpools/wordpool_EN.txt	CANE	15.0	13	n/a	n/a	pyFR	1	TJ068
1487.519	1.066	1621482	START	n/a	n/a	n/a	n/a	13	[-999 -999 -999]	-999.0	pyFR	1	TJ068
1488.585	4.104	1622548	PROB	4.069	n/a	n/a	n/a	13	[9 8 1]	18.0	pyFR	1	TJ068
1492.689	3.97	1626652	PROB	3.941	n/a	n/a	n/a	13	[5 6 2]	13.0	pyFR	1	TJ068
1496.659	4.185	1630622	PROB	4.154	n/a	n/a	n/a	13	[9 9 6]	24.0	pyFR	1	TJ068
1500.844	4.822	1634807	PROB	4.802	n/a	n/a	n/a	13	[9 9 2]	20.0	pyFR	1	TJ068
1505.666	5.044	1639629	PROB	5.044	n/a	n/a	n/a	13	[7 6 6]	19.0	pyFR	1	TJ068
1510.71	1.029	1644673	STOP	n/a	n/a	n/a	n/a	13	[-999 -999 -999]	-999.0	pyFR	1	TJ068
1511.739	1.147	1645702	REC_START	n/a	n/a	n/a	-999.0	13	n/a	n/a	pyFR	1	TJ068
1512.886	0.761	1646849	REC_WORD	1.147	n/a	WORLD	-999.0	13	n/a	n/a	pyFR	1	TJ068
1513.647	1.813	1647610	REC_WORD	1.908	n/a	GLASS	-999.0	13	n/a	n/a	pyFR	1	TJ068
1515.46	25.107	1649423	REC_WORD	3.721	n/a	BRANCH	-999.0	13	n/a	n/a	pyFR	1	TJ068
1540.567	19.179	1674530	REC_WORD	28.828	n/a	SLEEVE	-999.0	13	n/a	n/a	pyFR	1	TJ068
1559.746	0.016	1693708	TRIAL	n/a	n/a	n/a	-999.0	14	n/a	n/a	pyFR	1	TJ068
1559.762	1.6	1693724	ORIENT	n/a	n/a	n/a	-999.0	14	n/a	n/a	pyFR	1	TJ068
1562.614	1.6	1696576	WORD	n/a	wordpools/wordpool_EN.txt	RAIN	1.0	14	n/a	n/a	pyFR	1	TJ068
1565.232	1.6	1699194	WORD	n/a	wordpools/wordpool_EN.txt	PHONE	2.0	14	n/a	n/a	pyFR	1	TJ068
1568.034	1.6	1701996	WORD	n/a	wordpools/wordpool_EN.txt	BOAT	3.0	14	n/a	n/a	pyFR	1	TJ068
1570.587	1.6	1704549	WORD	n/a	wordpools/wordpool_EN.txt	YARD	4.0	14	n/a	n/a	pyFR	1	TJ068
1573.055	1.6	1707017	WORD	n/a	wordpools/wordpool_EN.txt	RIB	5.0	14	n/a	n/a	pyFR	1	TJ068
1575.642	1.6	1709604	WORD	n/a	wordpools/wordpool_EN.txt	SALT	6.0	14	n/a	n/a	pyFR	1	TJ068
1578.461	1.6	1712423	WORD	n/a	wordpools/wordpool_EN.txt	CUP	7.0	14	n/a	n/a	pyFR	1	TJ068
1581.112	1.6	1715074	WORD	n/a	wordpools/wordpool_EN.txt	EAR	8.0	14	n/a	n/a	pyFR	1	TJ068
1583.665	1.6	1717627	WORD	n/a	wordpools/wordpool_EN.txt	INK	9.0	14	n/a	n/a	pyFR	1	TJ068
1586.183	1.6	1720145	WORD	n/a	wordpools/wordpool_EN.txt	TOOTH	10.0	14	n/a	n/a	pyFR	1	TJ068
1588.669	1.6	1722631	WORD	n/a	wordpools/wordpool_EN.txt	PIT	11.0	14	n/a	n/a	pyFR	1	TJ068
1591.254	1.6	1725216	WORD	n/a	wordpools/wordpool_EN.txt	COUCH	12.0	14	n/a	n/a	pyFR	1	TJ068
1593.939	1.6	1727901	WORD	n/a	wordpools/wordpool_EN.txt	SHEEP	13.0	14	n/a	n/a	pyFR	1	TJ068
1596.693	1.6	1730655	WORD	n/a	wordpools/wordpool_EN.txt	SWORD	14.0	14	n/a	n/a	pyFR	1	TJ068
1599.512	1.6	1733474	WORD	n/a	wordpools/wordpool_EN.txt	FLUTE	15.0	14	n/a	n/a	pyFR	1	TJ068
1601.13	1.033	1735092	START	n/a	n/a	n/a	n/a	14	[-999 -999 -999]	-999.0	pyFR	1	TJ068
1602.163	3.354	1736125	PROB	3.323	n/a	n/a	n/a	14	[3 4 2]	9.0	pyFR	1	TJ068
1605.517	4.003	1739479	PROB	3.969	n/a	n/a	n/a	14	[1 3 5]	9.0	pyFR	1	TJ068
1609.52	6.855	1743482	PROB	6.829	n/a	n/a	n/a	14	[7 5 9]	21.0	pyFR	1	TJ068
1616.375	5.67	1750337	PROB	5.67	n/a	n/a	n/a	14	[5 6 8]	19.0	pyFR	1	TJ068
1622.045	1.136	1756006	STOP	n/a	n/a	n/a	n/a	14	[-999 -999 -999]	-999.0	pyFR	1	TJ068
1623.181	6.563	1757142	REC_START	n/a	n/a	n/a	-999.0	14	n/a	n/a	pyFR	1	TJ068
1629.744	2.215	1763705	REC_WORD	6.563	n/a	CUP	-999.0	14	n/a	n/a	pyFR	1	TJ068
1631.959	10.786	1765920	REC_WORD	8.778	n/a	PHONE	-999.0	14	n/a	n/a	pyFR	1	TJ068
1642.745	3.163	1776706	REC_WORD	19.564	n/a	SWORD	-999.0	14	n/a	n/a	pyFR	1	TJ068
1645.908	10.02	1779869	REC_WORD	22.727	n/a	SHEEP	-999.0	14	n/a	n/a	pyFR	1	TJ068
1655.928	6.32	1789889	REC_WORD	32.747	n/a	EAR	-999.0	14	n/a	n/a	pyFR	1	TJ068
1662.248	8.673	1796209	REC_WORD	39.067	n/a	TOOTH	-999.0	14	n/a	n/a	pyFR	1	TJ068
1670.921	0.016	1804882	TRIAL	n/a	n/a	n/a	-999.0	15	n/a	n/a	pyFR	1	TJ068
1670.937	1.6	1804898	ORIENT	n/a	n/a	n/a	-999.0	15	n/a	n/a	pyFR	1	TJ068
1673.724	1.6	1807685	WORD	n/a	wordpools/wordpool_EN.txt	STREET	1.0	15	n/a	n/a	pyFR	1	TJ068
1676.375	1.6	1810336	WORD	n/a	wordpools/wordpool_EN.txt	JUDGE	2.0	15	n/a	n/a	pyFR	1	TJ068
1678.977	1.6	1812938	WORD	n/a	wordpools/wordpool_EN.txt	ROSE	3.0	15	n/a	n/a	pyFR	1	TJ068
1681.747	1.6	1815708	WORD	n/a	wordpools/wordpool_EN.txt	WOOD	4.0	15	n/a	n/a	pyFR	1	TJ068
1684.365	1.6	1818325	WORD	n/a	wordpools/wordpool_EN.txt	TOOL	5.0	15	n/a	n/a	pyFR	1	TJ068
1686.984	1.6	1820944	WORD	n/a	wordpools/wordpool_EN.txt	SPEAR	6.0	15	n/a	n/a	pyFR	1	TJ068
1689.471	1.6	1823431	WORD	n/a	wordpools/wordpool_EN.txt	POOL	7.0	15	n/a	n/a	pyFR	1	TJ068
1692.138	1.6	1826098	WORD	n/a	wordpools/wordpool_EN.txt	LAMP	8.0	15	n/a	n/a	pyFR	1	TJ068
1694.841	1.6	1828801	WORD	n/a	wordpools/wordpool_EN.txt	FARM	9.0	15	n/a	n/a	pyFR	1	TJ068
1697.627	1.6	1831587	WORD	n/a	wordpools/wordpool_EN.txt	BAND	10.0	15	n/a	n/a	pyFR	1	TJ068
1700.262	1.6	1834222	WORD	n/a	wordpools/wordpool_EN.txt	NOSE	11.0	15	n/a	n/a	pyFR	1	TJ068
1702.864	1.6	1836824	WORD	n/a	wordpools/wordpool_EN.txt	JAIL	12.0	15	n/a	n/a	pyFR	1	TJ068
1705.567	1.6	1839527	WORD	n/a	wordpools/wordpool_EN.txt	BIRD	13.0	15	n/a	n/a	pyFR	1	TJ068
1708.319	1.6	1842279	WORD	n/a	wordpools/wordpool_EN.txt	CAGE	14.0	15	n/a	n/a	pyFR	1	TJ068
1710.772	1.6	1844732	WORD	n/a	wordpools/wordpool_EN.txt	DESK	15.0	15	n/a	n/a	pyFR	1	TJ068
1712.391	1.083	1846351	START	n/a	n/a	n/a	n/a	15	[-999 -999 -999]	-999.0	pyFR	1	TJ068
1713.474	5.321	1847434	PROB	5.3	n/a	n/a	n/a	15	[8 8 4]	20.0	pyFR	1	TJ068
1718.795	4.053	1852755	PROB	4.026	n/a	n/a	n/a	15	[2 9 4]	15.0	pyFR	1	TJ068
1722.848	3.67	1856808	PROB	3.646	n/a	n/a	n/a	15	[7 3 3]	13.0	pyFR	1	TJ068
1726.518	4.553	1860478	PROB	4.519	n/a	n/a	n/a	15	[5 7 7]	19.0	pyFR	1	TJ068
1731.071	6.583	1865031	PROB	6.583	n/a	n/a	n/a	15	[9 3 9]	21.0	pyFR	1	TJ068
1737.654	1.025	1871614	STOP	n/a	n/a	n/a	n/a	15	[-999 -999 -999]	-999.0	pyFR	1	TJ068
1738.679	1.443	1872639	REC_START	n/a	n/a	n/a	-999.0	15	n/a	n/a	pyFR	1	TJ068
1740.122	1.335	1874082	REC_WORD	1.443	n/a	NOSE	-999.0	15	n/a	n/a	pyFR	1	TJ068
1741.457	1.381	1875417	REC_WORD	2.778	n/a	CAGE	-999.0	15	n/a	n/a	pyFR	1	TJ068
1742.838	43.163	1876798	REC_WORD	4.159	n/a	LAMP	-999.0	15	n/a	n/a	pyFR	1	TJ068
1786.001	0.016	1919960	TRIAL	n/a	n/a	n/a	-999.0	16	n/a	n/a	pyFR	1	TJ068
1786.017	1.6	1919976	ORIENT	n/a	n/a	n/a	-999.0	16	n/a	n/a	pyFR	1	TJ068
1789.003	1.6	1922962	WORD	n/a	wordpools/wordpool_EN.txt	SQUARE	1.0	16	n/a	n/a	pyFR	1	TJ068
1791.489	1.6	1925448	WORD	n/a	wordpools/wordpool_EN.txt	CUBE	2.0	16	n/a	n/a	pyFR	1	TJ068
1794.107	1.6	1928066	WORD	n/a	wordpools/wordpool_EN.txt	LAMB	3.0	16	n/a	n/a	pyFR	1	TJ068
1796.843	1.6	1930802	WORD	n/a	wordpools/wordpool_EN.txt	OWL	4.0	16	n/a	n/a	pyFR	1	TJ068
1799.295	1.6	1933254	WORD	n/a	wordpools/wordpool_EN.txt	CLAY	5.0	16	n/a	n/a	pyFR	1	TJ068
1801.964	1.6	1935923	WORD	n/a	wordpools/wordpool_EN.txt	WHALE	6.0	16	n/a	n/a	pyFR	1	TJ068
1804.4	1.6	1938359	WORD	n/a	wordpools/wordpool_EN.txt	STORE	7.0	16	n/a	n/a	pyFR	1	TJ068
1807.018	1.6	1940977	WORD	n/a	wordpools/wordpool_EN.txt	SHARK	8.0	16	n/a	n/a	pyFR	1	TJ068
1809.588	1.6	1943547	WORD	n/a	wordpools/wordpool_EN.txt	ROPE	9.0	16	n/a	n/a	pyFR	1	TJ068
1812.356	1.6	1946315	WORD	n/a	wordpools/wordpool_EN.txt	FRUIT	10.0	16	n/a	n/a	pyFR	1	TJ068
1815.075	1.6	1949033	WORD	n/a	wordpools/wordpool_EN.txt	POLE	11.0	16	n/a	n/a	pyFR	1	TJ068
1817.661	1.6	1951619	WORD	n/a	wordpools/wordpool_EN.txt	FOOD	12.0	16	n/a	n/a	pyFR	1	TJ068
1820.313	1.6	1954271	WORD	n/a	wordpools/wordpool_EN.txt	PEAR	13.0	16	n/a	n/a	pyFR	1	TJ068
1823.048	1.6	1957006	WORD	n/a	wordpools/wordpool_EN.txt	TOAST	14.0	16	n/a	n/a	pyFR	1	TJ068
1825.817	1.6	1959775	WORD	n/a	wordpools/wordpool_EN.txt	SAIL	15.0	16	n/a	n/a	pyFR	1	TJ068
1827.421	0.915	1961379	START	n/a	n/a	n/a	n/a	16	[-999 -999 -999]	-999.0	pyFR	1	TJ068
1828.336	5.205	1962294	PROB	5.182	n/a	n/a	n/a	16	[3 6 1]	10.0	pyFR	1	TJ068
1833.541	7.173	1967499	PROB	7.153	n/a	n/a	n/a	16	[7 4 1]	12.0	pyFR	1	TJ068
1840.714	3.385	1974672	PROB	3.355	n/a	n/a	n/a	16	[4 6 1]	11.0	pyFR	1	TJ068
1844.099	5.906	1978057	PROB	5.906	n/a	n/a	n/a	16	[6 3 3]	12.0	pyFR	1	TJ068
1850.005	1.234	1983963	STOP	n/a	n/a	n/a	n/a	16	[-999 -999 -999]	-999.0	pyFR	1	TJ068
1851.239	2.592	1985197	REC_START	n/a	n/a	n/a	-999.0	16	n/a	n/a	pyFR	1	TJ068
1853.831	1.698	1987789	REC_WORD	2.592	n/a	JAR	-999.0	16	n/a	n/a	pyFR	1	TJ068
1855.529	1.65	1989487	REC_WORD	4.29	n/a	CLAY	-999.0	16	n/a	n/a	pyFR	1	TJ068
1857.179	4.128	1991137	REC_WORD	5.94	n/a	OWL	-999.0	16	n/a	n/a	pyFR	1	TJ068
1861.307	3.301	1995265	REC_WORD	10.068	n/a	LAMB	-999.0	16	n/a	n/a	pyFR	1	TJ068
1864.608	12.835	1998566	REC_WORD	13.369	n/a	STORE	-999.0	16	n/a	n/a	pyFR	1	TJ068
1877.443	537.669	2011401	REC_WORD	26.204	n/a	CUBE	-999.0	16	n/a	n/a	pyFR	1	TJ068
2415.112	0.081	2549061	SESS_END	n/a	n/a	n/a	-999.0	16	n/a	n/a	pyFR	1	TJ068
2415.193	0.0	2549142	E	n/a	n/a	n/a	-999.0	16	n/a	n/a	pyFR	1	TJ068
