onset	duration	sample	trial_type	response_time	stim_file	item_name	serialpos	list	test	answer	experiment	session	subject
0.0	0.0	184298	B	n/a	n/a	n/a	-999.0	-999	n/a	n/a	pyFR	0	UP029
0.0	67.141	184298	SESS_START	n/a	n/a	n/a	-999.0	-999	n/a	n/a	pyFR	0	UP029
67.141	0.01	218676	START	n/a	n/a	n/a	n/a	0	[-999 -999 -999]	-999.0	pyFR	0	UP029
67.151	3.106	218681	PROB	3.077	n/a	n/a	n/a	0	[1 4 3]	8.0	pyFR	0	UP029
70.257	4.257	220272	PROB	4.228	n/a	n/a	n/a	0	[3 9 8]	20.0	pyFR	0	UP029
74.514	3.071	222451	PROB	3.042	n/a	n/a	n/a	0	[4 5 5]	14.0	pyFR	0	UP029
77.585	2.89	224024	PROB	2.867	n/a	n/a	n/a	0	[3 7 7]	17.0	pyFR	0	UP029
80.475	2.503	225504	PROB	2.464	n/a	n/a	n/a	0	[3 9 1]	13.0	pyFR	0	UP029
82.978	2.572	226785	PROB	2.539	n/a	n/a	n/a	0	[5 2 1]	8.0	pyFR	0	UP029
85.55	4.908	228102	PROB	4.878	n/a	n/a	n/a	0	[9 9 6]	24.0	pyFR	0	UP029
90.458	2.955	230615	PROB	2.93	n/a	n/a	n/a	0	[6 1 9]	16.0	pyFR	0	UP029
93.413	2.554	232128	PROB	2.526	n/a	n/a	n/a	0	[9 1 1]	11.0	pyFR	0	UP029
95.967	3.916	233436	PROB	3.916	n/a	n/a	n/a	0	[3 8 6]	17.0	pyFR	0	UP029
99.883	50.826	235441	STOP	n/a	n/a	n/a	n/a	0	[-999 -999 -999]	-999.0	pyFR	0	UP029
150.709	0.016	261465	TRIAL	n/a	n/a	n/a	-999.0	1	n/a	n/a	pyFR	0	UP029
150.725	1.6	261473	ORIENT	n/a	n/a	n/a	-999.0	1	n/a	n/a	pyFR	0	UP029
153.614	1.6	262953	WORD	n/a	wordpools/wordpool_EN.txt	SUIT	1.0	1	n/a	n/a	pyFR	0	UP029
156.135	1.6	264243	WORD	n/a	wordpools/wordpool_EN.txt	LAWN	2.0	1	n/a	n/a	pyFR	0	UP029
158.956	1.6	265688	WORD	n/a	wordpools/wordpool_EN.txt	DRUM	3.0	1	n/a	n/a	pyFR	0	UP029
161.545	1.6	267013	WORD	n/a	wordpools/wordpool_EN.txt	SQUARE	4.0	1	n/a	n/a	pyFR	0	UP029
164.014	1.6	268278	WORD	n/a	wordpools/wordpool_EN.txt	LAKE	5.0	1	n/a	n/a	pyFR	0	UP029
166.436	1.6	269518	WORD	n/a	wordpools/wordpool_EN.txt	STRING	6.0	1	n/a	n/a	pyFR	0	UP029
169.157	1.6	270911	WORD	n/a	wordpools/wordpool_EN.txt	HAND	7.0	1	n/a	n/a	pyFR	0	UP029
171.878	1.6	272304	WORD	n/a	wordpools/wordpool_EN.txt	SWORD	8.0	1	n/a	n/a	pyFR	0	UP029
174.366	1.6	273578	WORD	n/a	wordpools/wordpool_EN.txt	SHIELD	9.0	1	n/a	n/a	pyFR	0	UP029
176.953	1.6	274903	WORD	n/a	wordpools/wordpool_EN.txt	BAT	10.0	1	n/a	n/a	pyFR	0	UP029
179.574	1.6	276245	WORD	n/a	wordpools/wordpool_EN.txt	MUD	11.0	1	n/a	n/a	pyFR	0	UP029
182.364	1.6	277673	WORD	n/a	wordpools/wordpool_EN.txt	BROOM	12.0	1	n/a	n/a	pyFR	0	UP029
184.967	1.6	279006	WORD	n/a	wordpools/wordpool_EN.txt	CHIN	13.0	1	n/a	n/a	pyFR	0	UP029
187.555	1.6	280331	WORD	n/a	wordpools/wordpool_EN.txt	FROG	14.0	1	n/a	n/a	pyFR	0	UP029
190.31	1.6	281742	WORD	n/a	wordpools/wordpool_EN.txt	TRUCK	15.0	1	n/a	n/a	pyFR	0	UP029
191.929	1.201	282571	START	n/a	n/a	n/a	n/a	1	[-999 -999 -999]	-999.0	pyFR	0	UP029
193.13	2.939	283186	PROB	2.913	n/a	n/a	n/a	1	[8 2 7]	17.0	pyFR	0	UP029
196.069	2.019	284691	PROB	1.983	n/a	n/a	n/a	1	[1 4 1]	6.0	pyFR	0	UP029
198.088	3.273	285724	PROB	3.244	n/a	n/a	n/a	1	[3 6 3]	12.0	pyFR	0	UP029
201.361	2.754	287400	PROB	2.731	n/a	n/a	n/a	1	[6 5 3]	14.0	pyFR	0	UP029
204.115	2.938	288810	PROB	2.904	n/a	n/a	n/a	1	[7 2 3]	12.0	pyFR	0	UP029
207.053	2.972	290315	PROB	2.934	n/a	n/a	n/a	1	[9 9 7]	25.0	pyFR	0	UP029
210.025	2.299	291836	PROB	2.299	n/a	n/a	n/a	1	[8 1 9]	18.0	pyFR	0	UP029
212.324	1.059	293014	STOP	n/a	n/a	n/a	n/a	1	[-999 -999 -999]	-999.0	pyFR	0	UP029
213.383	1.807	293556	REC_START	n/a	n/a	n/a	-999.0	1	n/a	n/a	pyFR	0	UP029
215.19	0.768	294481	REC_WORD	1.807	n/a	LAWN	-999.0	1	n/a	n/a	pyFR	0	UP029
215.958	0.774	294874	REC_WORD	2.575	n/a	DRUM	-999.0	1	n/a	n/a	pyFR	0	UP029
216.732	2.332	295271	REC_WORD	3.349	n/a	TRUCK	-999.0	1	n/a	n/a	pyFR	0	UP029
219.064	1.544	296465	REC_WORD	5.681	n/a	FROG	-999.0	1	n/a	n/a	pyFR	0	UP029
220.608	20.522	297255	REC_WORD	7.225	n/a	LAKE	-999.0	1	n/a	n/a	pyFR	0	UP029
241.13	1.0	307763	REC_WORD_VV	27.747	n/a	<>	-999.0	1	n/a	n/a	pyFR	0	UP029
242.13	1.0	308275	REC_WORD_VV	28.747	n/a	<>	-999.0	1	n/a	n/a	pyFR	0	UP029
243.13	1.0	308787	REC_WORD_VV	29.747	n/a	<>	-999.0	1	n/a	n/a	pyFR	0	UP029
244.13	28.135	309299	REC_WORD_VV	30.747	n/a	<>	-999.0	1	n/a	n/a	pyFR	0	UP029
272.265	0.016	323705	TRIAL	n/a	n/a	n/a	-999.0	2	n/a	n/a	pyFR	0	UP029
272.281	1.6	323713	ORIENT	n/a	n/a	n/a	-999.0	2	n/a	n/a	pyFR	0	UP029
275.168	1.6	325191	WORD	n/a	wordpools/wordpool_EN.txt	TOAD	1.0	2	n/a	n/a	pyFR	0	UP029
277.689	1.6	326482	WORD	n/a	wordpools/wordpool_EN.txt	VINE	2.0	2	n/a	n/a	pyFR	0	UP029
280.395	1.6	327868	WORD	n/a	wordpools/wordpool_EN.txt	HORN	3.0	2	n/a	n/a	pyFR	0	UP029
283.015	1.6	329209	WORD	n/a	wordpools/wordpool_EN.txt	BED	4.0	2	n/a	n/a	pyFR	0	UP029
285.537	1.6	330500	WORD	n/a	wordpools/wordpool_EN.txt	CASH	5.0	2	n/a	n/a	pyFR	0	UP029
288.326	1.6	331929	WORD	n/a	wordpools/wordpool_EN.txt	HOOK	6.0	2	n/a	n/a	pyFR	0	UP029
291.012	1.6	333304	WORD	n/a	wordpools/wordpool_EN.txt	PEA	7.0	2	n/a	n/a	pyFR	0	UP029
293.75	1.6	334706	WORD	n/a	wordpools/wordpool_EN.txt	TEA	8.0	2	n/a	n/a	pyFR	0	UP029
296.272	1.6	335997	WORD	n/a	wordpools/wordpool_EN.txt	MOOSE	9.0	2	n/a	n/a	pyFR	0	UP029
298.841	1.6	337312	WORD	n/a	wordpools/wordpool_EN.txt	FENCE	10.0	2	n/a	n/a	pyFR	0	UP029
301.297	1.6	338570	WORD	n/a	wordpools/wordpool_EN.txt	CARD	11.0	2	n/a	n/a	pyFR	0	UP029
303.984	1.6	339946	WORD	n/a	wordpools/wordpool_EN.txt	SMILE	12.0	2	n/a	n/a	pyFR	0	UP029
306.705	1.6	341339	WORD	n/a	wordpools/wordpool_EN.txt	HAT	13.0	2	n/a	n/a	pyFR	0	UP029
309.344	1.6	342690	WORD	n/a	wordpools/wordpool_EN.txt	FRUIT	14.0	2	n/a	n/a	pyFR	0	UP029
311.83	1.6	343963	WORD	n/a	wordpools/wordpool_EN.txt	SKY	15.0	2	n/a	n/a	pyFR	0	UP029
313.434	0.951	344784	START	n/a	n/a	n/a	n/a	2	[-999 -999 -999]	-999.0	pyFR	0	UP029
314.385	2.939	345271	PROB	2.915	n/a	n/a	n/a	2	[3 4 5]	12.0	pyFR	0	UP029
317.324	2.036	346776	PROB	2.009	n/a	n/a	n/a	2	[7 7 7]	21.0	pyFR	0	UP029
319.36	5.008	347819	PROB	4.972	n/a	n/a	n/a	2	[3 8 4]	15.0	pyFR	0	UP029
324.368	2.337	350383	PROB	2.316	n/a	n/a	n/a	2	[1 7 8]	16.0	pyFR	0	UP029
326.705	1.92	351580	PROB	1.89	n/a	n/a	n/a	2	[1 4 1]	6.0	pyFR	0	UP029
328.625	3.405	352563	PROB	3.37	n/a	n/a	n/a	2	[2 7 8]	17.0	pyFR	0	UP029
332.03	3.207	354306	PROB	3.207	n/a	n/a	n/a	2	[8 4 2]	14.0	pyFR	0	UP029
335.237	1.153	355948	STOP	n/a	n/a	n/a	n/a	2	[-999 -999 -999]	-999.0	pyFR	0	UP029
336.39	1.602	356539	REC_START	n/a	n/a	n/a	-999.0	2	n/a	n/a	pyFR	0	UP029
337.992	0.724	357359	REC_WORD	1.602	n/a	TOAD	-999.0	2	n/a	n/a	pyFR	0	UP029
338.716	2.782	357729	REC_WORD	2.326	n/a	VINE	-999.0	2	n/a	n/a	pyFR	0	UP029
341.498	2.735	359154	REC_WORD	5.108	n/a	LAKE	-999.0	2	n/a	n/a	pyFR	0	UP029
344.233	13.951	360554	REC_WORD	7.843	n/a	HOOK	-999.0	2	n/a	n/a	pyFR	0	UP029
358.184	7.644	367698	REC_WORD	21.794	n/a	GROUND	-999.0	2	n/a	n/a	pyFR	0	UP029
365.828	1.412	371612	REC_WORD	29.438	n/a	SMILE	-999.0	2	n/a	n/a	pyFR	0	UP029
367.24	7.939	372334	REC_WORD	30.85	n/a	CARD	-999.0	2	n/a	n/a	pyFR	0	UP029
375.179	4.659	376399	REC_WORD	38.789	n/a	WRAP	-999.0	2	n/a	n/a	pyFR	0	UP029
379.838	6.017	378785	REC_WORD	43.448	n/a	TOAD	-999.0	2	n/a	n/a	pyFR	0	UP029
385.855	0.016	381866	TRIAL	n/a	n/a	n/a	-999.0	3	n/a	n/a	pyFR	0	UP029
385.871	1.6	381874	ORIENT	n/a	n/a	n/a	-999.0	3	n/a	n/a	pyFR	0	UP029
388.609	1.6	383276	WORD	n/a	wordpools/wordpool_EN.txt	TOY	1.0	3	n/a	n/a	pyFR	0	UP029
391.047	1.6	384524	WORD	n/a	wordpools/wordpool_EN.txt	KITE	2.0	3	n/a	n/a	pyFR	0	UP029
393.751	1.6	385909	WORD	n/a	wordpools/wordpool_EN.txt	WALL	3.0	3	n/a	n/a	pyFR	0	UP029
396.507	1.6	387320	WORD	n/a	wordpools/wordpool_EN.txt	CLOCK	4.0	3	n/a	n/a	pyFR	0	UP029
399.044	1.6	388619	WORD	n/a	wordpools/wordpool_EN.txt	FUDGE	5.0	3	n/a	n/a	pyFR	0	UP029
401.698	1.6	389978	WORD	n/a	wordpools/wordpool_EN.txt	SKUNK	6.0	3	n/a	n/a	pyFR	0	UP029
404.47	1.6	391397	WORD	n/a	wordpools/wordpool_EN.txt	APE	7.0	3	n/a	n/a	pyFR	0	UP029
406.923	1.6	392653	WORD	n/a	wordpools/wordpool_EN.txt	HILL	8.0	3	n/a	n/a	pyFR	0	UP029
409.362	1.6	393902	WORD	n/a	wordpools/wordpool_EN.txt	WEED	9.0	3	n/a	n/a	pyFR	0	UP029
412.132	1.6	395320	WORD	n/a	wordpools/wordpool_EN.txt	STORM	10.0	3	n/a	n/a	pyFR	0	UP029
414.904	1.6	396740	WORD	n/a	wordpools/wordpool_EN.txt	COAT	11.0	3	n/a	n/a	pyFR	0	UP029
417.675	1.6	398158	WORD	n/a	wordpools/wordpool_EN.txt	MOUTH	12.0	3	n/a	n/a	pyFR	0	UP029
420.28	1.6	399492	WORD	n/a	wordpools/wordpool_EN.txt	PLANT	13.0	3	n/a	n/a	pyFR	0	UP029
423.101	1.6	400937	WORD	n/a	wordpools/wordpool_EN.txt	BEAR	14.0	3	n/a	n/a	pyFR	0	UP029
425.755	1.6	402296	WORD	n/a	wordpools/wordpool_EN.txt	CANE	15.0	3	n/a	n/a	pyFR	0	UP029
427.36	0.967	403117	START	n/a	n/a	n/a	n/a	3	[-999 -999 -999]	-999.0	pyFR	0	UP029
428.327	3.188	403613	PROB	3.157	n/a	n/a	n/a	3	[2 9 6]	17.0	pyFR	0	UP029
431.515	4.574	405245	PROB	4.536	n/a	n/a	n/a	3	[6 8 8]	22.0	pyFR	0	UP029
436.089	2.255	407587	PROB	2.235	n/a	n/a	n/a	3	[8 2 5]	15.0	pyFR	0	UP029
438.344	3.538	408742	PROB	3.515	n/a	n/a	n/a	3	[9 5 2]	16.0	pyFR	0	UP029
441.882	2.688	410553	PROB	2.658	n/a	n/a	n/a	3	[1 1 4]	6.0	pyFR	0	UP029
444.57	1.704	411929	PROB	1.675	n/a	n/a	n/a	3	[4 2 1]	7.0	pyFR	0	UP029
446.274	3.242	412802	PROB	3.242	n/a	n/a	n/a	3	[6 8 8]	22.0	pyFR	0	UP029
449.516	1.132	414462	STOP	n/a	n/a	n/a	n/a	3	[-999 -999 -999]	-999.0	pyFR	0	UP029
450.648	11.307	415041	REC_START	n/a	n/a	n/a	-999.0	3	n/a	n/a	pyFR	0	UP029
461.955	5.634	420831	REC_WORD_VV	11.307	n/a	<>	-999.0	3	n/a	n/a	pyFR	0	UP029
467.589	20.145	423716	REC_WORD	16.941	n/a	ROOF	-999.0	3	n/a	n/a	pyFR	0	UP029
487.734	17.774	434030	REC_WORD	37.086	n/a	COAT	-999.0	3	n/a	n/a	pyFR	0	UP029
505.508	0.015	443131	TRIAL	n/a	n/a	n/a	-999.0	4	n/a	n/a	pyFR	0	UP029
505.523	1.6	443139	ORIENT	n/a	n/a	n/a	-999.0	4	n/a	n/a	pyFR	0	UP029
508.311	1.6	444566	WORD	n/a	wordpools/wordpool_EN.txt	SNAIL	1.0	4	n/a	n/a	pyFR	0	UP029
510.798	1.6	445840	WORD	n/a	wordpools/wordpool_EN.txt	CAVE	2.0	4	n/a	n/a	pyFR	0	UP029
513.287	1.6	447114	WORD	n/a	wordpools/wordpool_EN.txt	SPRING	3.0	4	n/a	n/a	pyFR	0	UP029
515.757	1.6	448379	WORD	n/a	wordpools/wordpool_EN.txt	RAKE	4.0	4	n/a	n/a	pyFR	0	UP029
518.228	1.6	449644	WORD	n/a	wordpools/wordpool_EN.txt	STEAK	5.0	4	n/a	n/a	pyFR	0	UP029
520.815	1.6	450969	WORD	n/a	wordpools/wordpool_EN.txt	PALM	6.0	4	n/a	n/a	pyFR	0	UP029
523.504	1.6	452346	WORD	n/a	wordpools/wordpool_EN.txt	POOL	7.0	4	n/a	n/a	pyFR	0	UP029
526.091	1.6	453670	WORD	n/a	wordpools/wordpool_EN.txt	PLATE	8.0	4	n/a	n/a	pyFR	0	UP029
528.611	1.6	454961	WORD	n/a	wordpools/wordpool_EN.txt	YARD	9.0	4	n/a	n/a	pyFR	0	UP029
531.334	1.6	456355	WORD	n/a	wordpools/wordpool_EN.txt	TRAIN	10.0	4	n/a	n/a	pyFR	0	UP029
533.887	1.6	457662	WORD	n/a	wordpools/wordpool_EN.txt	POND	11.0	4	n/a	n/a	pyFR	0	UP029
536.459	1.6	458979	WORD	n/a	wordpools/wordpool_EN.txt	MAIL	12.0	4	n/a	n/a	pyFR	0	UP029
539.23	1.6	460398	WORD	n/a	wordpools/wordpool_EN.txt	SIGN	13.0	4	n/a	n/a	pyFR	0	UP029
541.851	1.6	461740	WORD	n/a	wordpools/wordpool_EN.txt	DOOR	14.0	4	n/a	n/a	pyFR	0	UP029
544.672	1.6	463184	WORD	n/a	wordpools/wordpool_EN.txt	CLOWN	15.0	4	n/a	n/a	pyFR	0	UP029
546.277	1.084	464006	START	n/a	n/a	n/a	n/a	4	[-999 -999 -999]	-999.0	pyFR	0	UP029
547.361	3.237	464561	PROB	3.211	n/a	n/a	n/a	4	[4 2 3]	9.0	pyFR	0	UP029
550.598	2.438	466218	PROB	2.406	n/a	n/a	n/a	4	[2 5 3]	10.0	pyFR	0	UP029
553.036	2.421	467467	PROB	2.385	n/a	n/a	n/a	4	[3 5 7]	15.0	pyFR	0	UP029
555.457	3.072	468706	PROB	3.043	n/a	n/a	n/a	4	[6 8 2]	16.0	pyFR	0	UP029
558.529	6.795	470279	PROB	6.763	n/a	n/a	n/a	4	[7 9 6]	22.0	pyFR	0	UP029
565.324	3.352	473759	PROB	3.352	n/a	n/a	n/a	4	[5 4 5]	19.0	pyFR	0	UP029
568.676	1.139	475475	STOP	n/a	n/a	n/a	n/a	4	[-999 -999 -999]	-999.0	pyFR	0	UP029
569.815	6.967	476058	REC_START	n/a	n/a	n/a	-999.0	4	n/a	n/a	pyFR	0	UP029
576.782	1.274	479625	REC_WORD	6.967	n/a	PLANT	-999.0	4	n/a	n/a	pyFR	0	UP029
578.056	6.304	480278	REC_WORD	8.241	n/a	POOL	-999.0	4	n/a	n/a	pyFR	0	UP029
584.36	15.528	483505	REC_WORD	14.545	n/a	PILE	-999.0	4	n/a	n/a	pyFR	0	UP029
599.888	18.191	491456	REC_WORD	30.073	n/a	TOOL	-999.0	4	n/a	n/a	pyFR	0	UP029
618.079	0.016	500770	TRIAL	n/a	n/a	n/a	-999.0	5	n/a	n/a	pyFR	0	UP029
618.095	1.6	500779	ORIENT	n/a	n/a	n/a	-999.0	5	n/a	n/a	pyFR	0	UP029
621.085	1.6	502310	WORD	n/a	wordpools/wordpool_EN.txt	RIB	1.0	5	n/a	n/a	pyFR	0	UP029
623.688	1.6	503642	WORD	n/a	wordpools/wordpool_EN.txt	QUEEN	2.0	5	n/a	n/a	pyFR	0	UP029
626.294	1.6	504977	WORD	n/a	wordpools/wordpool_EN.txt	SNOW	3.0	5	n/a	n/a	pyFR	0	UP029
628.93	1.6	506326	WORD	n/a	wordpools/wordpool_EN.txt	MOTH	4.0	5	n/a	n/a	pyFR	0	UP029
631.436	1.6	507610	WORD	n/a	wordpools/wordpool_EN.txt	EGG	5.0	5	n/a	n/a	pyFR	0	UP029
633.956	1.6	508900	WORD	n/a	wordpools/wordpool_EN.txt	FLAG	6.0	5	n/a	n/a	pyFR	0	UP029
636.627	1.6	510267	WORD	n/a	wordpools/wordpool_EN.txt	JEEP	7.0	5	n/a	n/a	pyFR	0	UP029
639.081	1.6	511524	WORD	n/a	wordpools/wordpool_EN.txt	FOG	8.0	5	n/a	n/a	pyFR	0	UP029
641.719	1.6	512875	WORD	n/a	wordpools/wordpool_EN.txt	HOOF	9.0	5	n/a	n/a	pyFR	0	UP029
644.408	1.6	514252	WORD	n/a	wordpools/wordpool_EN.txt	PIPE	10.0	5	n/a	n/a	pyFR	0	UP029
647.061	1.6	515610	WORD	n/a	wordpools/wordpool_EN.txt	ARM	11.0	5	n/a	n/a	pyFR	0	UP029
649.582	1.6	516901	WORD	n/a	wordpools/wordpool_EN.txt	BOMB	12.0	5	n/a	n/a	pyFR	0	UP029
652.053	1.6	518166	WORD	n/a	wordpools/wordpool_EN.txt	OWL	13.0	5	n/a	n/a	pyFR	0	UP029
654.607	1.6	519474	WORD	n/a	wordpools/wordpool_EN.txt	TENT	14.0	5	n/a	n/a	pyFR	0	UP029
657.179	1.6	520791	WORD	n/a	wordpools/wordpool_EN.txt	BADGE	15.0	5	n/a	n/a	pyFR	0	UP029
658.798	1.034	521620	START	n/a	n/a	n/a	n/a	5	[-999 -999 -999]	-999.0	pyFR	0	UP029
659.832	2.922	522149	PROB	2.9	n/a	n/a	n/a	5	[1 9 2]	12.0	pyFR	0	UP029
662.754	2.756	523645	PROB	2.731	n/a	n/a	n/a	5	[6 7 4]	17.0	pyFR	0	UP029
665.51	2.302	525056	PROB	2.269	n/a	n/a	n/a	5	[9 8 2]	19.0	pyFR	0	UP029
667.812	4.024	526235	PROB	3.991	n/a	n/a	n/a	5	[6 8 9]	23.0	pyFR	0	UP029
671.836	3.89	528295	PROB	3.863	n/a	n/a	n/a	5	[8 9 9]	26.0	pyFR	0	UP029
675.726	3.815	530287	PROB	3.815	n/a	n/a	n/a	5	[9 4 9]	22.0	pyFR	0	UP029
679.541	1.21	532241	STOP	n/a	n/a	n/a	n/a	5	[-999 -999 -999]	-999.0	pyFR	0	UP029
680.751	2.479	532860	REC_START	n/a	n/a	n/a	-999.0	5	n/a	n/a	pyFR	0	UP029
683.23	1.023	534129	REC_WORD	2.479	n/a	QUEEN	-999.0	5	n/a	n/a	pyFR	0	UP029
684.253	1.391	534653	REC_WORD	3.502	n/a	ROOF	-999.0	5	n/a	n/a	pyFR	0	UP029
685.644	10.077	535365	REC_WORD	4.893	n/a	HOOF	-999.0	5	n/a	n/a	pyFR	0	UP029
695.721	7.212	540525	REC_WORD	14.97	n/a	ARM	-999.0	5	n/a	n/a	pyFR	0	UP029
702.933	16.146	544218	REC_WORD	22.182	n/a	CRATE	-999.0	5	n/a	n/a	pyFR	0	UP029
719.079	9.72	552485	REC_WORD	38.328	n/a	PLANE	-999.0	5	n/a	n/a	pyFR	0	UP029
728.799	0.016	557462	TRIAL	n/a	n/a	n/a	-999.0	6	n/a	n/a	pyFR	0	UP029
728.815	1.6	557470	ORIENT	n/a	n/a	n/a	-999.0	6	n/a	n/a	pyFR	0	UP029
731.787	1.6	558992	WORD	n/a	wordpools/wordpool_EN.txt	GOAT	1.0	6	n/a	n/a	pyFR	0	UP029
734.575	1.6	560419	WORD	n/a	wordpools/wordpool_EN.txt	LAMP	2.0	6	n/a	n/a	pyFR	0	UP029
737.247	1.6	561787	WORD	n/a	wordpools/wordpool_EN.txt	DOG	3.0	6	n/a	n/a	pyFR	0	UP029
739.8	1.6	563095	WORD	n/a	wordpools/wordpool_EN.txt	STREET	4.0	6	n/a	n/a	pyFR	0	UP029
742.523	1.6	564489	WORD	n/a	wordpools/wordpool_EN.txt	RAT	5.0	6	n/a	n/a	pyFR	0	UP029
744.959	1.6	565736	WORD	n/a	wordpools/wordpool_EN.txt	ARK	6.0	6	n/a	n/a	pyFR	0	UP029
747.697	1.6	567138	WORD	n/a	wordpools/wordpool_EN.txt	AXE	7.0	6	n/a	n/a	pyFR	0	UP029
750.352	1.6	568498	WORD	n/a	wordpools/wordpool_EN.txt	STOVE	8.0	6	n/a	n/a	pyFR	0	UP029
753.039	1.6	569873	WORD	n/a	wordpools/wordpool_EN.txt	ROPE	9.0	6	n/a	n/a	pyFR	0	UP029
755.777	1.6	571275	WORD	n/a	wordpools/wordpool_EN.txt	CAKE	10.0	6	n/a	n/a	pyFR	0	UP029
758.215	1.6	572524	WORD	n/a	wordpools/wordpool_EN.txt	COUCH	11.0	6	n/a	n/a	pyFR	0	UP029
760.836	1.6	573866	WORD	n/a	wordpools/wordpool_EN.txt	SHOE	12.0	6	n/a	n/a	pyFR	0	UP029
763.274	1.6	575114	WORD	n/a	wordpools/wordpool_EN.txt	LAMB	13.0	6	n/a	n/a	pyFR	0	UP029
765.878	1.6	576447	WORD	n/a	wordpools/wordpool_EN.txt	HORSE	14.0	6	n/a	n/a	pyFR	0	UP029
768.616	1.6	577849	WORD	n/a	wordpools/wordpool_EN.txt	DITCH	15.0	6	n/a	n/a	pyFR	0	UP029
770.22	0.833	578670	START	n/a	n/a	n/a	n/a	6	[-999 -999 -999]	-999.0	pyFR	0	UP029
771.053	4.658	579097	PROB	4.622	n/a	n/a	n/a	6	[6 8 5]	19.0	pyFR	0	UP029
775.711	3.54	581482	PROB	3.51	n/a	n/a	n/a	6	[6 4 8]	20.0	pyFR	0	UP029
779.251	2.137	583295	PROB	2.105	n/a	n/a	n/a	6	[2 2 3]	7.0	pyFR	0	UP029
781.388	2.788	584389	PROB	2.76	n/a	n/a	n/a	6	[2 3 6]	11.0	pyFR	0	UP029
784.176	2.937	585816	PROB	2.907	n/a	n/a	n/a	6	[5 1 2]	8.0	pyFR	0	UP029
787.113	3.427	587320	PROB	3.427	n/a	n/a	n/a	6	[4 7 4]	15.0	pyFR	0	UP029
790.54	1.165	589075	STOP	n/a	n/a	n/a	n/a	6	[-999 -999 -999]	-999.0	pyFR	0	UP029
791.705	13.04	589671	REC_START	n/a	n/a	n/a	-999.0	6	n/a	n/a	pyFR	0	UP029
804.745	1.247	596348	REC_WORD	13.04	n/a	HEEL	-999.0	6	n/a	n/a	pyFR	0	UP029
805.992	13.324	596987	REC_WORD	14.287	n/a	WOOL	-999.0	6	n/a	n/a	pyFR	0	UP029
819.316	7.658	603809	REC_WORD	27.611	n/a	CANE	-999.0	6	n/a	n/a	pyFR	0	UP029
826.974	7.028	607730	REC_WORD	35.269	n/a	HORSE	-999.0	6	n/a	n/a	pyFR	0	UP029
834.002	5.867	611328	REC_WORD	42.297	n/a	ROOF	-999.0	6	n/a	n/a	pyFR	0	UP029
839.869	0.017	614333	TRIAL	n/a	n/a	n/a	-999.0	7	n/a	n/a	pyFR	0	UP029
839.886	1.6	614341	ORIENT	n/a	n/a	n/a	-999.0	7	n/a	n/a	pyFR	0	UP029
842.774	1.6	615820	WORD	n/a	wordpools/wordpool_EN.txt	TRASH	1.0	7	n/a	n/a	pyFR	0	UP029
845.412	1.6	617171	WORD	n/a	wordpools/wordpool_EN.txt	DUCK	2.0	7	n/a	n/a	pyFR	0	UP029
847.866	1.6	618427	WORD	n/a	wordpools/wordpool_EN.txt	CROW	3.0	7	n/a	n/a	pyFR	0	UP029
850.371	1.6	619710	WORD	n/a	wordpools/wordpool_EN.txt	PURSE	4.0	7	n/a	n/a	pyFR	0	UP029
853.192	1.6	621154	WORD	n/a	wordpools/wordpool_EN.txt	FORT	5.0	7	n/a	n/a	pyFR	0	UP029
855.762	1.6	622470	WORD	n/a	wordpools/wordpool_EN.txt	SEAT	6.0	7	n/a	n/a	pyFR	0	UP029
858.434	1.6	623838	WORD	n/a	wordpools/wordpool_EN.txt	DRESS	7.0	7	n/a	n/a	pyFR	0	UP029
861.189	1.6	625249	WORD	n/a	wordpools/wordpool_EN.txt	CORN	8.0	7	n/a	n/a	pyFR	0	UP029
863.876	1.6	626625	WORD	n/a	wordpools/wordpool_EN.txt	PET	9.0	7	n/a	n/a	pyFR	0	UP029
866.681	1.6	628061	WORD	n/a	wordpools/wordpool_EN.txt	MOLE	10.0	7	n/a	n/a	pyFR	0	UP029
869.336	1.6	629420	WORD	n/a	wordpools/wordpool_EN.txt	MAP	11.0	7	n/a	n/a	pyFR	0	UP029
871.956	1.6	630762	WORD	n/a	wordpools/wordpool_EN.txt	BRIDGE	12.0	7	n/a	n/a	pyFR	0	UP029
874.495	1.6	632062	WORD	n/a	wordpools/wordpool_EN.txt	SPEAR	13.0	7	n/a	n/a	pyFR	0	UP029
877.165	1.6	633429	WORD	n/a	wordpools/wordpool_EN.txt	PARK	14.0	7	n/a	n/a	pyFR	0	UP029
879.702	1.6	634728	WORD	n/a	wordpools/wordpool_EN.txt	VEST	15.0	7	n/a	n/a	pyFR	0	UP029
881.307	0.884	635550	START	n/a	n/a	n/a	n/a	7	[-999 -999 -999]	-999.0	pyFR	0	UP029
882.191	5.041	636002	PROB	5.005	n/a	n/a	n/a	7	[9 3 8]	20.0	pyFR	0	UP029
887.232	4.124	638584	PROB	4.093	n/a	n/a	n/a	7	[4 6 6]	16.0	pyFR	0	UP029
891.356	2.537	640695	PROB	2.512	n/a	n/a	n/a	7	[3 7 7]	17.0	pyFR	0	UP029
893.893	4.408	641994	PROB	4.376	n/a	n/a	n/a	7	[8 3 8]	19.0	pyFR	0	UP029
898.301	1.987	644251	PROB	1.951	n/a	n/a	n/a	7	[1 3 8]	12.0	pyFR	0	UP029
900.288	2.667	645269	PROB	2.667	n/a	n/a	n/a	7	[3 9 9]	21.0	pyFR	0	UP029
902.955	1.089	646634	STOP	n/a	n/a	n/a	n/a	7	[-999 -999 -999]	-999.0	pyFR	0	UP029
904.044	10.802	647192	REC_START	n/a	n/a	n/a	-999.0	7	n/a	n/a	pyFR	0	UP029
914.846	10.131	652723	REC_WORD	10.802	n/a	CORN	-999.0	7	n/a	n/a	pyFR	0	UP029
924.977	9.582	657910	REC_WORD	20.933	n/a	OWL	-999.0	7	n/a	n/a	pyFR	0	UP029
934.559	34.913	662816	REC_WORD	30.515	n/a	HOLE	-999.0	7	n/a	n/a	pyFR	0	UP029
969.472	0.016	680693	TRIAL	n/a	n/a	n/a	-999.0	8	n/a	n/a	pyFR	0	UP029
969.488	1.6	680701	ORIENT	n/a	n/a	n/a	-999.0	8	n/a	n/a	pyFR	0	UP029
972.141	1.6	682059	WORD	n/a	wordpools/wordpool_EN.txt	SKI	1.0	8	n/a	n/a	pyFR	0	UP029
974.712	1.6	683376	WORD	n/a	wordpools/wordpool_EN.txt	FISH	2.0	8	n/a	n/a	pyFR	0	UP029
977.518	1.6	684812	WORD	n/a	wordpools/wordpool_EN.txt	ROCK	3.0	8	n/a	n/a	pyFR	0	UP029
980.34	1.6	686257	WORD	n/a	wordpools/wordpool_EN.txt	NET	4.0	8	n/a	n/a	pyFR	0	UP029
982.792	1.6	687513	WORD	n/a	wordpools/wordpool_EN.txt	STOOL	5.0	8	n/a	n/a	pyFR	0	UP029
985.597	1.6	688949	WORD	n/a	wordpools/wordpool_EN.txt	FAN	6.0	8	n/a	n/a	pyFR	0	UP029
988.269	1.6	690317	WORD	n/a	wordpools/wordpool_EN.txt	DART	7.0	8	n/a	n/a	pyFR	0	UP029
990.906	1.6	691667	WORD	n/a	wordpools/wordpool_EN.txt	TAIL	8.0	8	n/a	n/a	pyFR	0	UP029
993.461	1.6	692976	WORD	n/a	wordpools/wordpool_EN.txt	SAIL	9.0	8	n/a	n/a	pyFR	0	UP029
996.048	1.6	694300	WORD	n/a	wordpools/wordpool_EN.txt	SEA	10.0	8	n/a	n/a	pyFR	0	UP029
998.836	1.6	695728	WORD	n/a	wordpools/wordpool_EN.txt	MAT	11.0	8	n/a	n/a	pyFR	0	UP029
1001.258	1.6	696968	WORD	n/a	wordpools/wordpool_EN.txt	RAIN	12.0	8	n/a	n/a	pyFR	0	UP029
1003.945	1.6	698344	WORD	n/a	wordpools/wordpool_EN.txt	TANK	13.0	8	n/a	n/a	pyFR	0	UP029
1006.717	1.6	699763	WORD	n/a	wordpools/wordpool_EN.txt	MAZE	14.0	8	n/a	n/a	pyFR	0	UP029
1009.505	1.6	701190	WORD	n/a	wordpools/wordpool_EN.txt	CART	15.0	8	n/a	n/a	pyFR	0	UP029
1011.125	1.085	702020	START	n/a	n/a	n/a	n/a	8	[-999 -999 -999]	-999.0	pyFR	0	UP029
1012.21	4.357	702575	PROB	4.322	n/a	n/a	n/a	8	[7 4 6]	17.0	pyFR	0	UP029
1016.567	2.086	704806	PROB	2.052	n/a	n/a	n/a	8	[7 5 2]	14.0	pyFR	0	UP029
1018.653	2.287	705874	PROB	2.254	n/a	n/a	n/a	8	[1 4 3]	8.0	pyFR	0	UP029
1020.94	2.472	707045	PROB	2.44	n/a	n/a	n/a	8	[1 5 8]	14.0	pyFR	0	UP029
1023.412	1.987	708311	PROB	1.96	n/a	n/a	n/a	8	[5 1 5]	11.0	pyFR	0	UP029
1025.399	2.153	709329	PROB	2.109	n/a	n/a	n/a	8	[5 3 1]	9.0	pyFR	0	UP029
1027.552	2.587	710431	PROB	2.564	n/a	n/a	n/a	8	[3 8 5]	16.0	pyFR	0	UP029
1030.139	1.88	711756	PROB	1.88	n/a	n/a	n/a	8	[2 2 2]	6.0	pyFR	0	UP029
1032.019	1.075	712718	STOP	n/a	n/a	n/a	n/a	8	[-999 -999 -999]	-999.0	pyFR	0	UP029
1033.094	6.224	713269	REC_START	n/a	n/a	n/a	-999.0	8	n/a	n/a	pyFR	0	UP029
1039.318	0.939	716455	REC_WORD	6.224	n/a	HORN	-999.0	8	n/a	n/a	pyFR	0	UP029
1040.257	8.868	716936	REC_WORD	7.163	n/a	TEA	-999.0	8	n/a	n/a	pyFR	0	UP029
1049.125	6.835	721477	REC_WORD	16.031	n/a	FOOT	-999.0	8	n/a	n/a	pyFR	0	UP029
1055.96	1212.431	724977	REC_WORD	22.866	n/a	RAIN	-999.0	8	n/a	n/a	pyFR	0	UP029
2268.391	0.016	1345772	TRIAL	n/a	n/a	n/a	-999.0	9	n/a	n/a	pyFR	0	UP029
2268.407	1.6	1345780	ORIENT	n/a	n/a	n/a	-999.0	9	n/a	n/a	pyFR	0	UP029
2271.212	1.6	1347216	WORD	n/a	wordpools/wordpool_EN.txt	VAN	1.0	9	n/a	n/a	pyFR	0	UP029
2273.848	1.6	1348566	WORD	n/a	wordpools/wordpool_EN.txt	ZOO	2.0	9	n/a	n/a	pyFR	0	UP029
2276.488	1.6	1349918	WORD	n/a	wordpools/wordpool_EN.txt	KING	3.0	9	n/a	n/a	pyFR	0	UP029
2279.309	1.6	1351362	WORD	n/a	wordpools/wordpool_EN.txt	BOY	4.0	9	n/a	n/a	pyFR	0	UP029
2281.795	1.6	1352635	WORD	n/a	wordpools/wordpool_EN.txt	ROOT	5.0	9	n/a	n/a	pyFR	0	UP029
2284.317	1.6	1353926	WORD	n/a	wordpools/wordpool_EN.txt	PASTE	6.0	9	n/a	n/a	pyFR	0	UP029
2286.988	1.6	1355294	WORD	n/a	wordpools/wordpool_EN.txt	FACE	7.0	9	n/a	n/a	pyFR	0	UP029
2289.642	1.6	1356653	WORD	n/a	wordpools/wordpool_EN.txt	SOCK	8.0	9	n/a	n/a	pyFR	0	UP029
2292.297	1.6	1358012	WORD	n/a	wordpools/wordpool_EN.txt	EEL	9.0	9	n/a	n/a	pyFR	0	UP029
2295.084	1.6	1359439	WORD	n/a	wordpools/wordpool_EN.txt	FILM	10.0	9	n/a	n/a	pyFR	0	UP029
2297.873	1.6	1360867	WORD	n/a	wordpools/wordpool_EN.txt	STRAW	11.0	9	n/a	n/a	pyFR	0	UP029
2300.311	1.6	1362116	WORD	n/a	wordpools/wordpool_EN.txt	SLEEVE	12.0	9	n/a	n/a	pyFR	0	UP029
2302.998	1.6	1363492	WORD	n/a	wordpools/wordpool_EN.txt	CHEEK	13.0	9	n/a	n/a	pyFR	0	UP029
2305.753	1.6	1364902	WORD	n/a	wordpools/wordpool_EN.txt	MUG	14.0	9	n/a	n/a	pyFR	0	UP029
2308.274	1.6	1366193	WORD	n/a	wordpools/wordpool_EN.txt	BREAD	15.0	9	n/a	n/a	pyFR	0	UP029
2309.894	0.917	1367023	START	n/a	n/a	n/a	n/a	9	[-999 -999 -999]	-999.0	pyFR	0	UP029
2310.811	3.188	1367492	PROB	3.16	n/a	n/a	n/a	9	[6 5 9]	20.0	pyFR	0	UP029
2313.999	2.539	1369124	PROB	2.517	n/a	n/a	n/a	9	[1 1 8]	10.0	pyFR	0	UP029
2316.538	4.123	1370424	PROB	4.089	n/a	n/a	n/a	9	[5 6 2]	13.0	pyFR	0	UP029
2320.661	2.42	1372536	PROB	2.39	n/a	n/a	n/a	9	[3 2 8]	13.0	pyFR	0	UP029
2323.081	2.805	1373775	PROB	2.77	n/a	n/a	n/a	9	[9 9 5]	23.0	pyFR	0	UP029
2325.886	3.657	1375211	PROB	3.622	n/a	n/a	n/a	9	[5 9 3]	17.0	pyFR	0	UP029
2329.543	2.629	1377083	PROB	2.629	n/a	n/a	n/a	9	[7 5 2]	14.0	pyFR	0	UP029
2332.172	1.228	1378429	STOP	n/a	n/a	n/a	n/a	9	[-999 -999 -999]	-999.0	pyFR	0	UP029
2333.4	1.682	1379058	REC_START	n/a	n/a	n/a	-999.0	9	n/a	n/a	pyFR	0	UP029
2335.082	1.02	1379919	REC_WORD	1.682	n/a	VAN	-999.0	9	n/a	n/a	pyFR	0	UP029
2336.102	1.598	1380442	REC_WORD	2.702	n/a	ZOO	-999.0	9	n/a	n/a	pyFR	0	UP029
2337.7	2.971	1381260	REC_WORD	4.3	n/a	PASTE	-999.0	9	n/a	n/a	pyFR	0	UP029
2340.671	20.616	1382781	REC_WORD_VV	7.271	n/a	<>	-999.0	9	n/a	n/a	pyFR	0	UP029
2361.287	19.928	1393337	REC_WORD	27.887	n/a	EEL	-999.0	9	n/a	n/a	pyFR	0	UP029
2381.215	0.015	1403541	TRIAL	n/a	n/a	n/a	-999.0	10	n/a	n/a	pyFR	0	UP029
2381.23	1.6	1403548	ORIENT	n/a	n/a	n/a	-999.0	10	n/a	n/a	pyFR	0	UP029
2384.051	1.6	1404993	WORD	n/a	wordpools/wordpool_EN.txt	BENCH	1.0	10	n/a	n/a	pyFR	0	UP029
2386.722	1.6	1406360	WORD	n/a	wordpools/wordpool_EN.txt	NAIL	2.0	10	n/a	n/a	pyFR	0	UP029
2389.177	1.6	1407617	WORD	n/a	wordpools/wordpool_EN.txt	GLOVE	3.0	10	n/a	n/a	pyFR	0	UP029
2391.931	1.6	1409028	WORD	n/a	wordpools/wordpool_EN.txt	FOX	4.0	10	n/a	n/a	pyFR	0	UP029
2394.686	1.6	1410438	WORD	n/a	wordpools/wordpool_EN.txt	OAR	5.0	10	n/a	n/a	pyFR	0	UP029
2397.441	1.6	1411849	WORD	n/a	wordpools/wordpool_EN.txt	JUICE	6.0	10	n/a	n/a	pyFR	0	UP029
2400.144	1.6	1413233	WORD	n/a	wordpools/wordpool_EN.txt	FORK	7.0	10	n/a	n/a	pyFR	0	UP029
2402.615	1.6	1414498	WORD	n/a	wordpools/wordpool_EN.txt	SLUSH	8.0	10	n/a	n/a	pyFR	0	UP029
2405.187	1.6	1415815	WORD	n/a	wordpools/wordpool_EN.txt	SUN	9.0	10	n/a	n/a	pyFR	0	UP029
2407.958	1.6	1417234	WORD	n/a	wordpools/wordpool_EN.txt	SHEET	10.0	10	n/a	n/a	pyFR	0	UP029
2410.48	1.6	1418525	WORD	n/a	wordpools/wordpool_EN.txt	CORD	11.0	10	n/a	n/a	pyFR	0	UP029
2412.984	1.6	1419807	WORD	n/a	wordpools/wordpool_EN.txt	ROAD	12.0	10	n/a	n/a	pyFR	0	UP029
2415.455	1.6	1421072	WORD	n/a	wordpools/wordpool_EN.txt	SPARK	13.0	10	n/a	n/a	pyFR	0	UP029
2418.092	1.6	1422423	WORD	n/a	wordpools/wordpool_EN.txt	BAND	14.0	10	n/a	n/a	pyFR	0	UP029
2420.712	1.6	1423764	WORD	n/a	wordpools/wordpool_EN.txt	HOLE	15.0	10	n/a	n/a	pyFR	0	UP029
2422.317	1.051	1424586	START	n/a	n/a	n/a	n/a	10	[-999 -999 -999]	-999.0	pyFR	0	UP029
2423.368	2.637	1425124	PROB	2.612	n/a	n/a	n/a	10	[4 3 1]	8.0	pyFR	0	UP029
2426.005	2.855	1426474	PROB	2.83	n/a	n/a	n/a	10	[7 7 6]	20.0	pyFR	0	UP029
2428.86	4.306	1427936	PROB	4.271	n/a	n/a	n/a	10	[8 8 7]	23.0	pyFR	0	UP029
2433.166	2.572	1430141	PROB	2.549	n/a	n/a	n/a	10	[3 1 2]	6.0	pyFR	0	UP029
2435.738	2.805	1431458	PROB	2.77	n/a	n/a	n/a	10	[5 3 9]	17.0	pyFR	0	UP029
2438.543	2.705	1432894	PROB	2.678	n/a	n/a	n/a	10	[3 5 7]	15.0	pyFR	0	UP029
2441.248	5.492	1434279	PROB	5.492	n/a	n/a	n/a	10	[9 9 9]	27.0	pyFR	0	UP029
2446.74	1.169	1437091	STOP	n/a	n/a	n/a	n/a	10	[-999 -999 -999]	-999.0	pyFR	0	UP029
2447.909	2.339	1437690	REC_START	n/a	n/a	n/a	-999.0	10	n/a	n/a	pyFR	0	UP029
2450.248	0.199	1438887	REC_WORD_VV	2.339	n/a	<>	-999.0	10	n/a	n/a	pyFR	0	UP029
2450.447	1.09	1438989	REC_WORD	2.538	n/a	BAND	-999.0	10	n/a	n/a	pyFR	0	UP029
2451.537	4.003	1439547	REC_WORD	3.628	n/a	FISH	-999.0	10	n/a	n/a	pyFR	0	UP029
2455.54	14.011	1441597	REC_WORD	7.631	n/a	SHEET	-999.0	10	n/a	n/a	pyFR	0	UP029
2469.551	8.039	1448771	REC_WORD	21.642	n/a	BRAKE	-999.0	10	n/a	n/a	pyFR	0	UP029
2477.59	11.595	1452887	REC_WORD	29.681	n/a	CHIN	-999.0	10	n/a	n/a	pyFR	0	UP029
2489.185	6.554	1458824	REC_WORD	41.276	n/a	ROPE	-999.0	10	n/a	n/a	pyFR	0	UP029
2495.739	0.017	1462180	TRIAL	n/a	n/a	n/a	-999.0	11	n/a	n/a	pyFR	0	UP029
2495.756	1.6	1462189	ORIENT	n/a	n/a	n/a	-999.0	11	n/a	n/a	pyFR	0	UP029
2498.61	1.6	1463650	WORD	n/a	wordpools/wordpool_EN.txt	CHAIR	1.0	11	n/a	n/a	pyFR	0	UP029
2501.399	1.6	1465078	WORD	n/a	wordpools/wordpool_EN.txt	GUARD	2.0	11	n/a	n/a	pyFR	0	UP029
2504.12	1.6	1466471	WORD	n/a	wordpools/wordpool_EN.txt	CRANE	3.0	11	n/a	n/a	pyFR	0	UP029
2506.79	1.6	1467838	WORD	n/a	wordpools/wordpool_EN.txt	FOAM	4.0	11	n/a	n/a	pyFR	0	UP029
2509.229	1.6	1469087	WORD	n/a	wordpools/wordpool_EN.txt	BLOOM	5.0	11	n/a	n/a	pyFR	0	UP029
2511.933	1.6	1470472	WORD	n/a	wordpools/wordpool_EN.txt	BOARD	6.0	11	n/a	n/a	pyFR	0	UP029
2514.604	1.6	1471839	WORD	n/a	wordpools/wordpool_EN.txt	MOON	7.0	11	n/a	n/a	pyFR	0	UP029
2517.259	1.6	1473199	WORD	n/a	wordpools/wordpool_EN.txt	WOOD	8.0	11	n/a	n/a	pyFR	0	UP029
2519.696	1.6	1474446	WORD	n/a	wordpools/wordpool_EN.txt	SHELL	9.0	11	n/a	n/a	pyFR	0	UP029
2522.218	1.6	1475738	WORD	n/a	wordpools/wordpool_EN.txt	GRAPE	10.0	11	n/a	n/a	pyFR	0	UP029
2524.905	1.6	1477114	WORD	n/a	wordpools/wordpool_EN.txt	DOCK	11.0	11	n/a	n/a	pyFR	0	UP029
2527.343	1.6	1478362	WORD	n/a	wordpools/wordpool_EN.txt	JAR	12.0	11	n/a	n/a	pyFR	0	UP029
2529.98	1.6	1479712	WORD	n/a	wordpools/wordpool_EN.txt	BELL	13.0	11	n/a	n/a	pyFR	0	UP029
2532.435	1.6	1480969	WORD	n/a	wordpools/wordpool_EN.txt	BRUSH	14.0	11	n/a	n/a	pyFR	0	UP029
2534.972	1.6	1482268	WORD	n/a	wordpools/wordpool_EN.txt	CONE	15.0	11	n/a	n/a	pyFR	0	UP029
2536.592	1.202	1483098	START	n/a	n/a	n/a	n/a	11	[-999 -999 -999]	-999.0	pyFR	0	UP029
2537.794	3.855	1483713	PROB	3.817	n/a	n/a	n/a	11	[4 7 1]	12.0	pyFR	0	UP029
2541.649	3.489	1485687	PROB	3.458	n/a	n/a	n/a	11	[9 5 6]	20.0	pyFR	0	UP029
2545.138	5.077	1487473	PROB	5.042	n/a	n/a	n/a	11	[2 9 4]	15.0	pyFR	0	UP029
2550.215	3.188	1490073	PROB	3.157	n/a	n/a	n/a	11	[6 8 1]	17.0	pyFR	0	UP029
2553.403	3.849	1491705	PROB	3.849	n/a	n/a	n/a	11	[9 4 5]	18.0	pyFR	0	UP029
2557.252	1.077	1493676	STOP	n/a	n/a	n/a	n/a	11	[-999 -999 -999]	-999.0	pyFR	0	UP029
2558.329	2.097	1494228	REC_START	n/a	n/a	n/a	-999.0	11	n/a	n/a	pyFR	0	UP029
2560.426	1.17	1495301	REC_WORD	2.097	n/a	BOARD	-999.0	11	n/a	n/a	pyFR	0	UP029
2561.596	5.101	1495900	REC_WORD	3.267	n/a	BLOOM	-999.0	11	n/a	n/a	pyFR	0	UP029
2566.697	17.128	1498512	REC_WORD	8.368	n/a	BOAT	-999.0	11	n/a	n/a	pyFR	0	UP029
2583.825	40.599	1507282	REC_WORD	25.496	n/a	SAIL	-999.0	11	n/a	n/a	pyFR	0	UP029
2624.424	0.015	1528070	TRIAL	n/a	n/a	n/a	-999.0	12	n/a	n/a	pyFR	0	UP029
2624.439	1.6	1528078	ORIENT	n/a	n/a	n/a	-999.0	12	n/a	n/a	pyFR	0	UP029
2627.093	1.6	1529436	WORD	n/a	wordpools/wordpool_EN.txt	ROOF	1.0	12	n/a	n/a	pyFR	0	UP029
2629.532	1.6	1530685	WORD	n/a	wordpools/wordpool_EN.txt	TRAY	2.0	12	n/a	n/a	pyFR	0	UP029
2632.153	1.6	1532027	WORD	n/a	wordpools/wordpool_EN.txt	HOUSE	3.0	12	n/a	n/a	pyFR	0	UP029
2634.84	1.6	1533403	WORD	n/a	wordpools/wordpool_EN.txt	DIME	4.0	12	n/a	n/a	pyFR	0	UP029
2637.478	1.6	1534754	WORD	n/a	wordpools/wordpool_EN.txt	CLIFF	5.0	12	n/a	n/a	pyFR	0	UP029
2639.981	1.6	1536035	WORD	n/a	wordpools/wordpool_EN.txt	EAR	6.0	12	n/a	n/a	pyFR	0	UP029
2642.569	1.6	1537361	WORD	n/a	wordpools/wordpool_EN.txt	SWAMP	7.0	12	n/a	n/a	pyFR	0	UP029
2645.006	1.6	1538608	WORD	n/a	wordpools/wordpool_EN.txt	GRASS	8.0	12	n/a	n/a	pyFR	0	UP029
2647.479	1.6	1539875	WORD	n/a	wordpools/wordpool_EN.txt	TAPE	9.0	12	n/a	n/a	pyFR	0	UP029
2649.948	1.6	1541139	WORD	n/a	wordpools/wordpool_EN.txt	SEED	10.0	12	n/a	n/a	pyFR	0	UP029
2652.52	1.6	1542456	WORD	n/a	wordpools/wordpool_EN.txt	GEESE	11.0	12	n/a	n/a	pyFR	0	UP029
2655.124	1.6	1543789	WORD	n/a	wordpools/wordpool_EN.txt	TEETH	12.0	12	n/a	n/a	pyFR	0	UP029
2657.945	1.6	1545233	WORD	n/a	wordpools/wordpool_EN.txt	WORM	13.0	12	n/a	n/a	pyFR	0	UP029
2660.534	1.6	1546559	WORD	n/a	wordpools/wordpool_EN.txt	SNAKE	14.0	12	n/a	n/a	pyFR	0	UP029
2663.238	1.6	1547944	WORD	n/a	wordpools/wordpool_EN.txt	STEAM	15.0	12	n/a	n/a	pyFR	0	UP029
2664.858	1.134	1548773	START	n/a	n/a	n/a	n/a	12	[-999 -999 -999]	-999.0	pyFR	0	UP029
2665.992	3.423	1549354	PROB	3.396	n/a	n/a	n/a	12	[6 8 6]	20.0	pyFR	0	UP029
2669.415	2.437	1551106	PROB	2.412	n/a	n/a	n/a	12	[9 9 9]	27.0	pyFR	0	UP029
2671.852	4.325	1552354	PROB	4.295	n/a	n/a	n/a	12	[8 4 9]	21.0	pyFR	0	UP029
2676.177	2.419	1554569	PROB	2.387	n/a	n/a	n/a	12	[1 9 4]	14.0	pyFR	0	UP029
2678.596	3.072	1555807	PROB	3.04	n/a	n/a	n/a	12	[8 6 4]	18.0	pyFR	0	UP029
2681.668	2.889	1557380	PROB	2.857	n/a	n/a	n/a	12	[4 7 4]	15.0	pyFR	0	UP029
2684.557	2.343	1558859	PROB	2.343	n/a	n/a	n/a	12	[4 1 5]	10.0	pyFR	0	UP029
2686.9	1.08	1560059	STOP	n/a	n/a	n/a	n/a	12	[-999 -999 -999]	-999.0	pyFR	0	UP029
2687.98	2.411	1560612	REC_START	n/a	n/a	n/a	-999.0	12	n/a	n/a	pyFR	0	UP029
2690.391	1.041	1561847	REC_WORD	2.411	n/a	ROOF	-999.0	12	n/a	n/a	pyFR	0	UP029
2691.432	0.756	1562380	REC_WORD	3.452	n/a	GEESE	-999.0	12	n/a	n/a	pyFR	0	UP029
2692.188	14.412	1562767	REC_WORD	4.208	n/a	TEETH	-999.0	12	n/a	n/a	pyFR	0	UP029
2706.6	16.343	1570146	REC_WORD	18.62	n/a	DOCK	-999.0	12	n/a	n/a	pyFR	0	UP029
2722.943	13.184	1578514	REC_WORD	34.963	n/a	JOKE	-999.0	12	n/a	n/a	pyFR	0	UP029
2736.127	0.016	1585265	TRIAL	n/a	n/a	n/a	-999.0	13	n/a	n/a	pyFR	0	UP029
2736.143	1.6	1585273	ORIENT	n/a	n/a	n/a	-999.0	13	n/a	n/a	pyFR	0	UP029
2739.132	1.6	1586803	WORD	n/a	wordpools/wordpool_EN.txt	CAT	1.0	13	n/a	n/a	pyFR	0	UP029
2741.803	1.6	1588171	WORD	n/a	wordpools/wordpool_EN.txt	FOOD	2.0	13	n/a	n/a	pyFR	0	UP029
2744.392	1.6	1589497	WORD	n/a	wordpools/wordpool_EN.txt	CAPE	3.0	13	n/a	n/a	pyFR	0	UP029
2747.029	1.6	1590847	WORD	n/a	wordpools/wordpool_EN.txt	BOWL	4.0	13	n/a	n/a	pyFR	0	UP029
2749.517	1.6	1592121	WORD	n/a	wordpools/wordpool_EN.txt	BARN	5.0	13	n/a	n/a	pyFR	0	UP029
2752.087	1.6	1593437	WORD	n/a	wordpools/wordpool_EN.txt	CUP	6.0	13	n/a	n/a	pyFR	0	UP029
2754.641	1.6	1594744	WORD	n/a	wordpools/wordpool_EN.txt	JAIL	7.0	13	n/a	n/a	pyFR	0	UP029
2757.129	1.6	1596018	WORD	n/a	wordpools/wordpool_EN.txt	JUDGE	8.0	13	n/a	n/a	pyFR	0	UP029
2759.7	1.6	1597335	WORD	n/a	wordpools/wordpool_EN.txt	TOOTH	9.0	13	n/a	n/a	pyFR	0	UP029
2762.255	1.6	1598643	WORD	n/a	wordpools/wordpool_EN.txt	SOUP	10.0	13	n/a	n/a	pyFR	0	UP029
2764.842	1.6	1599967	WORD	n/a	wordpools/wordpool_EN.txt	CUBE	11.0	13	n/a	n/a	pyFR	0	UP029
2767.38	1.6	1601267	WORD	n/a	wordpools/wordpool_EN.txt	GOLD	12.0	13	n/a	n/a	pyFR	0	UP029
2770.185	1.6	1602703	WORD	n/a	wordpools/wordpool_EN.txt	SHARK	13.0	13	n/a	n/a	pyFR	0	UP029
2772.722	1.6	1604002	WORD	n/a	wordpools/wordpool_EN.txt	BOX	14.0	13	n/a	n/a	pyFR	0	UP029
2775.377	1.6	1605362	WORD	n/a	wordpools/wordpool_EN.txt	FLOOR	15.0	13	n/a	n/a	pyFR	0	UP029
2776.997	1.1	1606191	START	n/a	n/a	n/a	n/a	13	[-999 -999 -999]	-999.0	pyFR	0	UP029
2778.097	3.307	1606754	PROB	3.284	n/a	n/a	n/a	13	[7 4 4]	15.0	pyFR	0	UP029
2781.404	3.138	1608448	PROB	3.104	n/a	n/a	n/a	13	[7 3 8]	18.0	pyFR	0	UP029
2784.542	1.837	1610054	PROB	1.814	n/a	n/a	n/a	13	[1 1 3]	5.0	pyFR	0	UP029
2786.379	3.288	1610995	PROB	3.264	n/a	n/a	n/a	13	[6 8 9]	23.0	pyFR	0	UP029
2789.667	4.157	1612678	PROB	4.128	n/a	n/a	n/a	13	[6 8 8]	22.0	pyFR	0	UP029
2793.824	2.371	1614807	PROB	2.34	n/a	n/a	n/a	13	[4 2 2]	8.0	pyFR	0	UP029
2796.195	2.217	1616021	PROB	2.217	n/a	n/a	n/a	13	[4 5 2]	11.0	pyFR	0	UP029
2798.412	1.239	1617156	STOP	n/a	n/a	n/a	n/a	13	[-999 -999 -999]	-999.0	pyFR	0	UP029
2799.651	3.047	1617791	REC_START	n/a	n/a	n/a	-999.0	13	n/a	n/a	pyFR	0	UP029
2802.698	0.579	1619351	REC_WORD	3.047	n/a	CAT	-999.0	13	n/a	n/a	pyFR	0	UP029
2803.277	2.024	1619647	REC_WORD	3.626	n/a	FOOD	-999.0	13	n/a	n/a	pyFR	0	UP029
2805.301	1.64	1620683	REC_WORD	5.65	n/a	CUP	-999.0	13	n/a	n/a	pyFR	0	UP029
2806.941	1.658	1621523	REC_WORD	7.29	n/a	FLOOR	-999.0	13	n/a	n/a	pyFR	0	UP029
2808.599	2.369	1622372	REC_WORD	8.948	n/a	SHARK	-999.0	13	n/a	n/a	pyFR	0	UP029
2810.968	28.904	1623585	REC_WORD	11.317	n/a	JAIL	-999.0	13	n/a	n/a	pyFR	0	UP029
2839.872	7.943	1638385	REC_WORD	40.221	n/a	BOX	-999.0	13	n/a	n/a	pyFR	0	UP029
2847.815	0.016	1642452	TRIAL	n/a	n/a	n/a	-999.0	14	n/a	n/a	pyFR	0	UP029
2847.831	1.6	1642460	ORIENT	n/a	n/a	n/a	-999.0	14	n/a	n/a	pyFR	0	UP029
2850.72	1.6	1643939	WORD	n/a	wordpools/wordpool_EN.txt	BOOK	1.0	14	n/a	n/a	pyFR	0	UP029
2853.275	1.6	1645247	WORD	n/a	wordpools/wordpool_EN.txt	CLOUD	2.0	14	n/a	n/a	pyFR	0	UP029
2855.761	1.6	1646520	WORD	n/a	wordpools/wordpool_EN.txt	LEAF	3.0	14	n/a	n/a	pyFR	0	UP029
2858.55	1.6	1647948	WORD	n/a	wordpools/wordpool_EN.txt	POLE	4.0	14	n/a	n/a	pyFR	0	UP029
2861.272	1.6	1649342	WORD	n/a	wordpools/wordpool_EN.txt	FLAME	5.0	14	n/a	n/a	pyFR	0	UP029
2863.792	1.6	1650632	WORD	n/a	wordpools/wordpool_EN.txt	PEAR	6.0	14	n/a	n/a	pyFR	0	UP029
2866.596	1.6	1652068	WORD	n/a	wordpools/wordpool_EN.txt	STAR	7.0	14	n/a	n/a	pyFR	0	UP029
2869.034	1.6	1653316	WORD	n/a	wordpools/wordpool_EN.txt	STORE	8.0	14	n/a	n/a	pyFR	0	UP029
2871.489	1.6	1654573	WORD	n/a	wordpools/wordpool_EN.txt	WOLF	9.0	14	n/a	n/a	pyFR	0	UP029
2874.21	1.6	1655967	WORD	n/a	wordpools/wordpool_EN.txt	PHONE	10.0	14	n/a	n/a	pyFR	0	UP029
2876.663	1.6	1657223	WORD	n/a	wordpools/wordpool_EN.txt	WAVE	11.0	14	n/a	n/a	pyFR	0	UP029
2879.452	1.6	1658651	WORD	n/a	wordpools/wordpool_EN.txt	OAK	12.0	14	n/a	n/a	pyFR	0	UP029
2882.207	1.6	1660061	WORD	n/a	wordpools/wordpool_EN.txt	WHEEL	13.0	14	n/a	n/a	pyFR	0	UP029
2884.66	1.6	1661317	WORD	n/a	wordpools/wordpool_EN.txt	ANT	14.0	14	n/a	n/a	pyFR	0	UP029
2887.249	1.6	1662643	WORD	n/a	wordpools/wordpool_EN.txt	BALL	15.0	14	n/a	n/a	pyFR	0	UP029
2888.868	0.867	1663472	START	n/a	n/a	n/a	n/a	14	[-999 -999 -999]	-999.0	pyFR	0	UP029
2889.735	3.724	1663916	PROB	3.694	n/a	n/a	n/a	14	[4 3 9]	16.0	pyFR	0	UP029
2893.459	3.355	1665823	PROB	3.321	n/a	n/a	n/a	14	[2 4 8]	14.0	pyFR	0	UP029
2896.814	2.705	1667540	PROB	2.679	n/a	n/a	n/a	14	[2 5 7]	14.0	pyFR	0	UP029
2899.519	2.888	1668925	PROB	2.862	n/a	n/a	n/a	14	[9 6 5]	20.0	pyFR	0	UP029
2902.407	2.32	1670404	PROB	2.293	n/a	n/a	n/a	14	[2 3 6]	11.0	pyFR	0	UP029
2904.727	2.187	1671592	PROB	2.164	n/a	n/a	n/a	14	[3 3 5]	11.0	pyFR	0	UP029
2906.914	2.507	1672712	PROB	2.507	n/a	n/a	n/a	14	[8 4 1]	13.0	pyFR	0	UP029
2909.421	1.084	1673996	STOP	n/a	n/a	n/a	n/a	14	[-999 -999 -999]	-999.0	pyFR	0	UP029
2910.505	2.527	1674551	REC_START	n/a	n/a	n/a	-999.0	14	n/a	n/a	pyFR	0	UP029
2913.032	4.149	1675844	REC_WORD	2.527	n/a	ANT	-999.0	14	n/a	n/a	pyFR	0	UP029
2917.181	9.227	1677969	REC_WORD	6.676	n/a	GEESE	-999.0	14	n/a	n/a	pyFR	0	UP029
2926.408	5.213	1682693	REC_WORD	15.903	n/a	ROAD	-999.0	14	n/a	n/a	pyFR	0	UP029
2931.621	3.958	1685363	REC_WORD	21.116	n/a	REEF	-999.0	14	n/a	n/a	pyFR	0	UP029
2935.579	7.629	1687389	REC_WORD	25.074	n/a	BOOK	-999.0	14	n/a	n/a	pyFR	0	UP029
2943.208	14.977	1691295	REC_WORD	32.703	n/a	SNAKE	-999.0	14	n/a	n/a	pyFR	0	UP029
2958.185	0.016	1698964	TRIAL	n/a	n/a	n/a	-999.0	15	n/a	n/a	pyFR	0	UP029
2958.201	1.6	1698972	ORIENT	n/a	n/a	n/a	-999.0	15	n/a	n/a	pyFR	0	UP029
2961.122	1.6	1700468	WORD	n/a	wordpools/wordpool_EN.txt	PEN	1.0	15	n/a	n/a	pyFR	0	UP029
2963.676	1.6	1701775	WORD	n/a	wordpools/wordpool_EN.txt	SHEEP	2.0	15	n/a	n/a	pyFR	0	UP029
2966.114	1.6	1703024	WORD	n/a	wordpools/wordpool_EN.txt	WING	3.0	15	n/a	n/a	pyFR	0	UP029
2968.935	1.6	1704468	WORD	n/a	wordpools/wordpool_EN.txt	ROSE	4.0	15	n/a	n/a	pyFR	0	UP029
2971.524	1.6	1705794	WORD	n/a	wordpools/wordpool_EN.txt	DOLL	5.0	15	n/a	n/a	pyFR	0	UP029
2974.295	1.6	1707213	WORD	n/a	wordpools/wordpool_EN.txt	DEER	6.0	15	n/a	n/a	pyFR	0	UP029
2976.999	1.6	1708597	WORD	n/a	wordpools/wordpool_EN.txt	CLOTH	7.0	15	n/a	n/a	pyFR	0	UP029
2979.454	1.6	1709854	WORD	n/a	wordpools/wordpool_EN.txt	SHRIMP	8.0	15	n/a	n/a	pyFR	0	UP029
2982.175	1.6	1711247	WORD	n/a	wordpools/wordpool_EN.txt	DAD	9.0	15	n/a	n/a	pyFR	0	UP029
2984.812	1.6	1712598	WORD	n/a	wordpools/wordpool_EN.txt	SPONGE	10.0	15	n/a	n/a	pyFR	0	UP029
2987.35	1.6	1713897	WORD	n/a	wordpools/wordpool_EN.txt	SALT	11.0	15	n/a	n/a	pyFR	0	UP029
2990.154	1.6	1715333	WORD	n/a	wordpools/wordpool_EN.txt	ELF	12.0	15	n/a	n/a	pyFR	0	UP029
2992.675	1.6	1716624	WORD	n/a	wordpools/wordpool_EN.txt	ROOM	13.0	15	n/a	n/a	pyFR	0	UP029
2995.297	1.6	1717966	WORD	n/a	wordpools/wordpool_EN.txt	FARM	14.0	15	n/a	n/a	pyFR	0	UP029
2997.967	1.6	1719333	WORD	n/a	wordpools/wordpool_EN.txt	BIRD	15.0	15	n/a	n/a	pyFR	0	UP029
2999.571	1.051	1720155	START	n/a	n/a	n/a	n/a	15	[-999 -999 -999]	-999.0	pyFR	0	UP029
3000.622	3.807	1720693	PROB	3.774	n/a	n/a	n/a	15	[5 7 9]	21.0	pyFR	0	UP029
3004.429	2.403	1722642	PROB	2.383	n/a	n/a	n/a	15	[7 6 1]	14.0	pyFR	0	UP029
3006.832	2.522	1723872	PROB	2.484	n/a	n/a	n/a	15	[4 2 5]	11.0	pyFR	0	UP029
3009.354	2.989	1725164	PROB	2.963	n/a	n/a	n/a	15	[5 8 1]	14.0	pyFR	0	UP029
3012.343	2.319	1726694	PROB	2.292	n/a	n/a	n/a	15	[8 3 3]	14.0	pyFR	0	UP029
3014.662	3.356	1727882	PROB	3.333	n/a	n/a	n/a	15	[4 8 5]	17.0	pyFR	0	UP029
3018.018	2.467	1729600	PROB	2.467	n/a	n/a	n/a	15	[2 8 1]	11.0	pyFR	0	UP029
3020.485	1.139	1730863	STOP	n/a	n/a	n/a	n/a	15	[-999 -999 -999]	-999.0	pyFR	0	UP029
3021.624	2.301	1731446	REC_START	n/a	n/a	n/a	-999.0	15	n/a	n/a	pyFR	0	UP029
3023.925	0.947	1732625	REC_WORD	2.301	n/a	PEN	-999.0	15	n/a	n/a	pyFR	0	UP029
3024.872	1.472	1733109	REC_WORD	3.248	n/a	SHEEP	-999.0	15	n/a	n/a	pyFR	0	UP029
3026.344	1.662	1733863	REC_WORD	4.72	n/a	WING	-999.0	15	n/a	n/a	pyFR	0	UP029
3028.006	5.371	1734714	REC_WORD	6.382	n/a	ROSE	-999.0	15	n/a	n/a	pyFR	0	UP029
3033.377	3.952	1737464	REC_WORD	11.753	n/a	LEAP	-999.0	15	n/a	n/a	pyFR	0	UP029
3037.329	8.5	1739488	REC_WORD	15.705	n/a	PLATE	-999.0	15	n/a	n/a	pyFR	0	UP029
3045.829	9.068	1743840	REC_WORD	24.205	n/a	TOOTH	-999.0	15	n/a	n/a	pyFR	0	UP029
3054.897	11.316	1748483	REC_WORD	33.273	n/a	DEER	-999.0	15	n/a	n/a	pyFR	0	UP029
3066.213	8.285	1754277	REC_WORD	44.589	n/a	BRICK	-999.0	15	n/a	n/a	pyFR	0	UP029
3074.498	0.016	1758519	TRIAL	n/a	n/a	n/a	-999.0	16	n/a	n/a	pyFR	0	UP029
3074.514	1.6	1758527	ORIENT	n/a	n/a	n/a	-999.0	16	n/a	n/a	pyFR	0	UP029
3077.469	1.6	1760040	WORD	n/a	wordpools/wordpool_EN.txt	FLEA	1.0	16	n/a	n/a	pyFR	0	UP029
3080.273	1.6	1761476	WORD	n/a	wordpools/wordpool_EN.txt	HEART	2.0	16	n/a	n/a	pyFR	0	UP029
3082.995	1.6	1762870	WORD	n/a	wordpools/wordpool_EN.txt	TREE	3.0	16	n/a	n/a	pyFR	0	UP029
3085.799	1.6	1764306	WORD	n/a	wordpools/wordpool_EN.txt	NOSE	4.0	16	n/a	n/a	pyFR	0	UP029
3088.404	1.6	1765639	WORD	n/a	wordpools/wordpool_EN.txt	CROWN	5.0	16	n/a	n/a	pyFR	0	UP029
3090.857	1.6	1766895	WORD	n/a	wordpools/wordpool_EN.txt	LAND	6.0	16	n/a	n/a	pyFR	0	UP029
3093.628	1.6	1768314	WORD	n/a	wordpools/wordpool_EN.txt	BLUSH	7.0	16	n/a	n/a	pyFR	0	UP029
3096.133	1.6	1769597	WORD	n/a	wordpools/wordpool_EN.txt	CALF	8.0	16	n/a	n/a	pyFR	0	UP029
3098.937	1.6	1771033	WORD	n/a	wordpools/wordpool_EN.txt	STICK	9.0	16	n/a	n/a	pyFR	0	UP029
3101.659	1.6	1772426	WORD	n/a	wordpools/wordpool_EN.txt	NEST	10.0	16	n/a	n/a	pyFR	0	UP029
3104.481	1.6	1773871	WORD	n/a	wordpools/wordpool_EN.txt	SEAL	11.0	16	n/a	n/a	pyFR	0	UP029
3107.219	1.6	1775273	WORD	n/a	wordpools/wordpool_EN.txt	SCHOOL	12.0	16	n/a	n/a	pyFR	0	UP029
3110.039	1.6	1776717	WORD	n/a	wordpools/wordpool_EN.txt	BRANCH	13.0	16	n/a	n/a	pyFR	0	UP029
3112.827	1.6	1778145	WORD	n/a	wordpools/wordpool_EN.txt	GATE	14.0	16	n/a	n/a	pyFR	0	UP029
3115.466	1.6	1779496	WORD	n/a	wordpools/wordpool_EN.txt	PIN	15.0	16	n/a	n/a	pyFR	0	UP029
3117.086	1.034	1780325	START	n/a	n/a	n/a	n/a	16	[-999 -999 -999]	-999.0	pyFR	0	UP029
3118.12	2.938	1780855	PROB	2.916	n/a	n/a	n/a	16	[5 5 1]	11.0	pyFR	0	UP029
3121.058	4.541	1782359	PROB	4.514	n/a	n/a	n/a	16	[8 7 8]	23.0	pyFR	0	UP029
3125.599	2.52	1784684	PROB	2.484	n/a	n/a	n/a	16	[4 2 7]	13.0	pyFR	0	UP029
3128.119	2.272	1785974	PROB	2.237	n/a	n/a	n/a	16	[9 9 2]	20.0	pyFR	0	UP029
3130.391	8.038	1787138	PROB	8.038	n/a	n/a	n/a	16	[5 8 3]	16.0	pyFR	0	UP029
3138.429	1.366	1791253	STOP	n/a	n/a	n/a	n/a	16	[-999 -999 -999]	-999.0	pyFR	0	UP029
3139.795	1.634	1791953	REC_START	n/a	n/a	n/a	-999.0	16	n/a	n/a	pyFR	0	UP029
3141.429	3.214	1792790	REC_WORD	1.634	n/a	FLEA	-999.0	16	n/a	n/a	pyFR	0	UP029
3144.643	6.5	1794435	REC_WORD	4.848	n/a	HEART	-999.0	16	n/a	n/a	pyFR	0	UP029
3151.143	631.096	1797763	REC_WORD_VV	11.348	n/a	<>	-999.0	16	n/a	n/a	pyFR	0	UP029
3782.239	0.07	2120900	SESS_END	n/a	n/a	n/a	-999.0	16	n/a	n/a	pyFR	0	UP029
3782.309	0.0	2120936	E	n/a	n/a	n/a	-999.0	16	n/a	n/a	pyFR	0	UP029
