onset	duration	sample	trial_type	response_time	stim_file	item_name	serialpos	list	test	answer	experiment	session	subject
0.0	0.0	184298	B	n/a	n/a	n/a	-999	-999	n/a	n/a	pyFR	0	UP029
0.0	67.141	184298	SESS_START	n/a	n/a	n/a	-999	-999	n/a	n/a	pyFR	0	UP029
67.141	0.01	218676	START	n/a	n/a	n/a	n/a	0	[-999 -999 -999]	-999	pyFR	0	UP029
67.151	3.106	218681	PROB	3.077	n/a	n/a	n/a	0	[1 4 3]	8	pyFR	0	UP029
70.257	4.257	220272	PROB	4.228	n/a	n/a	n/a	0	[3 9 8]	20	pyFR	0	UP029
74.514	3.071	222451	PROB	3.042	n/a	n/a	n/a	0	[4 5 5]	14	pyFR	0	UP029
77.585	2.89	224024	PROB	2.867	n/a	n/a	n/a	0	[3 7 7]	17	pyFR	0	UP029
80.475	2.503	225504	PROB	2.464	n/a	n/a	n/a	0	[3 9 1]	13	pyFR	0	UP029
82.978	2.572	226785	PROB	2.539	n/a	n/a	n/a	0	[5 2 1]	8	pyFR	0	UP029
85.55	4.908	228102	PROB	4.878	n/a	n/a	n/a	0	[9 9 6]	24	pyFR	0	UP029
90.458	2.955	230615	PROB	2.93	n/a	n/a	n/a	0	[6 1 9]	16	pyFR	0	UP029
93.413	2.554	232128	PROB	2.526	n/a	n/a	n/a	0	[9 1 1]	11	pyFR	0	UP029
95.967	3.916	233436	PROB	3.916	n/a	n/a	n/a	0	[3 8 6]	17	pyFR	0	UP029
99.883	50.826	235441	STOP	n/a	n/a	n/a	n/a	0	[-999 -999 -999]	-999	pyFR	0	UP029
150.709	0.016	261465	TRIAL	n/a	n/a	n/a	-999	1	n/a	n/a	pyFR	0	UP029
150.725	2.889	261473	ORIENT	n/a	n/a	n/a	-999	1	n/a	n/a	pyFR	0	UP029
153.614	2.521	262953	WORD	n/a	wordpools/wordpool_EN.txt	SUIT	1	1	n/a	n/a	pyFR	0	UP029
156.135	2.821	264243	WORD	n/a	wordpools/wordpool_EN.txt	LAWN	2	1	n/a	n/a	pyFR	0	UP029
158.956	2.589	265688	WORD	n/a	wordpools/wordpool_EN.txt	DRUM	3	1	n/a	n/a	pyFR	0	UP029
161.545	2.469	267013	WORD	n/a	wordpools/wordpool_EN.txt	SQUARE	4	1	n/a	n/a	pyFR	0	UP029
164.014	2.422	268278	WORD	n/a	wordpools/wordpool_EN.txt	LAKE	5	1	n/a	n/a	pyFR	0	UP029
166.436	2.721	269518	WORD	n/a	wordpools/wordpool_EN.txt	STRING	6	1	n/a	n/a	pyFR	0	UP029
169.157	2.721	270911	WORD	n/a	wordpools/wordpool_EN.txt	HAND	7	1	n/a	n/a	pyFR	0	UP029
171.878	2.488	272304	WORD	n/a	wordpools/wordpool_EN.txt	SWORD	8	1	n/a	n/a	pyFR	0	UP029
174.366	2.587	273578	WORD	n/a	wordpools/wordpool_EN.txt	SHIELD	9	1	n/a	n/a	pyFR	0	UP029
176.953	2.621	274903	WORD	n/a	wordpools/wordpool_EN.txt	BAT	10	1	n/a	n/a	pyFR	0	UP029
179.574	2.79	276245	WORD	n/a	wordpools/wordpool_EN.txt	MUD	11	1	n/a	n/a	pyFR	0	UP029
182.364	2.603	277673	WORD	n/a	wordpools/wordpool_EN.txt	BROOM	12	1	n/a	n/a	pyFR	0	UP029
184.967	2.588	279006	WORD	n/a	wordpools/wordpool_EN.txt	CHIN	13	1	n/a	n/a	pyFR	0	UP029
187.555	2.755	280331	WORD	n/a	wordpools/wordpool_EN.txt	FROG	14	1	n/a	n/a	pyFR	0	UP029
190.31	1.619	281742	WORD	n/a	wordpools/wordpool_EN.txt	TRUCK	15	1	n/a	n/a	pyFR	0	UP029
191.929	1.201	282571	START	n/a	n/a	n/a	n/a	1	[-999 -999 -999]	-999	pyFR	0	UP029
193.13	2.939	283186	PROB	2.913	n/a	n/a	n/a	1	[8 2 7]	17	pyFR	0	UP029
196.069	2.019	284691	PROB	1.983	n/a	n/a	n/a	1	[1 4 1]	6	pyFR	0	UP029
198.088	3.273	285724	PROB	3.244	n/a	n/a	n/a	1	[3 6 3]	12	pyFR	0	UP029
201.361	2.754	287400	PROB	2.731	n/a	n/a	n/a	1	[6 5 3]	14	pyFR	0	UP029
204.115	2.938	288810	PROB	2.904	n/a	n/a	n/a	1	[7 2 3]	12	pyFR	0	UP029
207.053	2.972	290315	PROB	2.934	n/a	n/a	n/a	1	[9 9 7]	25	pyFR	0	UP029
210.025	2.299	291836	PROB	2.299	n/a	n/a	n/a	1	[8 1 9]	18	pyFR	0	UP029
212.324	1.059	293014	STOP	n/a	n/a	n/a	n/a	1	[-999 -999 -999]	-999	pyFR	0	UP029
213.383	1.807	293556	REC_START	n/a	n/a	n/a	-999	1	n/a	n/a	pyFR	0	UP029
215.19	0.768	294481	REC_WORD	1.807	n/a	LAWN	-999	1	n/a	n/a	pyFR	0	UP029
215.958	0.774	294874	REC_WORD	2.575	n/a	DRUM	-999	1	n/a	n/a	pyFR	0	UP029
216.732	2.332	295271	REC_WORD	3.349	n/a	TRUCK	-999	1	n/a	n/a	pyFR	0	UP029
219.064	1.544	296465	REC_WORD	5.681	n/a	FROG	-999	1	n/a	n/a	pyFR	0	UP029
220.608	20.522	297255	REC_WORD	7.225	n/a	LAKE	-999	1	n/a	n/a	pyFR	0	UP029
241.13	1.0	307763	REC_WORD_VV	27.747	n/a	<>	-999	1	n/a	n/a	pyFR	0	UP029
242.13	1.0	308275	REC_WORD_VV	28.747	n/a	<>	-999	1	n/a	n/a	pyFR	0	UP029
243.13	1.0	308787	REC_WORD_VV	29.747	n/a	<>	-999	1	n/a	n/a	pyFR	0	UP029
244.13	28.135	309299	REC_WORD_VV	30.747	n/a	<>	-999	1	n/a	n/a	pyFR	0	UP029
272.265	0.016	323705	TRIAL	n/a	n/a	n/a	-999	2	n/a	n/a	pyFR	0	UP029
272.281	2.887	323713	ORIENT	n/a	n/a	n/a	-999	2	n/a	n/a	pyFR	0	UP029
275.168	2.521	325191	WORD	n/a	wordpools/wordpool_EN.txt	TOAD	1	2	n/a	n/a	pyFR	0	UP029
277.689	2.706	326482	WORD	n/a	wordpools/wordpool_EN.txt	VINE	2	2	n/a	n/a	pyFR	0	UP029
280.395	2.62	327868	WORD	n/a	wordpools/wordpool_EN.txt	HORN	3	2	n/a	n/a	pyFR	0	UP029
283.015	2.522	329209	WORD	n/a	wordpools/wordpool_EN.txt	BED	4	2	n/a	n/a	pyFR	0	UP029
285.537	2.789	330500	WORD	n/a	wordpools/wordpool_EN.txt	CASH	5	2	n/a	n/a	pyFR	0	UP029
288.326	2.686	331929	WORD	n/a	wordpools/wordpool_EN.txt	HOOK	6	2	n/a	n/a	pyFR	0	UP029
291.012	2.738	333304	WORD	n/a	wordpools/wordpool_EN.txt	PEA	7	2	n/a	n/a	pyFR	0	UP029
293.75	2.522	334706	WORD	n/a	wordpools/wordpool_EN.txt	TEA	8	2	n/a	n/a	pyFR	0	UP029
296.272	2.569	335997	WORD	n/a	wordpools/wordpool_EN.txt	MOOSE	9	2	n/a	n/a	pyFR	0	UP029
298.841	2.456	337312	WORD	n/a	wordpools/wordpool_EN.txt	FENCE	10	2	n/a	n/a	pyFR	0	UP029
301.297	2.687	338570	WORD	n/a	wordpools/wordpool_EN.txt	CARD	11	2	n/a	n/a	pyFR	0	UP029
303.984	2.721	339946	WORD	n/a	wordpools/wordpool_EN.txt	SMILE	12	2	n/a	n/a	pyFR	0	UP029
306.705	2.639	341339	WORD	n/a	wordpools/wordpool_EN.txt	HAT	13	2	n/a	n/a	pyFR	0	UP029
309.344	2.486	342690	WORD	n/a	wordpools/wordpool_EN.txt	FRUIT	14	2	n/a	n/a	pyFR	0	UP029
311.83	1.604	343963	WORD	n/a	wordpools/wordpool_EN.txt	SKY	15	2	n/a	n/a	pyFR	0	UP029
313.434	0.951	344784	START	n/a	n/a	n/a	n/a	2	[-999 -999 -999]	-999	pyFR	0	UP029
314.385	2.939	345271	PROB	2.915	n/a	n/a	n/a	2	[3 4 5]	12	pyFR	0	UP029
317.324	2.036	346776	PROB	2.009	n/a	n/a	n/a	2	[7 7 7]	21	pyFR	0	UP029
319.36	5.008	347819	PROB	4.972	n/a	n/a	n/a	2	[3 8 4]	15	pyFR	0	UP029
324.368	2.337	350383	PROB	2.316	n/a	n/a	n/a	2	[1 7 8]	16	pyFR	0	UP029
326.705	1.92	351580	PROB	1.89	n/a	n/a	n/a	2	[1 4 1]	6	pyFR	0	UP029
328.625	3.405	352563	PROB	3.37	n/a	n/a	n/a	2	[2 7 8]	17	pyFR	0	UP029
332.03	3.207	354306	PROB	3.207	n/a	n/a	n/a	2	[8 4 2]	14	pyFR	0	UP029
335.237	1.153	355948	STOP	n/a	n/a	n/a	n/a	2	[-999 -999 -999]	-999	pyFR	0	UP029
336.39	1.602	356539	REC_START	n/a	n/a	n/a	-999	2	n/a	n/a	pyFR	0	UP029
337.992	0.724	357359	REC_WORD	1.602	n/a	TOAD	-999	2	n/a	n/a	pyFR	0	UP029
338.716	2.782	357729	REC_WORD	2.326	n/a	VINE	-999	2	n/a	n/a	pyFR	0	UP029
341.498	2.735	359154	REC_WORD	5.108	n/a	LAKE	-999	2	n/a	n/a	pyFR	0	UP029
344.233	13.951	360554	REC_WORD	7.843	n/a	HOOK	-999	2	n/a	n/a	pyFR	0	UP029
358.184	7.644	367698	REC_WORD	21.794	n/a	GROUND	-999	2	n/a	n/a	pyFR	0	UP029
365.828	1.412	371612	REC_WORD	29.438	n/a	SMILE	-999	2	n/a	n/a	pyFR	0	UP029
367.24	7.939	372334	REC_WORD	30.85	n/a	CARD	-999	2	n/a	n/a	pyFR	0	UP029
375.179	4.659	376399	REC_WORD	38.789	n/a	WRAP	-999	2	n/a	n/a	pyFR	0	UP029
379.838	6.017	378785	REC_WORD	43.448	n/a	TOAD	-999	2	n/a	n/a	pyFR	0	UP029
385.855	0.016	381866	TRIAL	n/a	n/a	n/a	-999	3	n/a	n/a	pyFR	0	UP029
385.871	2.738	381874	ORIENT	n/a	n/a	n/a	-999	3	n/a	n/a	pyFR	0	UP029
388.609	2.438	383276	WORD	n/a	wordpools/wordpool_EN.txt	TOY	1	3	n/a	n/a	pyFR	0	UP029
391.047	2.704	384524	WORD	n/a	wordpools/wordpool_EN.txt	KITE	2	3	n/a	n/a	pyFR	0	UP029
393.751	2.756	385909	WORD	n/a	wordpools/wordpool_EN.txt	WALL	3	3	n/a	n/a	pyFR	0	UP029
396.507	2.537	387320	WORD	n/a	wordpools/wordpool_EN.txt	CLOCK	4	3	n/a	n/a	pyFR	0	UP029
399.044	2.654	388619	WORD	n/a	wordpools/wordpool_EN.txt	FUDGE	5	3	n/a	n/a	pyFR	0	UP029
401.698	2.772	389978	WORD	n/a	wordpools/wordpool_EN.txt	SKUNK	6	3	n/a	n/a	pyFR	0	UP029
404.47	2.453	391397	WORD	n/a	wordpools/wordpool_EN.txt	APE	7	3	n/a	n/a	pyFR	0	UP029
406.923	2.439	392653	WORD	n/a	wordpools/wordpool_EN.txt	HILL	8	3	n/a	n/a	pyFR	0	UP029
409.362	2.77	393902	WORD	n/a	wordpools/wordpool_EN.txt	WEED	9	3	n/a	n/a	pyFR	0	UP029
412.132	2.772	395320	WORD	n/a	wordpools/wordpool_EN.txt	STORM	10	3	n/a	n/a	pyFR	0	UP029
414.904	2.771	396740	WORD	n/a	wordpools/wordpool_EN.txt	COAT	11	3	n/a	n/a	pyFR	0	UP029
417.675	2.605	398158	WORD	n/a	wordpools/wordpool_EN.txt	MOUTH	12	3	n/a	n/a	pyFR	0	UP029
420.28	2.821	399492	WORD	n/a	wordpools/wordpool_EN.txt	PLANT	13	3	n/a	n/a	pyFR	0	UP029
423.101	2.654	400937	WORD	n/a	wordpools/wordpool_EN.txt	BEAR	14	3	n/a	n/a	pyFR	0	UP029
425.755	1.605	402296	WORD	n/a	wordpools/wordpool_EN.txt	CANE	15	3	n/a	n/a	pyFR	0	UP029
427.36	0.967	403117	START	n/a	n/a	n/a	n/a	3	[-999 -999 -999]	-999	pyFR	0	UP029
428.327	3.188	403613	PROB	3.157	n/a	n/a	n/a	3	[2 9 6]	17	pyFR	0	UP029
431.515	4.574	405245	PROB	4.536	n/a	n/a	n/a	3	[6 8 8]	22	pyFR	0	UP029
436.089	2.255	407587	PROB	2.235	n/a	n/a	n/a	3	[8 2 5]	15	pyFR	0	UP029
438.344	3.538	408742	PROB	3.515	n/a	n/a	n/a	3	[9 5 2]	16	pyFR	0	UP029
441.882	2.688	410553	PROB	2.658	n/a	n/a	n/a	3	[1 1 4]	6	pyFR	0	UP029
444.57	1.704	411929	PROB	1.675	n/a	n/a	n/a	3	[4 2 1]	7	pyFR	0	UP029
446.274	3.242	412802	PROB	3.242	n/a	n/a	n/a	3	[6 8 8]	22	pyFR	0	UP029
449.516	1.132	414462	STOP	n/a	n/a	n/a	n/a	3	[-999 -999 -999]	-999	pyFR	0	UP029
450.648	11.307	415041	REC_START	n/a	n/a	n/a	-999	3	n/a	n/a	pyFR	0	UP029
461.955	5.634	420831	REC_WORD_VV	11.307	n/a	<>	-999	3	n/a	n/a	pyFR	0	UP029
467.589	20.145	423716	REC_WORD	16.941	n/a	ROOF	-999	3	n/a	n/a	pyFR	0	UP029
487.734	17.774	434030	REC_WORD	37.086	n/a	COAT	-999	3	n/a	n/a	pyFR	0	UP029
505.508	0.015	443131	TRIAL	n/a	n/a	n/a	-999	4	n/a	n/a	pyFR	0	UP029
505.523	2.788	443139	ORIENT	n/a	n/a	n/a	-999	4	n/a	n/a	pyFR	0	UP029
508.311	2.487	444566	WORD	n/a	wordpools/wordpool_EN.txt	SNAIL	1	4	n/a	n/a	pyFR	0	UP029
510.798	2.489	445840	WORD	n/a	wordpools/wordpool_EN.txt	CAVE	2	4	n/a	n/a	pyFR	0	UP029
513.287	2.47	447114	WORD	n/a	wordpools/wordpool_EN.txt	SPRING	3	4	n/a	n/a	pyFR	0	UP029
515.757	2.471	448379	WORD	n/a	wordpools/wordpool_EN.txt	RAKE	4	4	n/a	n/a	pyFR	0	UP029
518.228	2.587	449644	WORD	n/a	wordpools/wordpool_EN.txt	STEAK	5	4	n/a	n/a	pyFR	0	UP029
520.815	2.689	450969	WORD	n/a	wordpools/wordpool_EN.txt	PALM	6	4	n/a	n/a	pyFR	0	UP029
523.504	2.587	452346	WORD	n/a	wordpools/wordpool_EN.txt	POOL	7	4	n/a	n/a	pyFR	0	UP029
526.091	2.52	453670	WORD	n/a	wordpools/wordpool_EN.txt	PLATE	8	4	n/a	n/a	pyFR	0	UP029
528.611	2.723	454961	WORD	n/a	wordpools/wordpool_EN.txt	YARD	9	4	n/a	n/a	pyFR	0	UP029
531.334	2.553	456355	WORD	n/a	wordpools/wordpool_EN.txt	TRAIN	10	4	n/a	n/a	pyFR	0	UP029
533.887	2.572	457662	WORD	n/a	wordpools/wordpool_EN.txt	POND	11	4	n/a	n/a	pyFR	0	UP029
536.459	2.771	458979	WORD	n/a	wordpools/wordpool_EN.txt	MAIL	12	4	n/a	n/a	pyFR	0	UP029
539.23	2.621	460398	WORD	n/a	wordpools/wordpool_EN.txt	SIGN	13	4	n/a	n/a	pyFR	0	UP029
541.851	2.821	461740	WORD	n/a	wordpools/wordpool_EN.txt	DOOR	14	4	n/a	n/a	pyFR	0	UP029
544.672	1.605	463184	WORD	n/a	wordpools/wordpool_EN.txt	CLOWN	15	4	n/a	n/a	pyFR	0	UP029
546.277	1.084	464006	START	n/a	n/a	n/a	n/a	4	[-999 -999 -999]	-999	pyFR	0	UP029
547.361	3.237	464561	PROB	3.211	n/a	n/a	n/a	4	[4 2 3]	9	pyFR	0	UP029
550.598	2.438	466218	PROB	2.406	n/a	n/a	n/a	4	[2 5 3]	10	pyFR	0	UP029
553.036	2.421	467467	PROB	2.385	n/a	n/a	n/a	4	[3 5 7]	15	pyFR	0	UP029
555.457	3.072	468706	PROB	3.043	n/a	n/a	n/a	4	[6 8 2]	16	pyFR	0	UP029
558.529	6.795	470279	PROB	6.763	n/a	n/a	n/a	4	[7 9 6]	22	pyFR	0	UP029
565.324	3.352	473759	PROB	3.352	n/a	n/a	n/a	4	[5 4 5]	19	pyFR	0	UP029
568.676	1.139	475475	STOP	n/a	n/a	n/a	n/a	4	[-999 -999 -999]	-999	pyFR	0	UP029
569.815	6.967	476058	REC_START	n/a	n/a	n/a	-999	4	n/a	n/a	pyFR	0	UP029
576.782	1.274	479625	REC_WORD	6.967	n/a	PLANT	-999	4	n/a	n/a	pyFR	0	UP029
578.056	6.304	480278	REC_WORD	8.241	n/a	POOL	-999	4	n/a	n/a	pyFR	0	UP029
584.36	15.528	483505	REC_WORD	14.545	n/a	PILE	-999	4	n/a	n/a	pyFR	0	UP029
599.888	18.191	491456	REC_WORD	30.073	n/a	TOOL	-999	4	n/a	n/a	pyFR	0	UP029
618.079	0.016	500770	TRIAL	n/a	n/a	n/a	-999	5	n/a	n/a	pyFR	0	UP029
618.095	2.99	500779	ORIENT	n/a	n/a	n/a	-999	5	n/a	n/a	pyFR	0	UP029
621.085	2.603	502310	WORD	n/a	wordpools/wordpool_EN.txt	RIB	1	5	n/a	n/a	pyFR	0	UP029
623.688	2.606	503642	WORD	n/a	wordpools/wordpool_EN.txt	QUEEN	2	5	n/a	n/a	pyFR	0	UP029
626.294	2.636	504977	WORD	n/a	wordpools/wordpool_EN.txt	SNOW	3	5	n/a	n/a	pyFR	0	UP029
628.93	2.506	506326	WORD	n/a	wordpools/wordpool_EN.txt	MOTH	4	5	n/a	n/a	pyFR	0	UP029
631.436	2.52	507610	WORD	n/a	wordpools/wordpool_EN.txt	EGG	5	5	n/a	n/a	pyFR	0	UP029
633.956	2.671	508900	WORD	n/a	wordpools/wordpool_EN.txt	FLAG	6	5	n/a	n/a	pyFR	0	UP029
636.627	2.454	510267	WORD	n/a	wordpools/wordpool_EN.txt	JEEP	7	5	n/a	n/a	pyFR	0	UP029
639.081	2.638	511524	WORD	n/a	wordpools/wordpool_EN.txt	FOG	8	5	n/a	n/a	pyFR	0	UP029
641.719	2.689	512875	WORD	n/a	wordpools/wordpool_EN.txt	HOOF	9	5	n/a	n/a	pyFR	0	UP029
644.408	2.653	514252	WORD	n/a	wordpools/wordpool_EN.txt	PIPE	10	5	n/a	n/a	pyFR	0	UP029
647.061	2.521	515610	WORD	n/a	wordpools/wordpool_EN.txt	ARM	11	5	n/a	n/a	pyFR	0	UP029
649.582	2.471	516901	WORD	n/a	wordpools/wordpool_EN.txt	BOMB	12	5	n/a	n/a	pyFR	0	UP029
652.053	2.554	518166	WORD	n/a	wordpools/wordpool_EN.txt	OWL	13	5	n/a	n/a	pyFR	0	UP029
654.607	2.572	519474	WORD	n/a	wordpools/wordpool_EN.txt	TENT	14	5	n/a	n/a	pyFR	0	UP029
657.179	1.619	520791	WORD	n/a	wordpools/wordpool_EN.txt	BADGE	15	5	n/a	n/a	pyFR	0	UP029
658.798	1.034	521620	START	n/a	n/a	n/a	n/a	5	[-999 -999 -999]	-999	pyFR	0	UP029
659.832	2.922	522149	PROB	2.9	n/a	n/a	n/a	5	[1 9 2]	12	pyFR	0	UP029
662.754	2.756	523645	PROB	2.731	n/a	n/a	n/a	5	[6 7 4]	17	pyFR	0	UP029
665.51	2.302	525056	PROB	2.269	n/a	n/a	n/a	5	[9 8 2]	19	pyFR	0	UP029
667.812	4.024	526235	PROB	3.991	n/a	n/a	n/a	5	[6 8 9]	23	pyFR	0	UP029
671.836	3.89	528295	PROB	3.863	n/a	n/a	n/a	5	[8 9 9]	26	pyFR	0	UP029
675.726	3.815	530287	PROB	3.815	n/a	n/a	n/a	5	[9 4 9]	22	pyFR	0	UP029
679.541	1.21	532241	STOP	n/a	n/a	n/a	n/a	5	[-999 -999 -999]	-999	pyFR	0	UP029
680.751	2.479	532860	REC_START	n/a	n/a	n/a	-999	5	n/a	n/a	pyFR	0	UP029
683.23	1.023	534129	REC_WORD	2.479	n/a	QUEEN	-999	5	n/a	n/a	pyFR	0	UP029
684.253	1.391	534653	REC_WORD	3.502	n/a	ROOF	-999	5	n/a	n/a	pyFR	0	UP029
685.644	10.077	535365	REC_WORD	4.893	n/a	HOOF	-999	5	n/a	n/a	pyFR	0	UP029
695.721	7.212	540525	REC_WORD	14.97	n/a	ARM	-999	5	n/a	n/a	pyFR	0	UP029
702.933	16.146	544218	REC_WORD	22.182	n/a	CRATE	-999	5	n/a	n/a	pyFR	0	UP029
719.079	9.72	552485	REC_WORD	38.328	n/a	PLANE	-999	5	n/a	n/a	pyFR	0	UP029
728.799	0.016	557462	TRIAL	n/a	n/a	n/a	-999	6	n/a	n/a	pyFR	0	UP029
728.815	2.972	557470	ORIENT	n/a	n/a	n/a	-999	6	n/a	n/a	pyFR	0	UP029
731.787	2.788	558992	WORD	n/a	wordpools/wordpool_EN.txt	GOAT	1	6	n/a	n/a	pyFR	0	UP029
734.575	2.672	560419	WORD	n/a	wordpools/wordpool_EN.txt	LAMP	2	6	n/a	n/a	pyFR	0	UP029
737.247	2.553	561787	WORD	n/a	wordpools/wordpool_EN.txt	DOG	3	6	n/a	n/a	pyFR	0	UP029
739.8	2.723	563095	WORD	n/a	wordpools/wordpool_EN.txt	STREET	4	6	n/a	n/a	pyFR	0	UP029
742.523	2.436	564489	WORD	n/a	wordpools/wordpool_EN.txt	RAT	5	6	n/a	n/a	pyFR	0	UP029
744.959	2.738	565736	WORD	n/a	wordpools/wordpool_EN.txt	ARK	6	6	n/a	n/a	pyFR	0	UP029
747.697	2.655	567138	WORD	n/a	wordpools/wordpool_EN.txt	AXE	7	6	n/a	n/a	pyFR	0	UP029
750.352	2.687	568498	WORD	n/a	wordpools/wordpool_EN.txt	STOVE	8	6	n/a	n/a	pyFR	0	UP029
753.039	2.738	569873	WORD	n/a	wordpools/wordpool_EN.txt	ROPE	9	6	n/a	n/a	pyFR	0	UP029
755.777	2.438	571275	WORD	n/a	wordpools/wordpool_EN.txt	CAKE	10	6	n/a	n/a	pyFR	0	UP029
758.215	2.621	572524	WORD	n/a	wordpools/wordpool_EN.txt	COUCH	11	6	n/a	n/a	pyFR	0	UP029
760.836	2.438	573866	WORD	n/a	wordpools/wordpool_EN.txt	SHOE	12	6	n/a	n/a	pyFR	0	UP029
763.274	2.604	575114	WORD	n/a	wordpools/wordpool_EN.txt	LAMB	13	6	n/a	n/a	pyFR	0	UP029
765.878	2.738	576447	WORD	n/a	wordpools/wordpool_EN.txt	HORSE	14	6	n/a	n/a	pyFR	0	UP029
768.616	1.604	577849	WORD	n/a	wordpools/wordpool_EN.txt	DITCH	15	6	n/a	n/a	pyFR	0	UP029
770.22	0.833	578670	START	n/a	n/a	n/a	n/a	6	[-999 -999 -999]	-999	pyFR	0	UP029
771.053	4.658	579097	PROB	4.622	n/a	n/a	n/a	6	[6 8 5]	19	pyFR	0	UP029
775.711	3.54	581482	PROB	3.51	n/a	n/a	n/a	6	[6 4 8]	20	pyFR	0	UP029
779.251	2.137	583295	PROB	2.105	n/a	n/a	n/a	6	[2 2 3]	7	pyFR	0	UP029
781.388	2.788	584389	PROB	2.76	n/a	n/a	n/a	6	[2 3 6]	11	pyFR	0	UP029
784.176	2.937	585816	PROB	2.907	n/a	n/a	n/a	6	[5 1 2]	8	pyFR	0	UP029
787.113	3.427	587320	PROB	3.427	n/a	n/a	n/a	6	[4 7 4]	15	pyFR	0	UP029
790.54	1.165	589075	STOP	n/a	n/a	n/a	n/a	6	[-999 -999 -999]	-999	pyFR	0	UP029
791.705	13.04	589671	REC_START	n/a	n/a	n/a	-999	6	n/a	n/a	pyFR	0	UP029
804.745	1.247	596348	REC_WORD	13.04	n/a	HEEL	-999	6	n/a	n/a	pyFR	0	UP029
805.992	13.324	596987	REC_WORD	14.287	n/a	WOOL	-999	6	n/a	n/a	pyFR	0	UP029
819.316	7.658	603809	REC_WORD	27.611	n/a	CANE	-999	6	n/a	n/a	pyFR	0	UP029
826.974	7.028	607730	REC_WORD	35.269	n/a	HORSE	-999	6	n/a	n/a	pyFR	0	UP029
834.002	5.867	611328	REC_WORD	42.297	n/a	ROOF	-999	6	n/a	n/a	pyFR	0	UP029
839.869	0.017	614333	TRIAL	n/a	n/a	n/a	-999	7	n/a	n/a	pyFR	0	UP029
839.886	2.888	614341	ORIENT	n/a	n/a	n/a	-999	7	n/a	n/a	pyFR	0	UP029
842.774	2.638	615820	WORD	n/a	wordpools/wordpool_EN.txt	TRASH	1	7	n/a	n/a	pyFR	0	UP029
845.412	2.454	617171	WORD	n/a	wordpools/wordpool_EN.txt	DUCK	2	7	n/a	n/a	pyFR	0	UP029
847.866	2.505	618427	WORD	n/a	wordpools/wordpool_EN.txt	CROW	3	7	n/a	n/a	pyFR	0	UP029
850.371	2.821	619710	WORD	n/a	wordpools/wordpool_EN.txt	PURSE	4	7	n/a	n/a	pyFR	0	UP029
853.192	2.57	621154	WORD	n/a	wordpools/wordpool_EN.txt	FORT	5	7	n/a	n/a	pyFR	0	UP029
855.762	2.672	622470	WORD	n/a	wordpools/wordpool_EN.txt	SEAT	6	7	n/a	n/a	pyFR	0	UP029
858.434	2.755	623838	WORD	n/a	wordpools/wordpool_EN.txt	DRESS	7	7	n/a	n/a	pyFR	0	UP029
861.189	2.687	625249	WORD	n/a	wordpools/wordpool_EN.txt	CORN	8	7	n/a	n/a	pyFR	0	UP029
863.876	2.805	626625	WORD	n/a	wordpools/wordpool_EN.txt	PET	9	7	n/a	n/a	pyFR	0	UP029
866.681	2.655	628061	WORD	n/a	wordpools/wordpool_EN.txt	MOLE	10	7	n/a	n/a	pyFR	0	UP029
869.336	2.62	629420	WORD	n/a	wordpools/wordpool_EN.txt	MAP	11	7	n/a	n/a	pyFR	0	UP029
871.956	2.539	630762	WORD	n/a	wordpools/wordpool_EN.txt	BRIDGE	12	7	n/a	n/a	pyFR	0	UP029
874.495	2.67	632062	WORD	n/a	wordpools/wordpool_EN.txt	SPEAR	13	7	n/a	n/a	pyFR	0	UP029
877.165	2.537	633429	WORD	n/a	wordpools/wordpool_EN.txt	PARK	14	7	n/a	n/a	pyFR	0	UP029
879.702	1.605	634728	WORD	n/a	wordpools/wordpool_EN.txt	VEST	15	7	n/a	n/a	pyFR	0	UP029
881.307	0.884	635550	START	n/a	n/a	n/a	n/a	7	[-999 -999 -999]	-999	pyFR	0	UP029
882.191	5.041	636002	PROB	5.005	n/a	n/a	n/a	7	[9 3 8]	20	pyFR	0	UP029
887.232	4.124	638584	PROB	4.093	n/a	n/a	n/a	7	[4 6 6]	16	pyFR	0	UP029
891.356	2.537	640695	PROB	2.512	n/a	n/a	n/a	7	[3 7 7]	17	pyFR	0	UP029
893.893	4.408	641994	PROB	4.376	n/a	n/a	n/a	7	[8 3 8]	19	pyFR	0	UP029
898.301	1.987	644251	PROB	1.951	n/a	n/a	n/a	7	[1 3 8]	12	pyFR	0	UP029
900.288	2.667	645269	PROB	2.667	n/a	n/a	n/a	7	[3 9 9]	21	pyFR	0	UP029
902.955	1.089	646634	STOP	n/a	n/a	n/a	n/a	7	[-999 -999 -999]	-999	pyFR	0	UP029
904.044	10.802	647192	REC_START	n/a	n/a	n/a	-999	7	n/a	n/a	pyFR	0	UP029
914.846	10.131	652723	REC_WORD	10.802	n/a	CORN	-999	7	n/a	n/a	pyFR	0	UP029
924.977	9.582	657910	REC_WORD	20.933	n/a	OWL	-999	7	n/a	n/a	pyFR	0	UP029
934.559	34.913	662816	REC_WORD	30.515	n/a	HOLE	-999	7	n/a	n/a	pyFR	0	UP029
969.472	0.016	680693	TRIAL	n/a	n/a	n/a	-999	8	n/a	n/a	pyFR	0	UP029
969.488	2.653	680701	ORIENT	n/a	n/a	n/a	-999	8	n/a	n/a	pyFR	0	UP029
972.141	2.571	682059	WORD	n/a	wordpools/wordpool_EN.txt	SKI	1	8	n/a	n/a	pyFR	0	UP029
974.712	2.806	683376	WORD	n/a	wordpools/wordpool_EN.txt	FISH	2	8	n/a	n/a	pyFR	0	UP029
977.518	2.822	684812	WORD	n/a	wordpools/wordpool_EN.txt	ROCK	3	8	n/a	n/a	pyFR	0	UP029
980.34	2.452	686257	WORD	n/a	wordpools/wordpool_EN.txt	NET	4	8	n/a	n/a	pyFR	0	UP029
982.792	2.805	687513	WORD	n/a	wordpools/wordpool_EN.txt	STOOL	5	8	n/a	n/a	pyFR	0	UP029
985.597	2.672	688949	WORD	n/a	wordpools/wordpool_EN.txt	FAN	6	8	n/a	n/a	pyFR	0	UP029
988.269	2.637	690317	WORD	n/a	wordpools/wordpool_EN.txt	DART	7	8	n/a	n/a	pyFR	0	UP029
990.906	2.555	691667	WORD	n/a	wordpools/wordpool_EN.txt	TAIL	8	8	n/a	n/a	pyFR	0	UP029
993.461	2.587	692976	WORD	n/a	wordpools/wordpool_EN.txt	SAIL	9	8	n/a	n/a	pyFR	0	UP029
996.048	2.788	694300	WORD	n/a	wordpools/wordpool_EN.txt	SEA	10	8	n/a	n/a	pyFR	0	UP029
998.836	2.422	695728	WORD	n/a	wordpools/wordpool_EN.txt	MAT	11	8	n/a	n/a	pyFR	0	UP029
1001.258	2.687	696968	WORD	n/a	wordpools/wordpool_EN.txt	RAIN	12	8	n/a	n/a	pyFR	0	UP029
1003.945	2.772	698344	WORD	n/a	wordpools/wordpool_EN.txt	TANK	13	8	n/a	n/a	pyFR	0	UP029
1006.717	2.788	699763	WORD	n/a	wordpools/wordpool_EN.txt	MAZE	14	8	n/a	n/a	pyFR	0	UP029
1009.505	1.62	701190	WORD	n/a	wordpools/wordpool_EN.txt	CART	15	8	n/a	n/a	pyFR	0	UP029
1011.125	1.085	702020	START	n/a	n/a	n/a	n/a	8	[-999 -999 -999]	-999	pyFR	0	UP029
1012.21	4.357	702575	PROB	4.322	n/a	n/a	n/a	8	[7 4 6]	17	pyFR	0	UP029
1016.567	2.086	704806	PROB	2.052	n/a	n/a	n/a	8	[7 5 2]	14	pyFR	0	UP029
1018.653	2.287	705874	PROB	2.254	n/a	n/a	n/a	8	[1 4 3]	8	pyFR	0	UP029
1020.94	2.472	707045	PROB	2.44	n/a	n/a	n/a	8	[1 5 8]	14	pyFR	0	UP029
1023.412	1.987	708311	PROB	1.96	n/a	n/a	n/a	8	[5 1 5]	11	pyFR	0	UP029
1025.399	2.153	709329	PROB	2.109	n/a	n/a	n/a	8	[5 3 1]	9	pyFR	0	UP029
1027.552	2.587	710431	PROB	2.564	n/a	n/a	n/a	8	[3 8 5]	16	pyFR	0	UP029
1030.139	1.88	711756	PROB	1.88	n/a	n/a	n/a	8	[2 2 2]	6	pyFR	0	UP029
1032.019	1.075	712718	STOP	n/a	n/a	n/a	n/a	8	[-999 -999 -999]	-999	pyFR	0	UP029
1033.094	6.224	713269	REC_START	n/a	n/a	n/a	-999	8	n/a	n/a	pyFR	0	UP029
1039.318	0.939	716455	REC_WORD	6.224	n/a	HORN	-999	8	n/a	n/a	pyFR	0	UP029
1040.257	8.868	716936	REC_WORD	7.163	n/a	TEA	-999	8	n/a	n/a	pyFR	0	UP029
1049.125	6.835	721477	REC_WORD	16.031	n/a	FOOT	-999	8	n/a	n/a	pyFR	0	UP029
1055.96	1212.431	724977	REC_WORD	22.866	n/a	RAIN	-999	8	n/a	n/a	pyFR	0	UP029
2268.391	0.016	1345772	TRIAL	n/a	n/a	n/a	-999	9	n/a	n/a	pyFR	0	UP029
2268.407	2.805	1345780	ORIENT	n/a	n/a	n/a	-999	9	n/a	n/a	pyFR	0	UP029
2271.212	2.636	1347216	WORD	n/a	wordpools/wordpool_EN.txt	VAN	1	9	n/a	n/a	pyFR	0	UP029
2273.848	2.64	1348566	WORD	n/a	wordpools/wordpool_EN.txt	ZOO	2	9	n/a	n/a	pyFR	0	UP029
2276.488	2.821	1349918	WORD	n/a	wordpools/wordpool_EN.txt	KING	3	9	n/a	n/a	pyFR	0	UP029
2279.309	2.486	1351362	WORD	n/a	wordpools/wordpool_EN.txt	BOY	4	9	n/a	n/a	pyFR	0	UP029
2281.795	2.522	1352635	WORD	n/a	wordpools/wordpool_EN.txt	ROOT	5	9	n/a	n/a	pyFR	0	UP029
2284.317	2.671	1353926	WORD	n/a	wordpools/wordpool_EN.txt	PASTE	6	9	n/a	n/a	pyFR	0	UP029
2286.988	2.654	1355294	WORD	n/a	wordpools/wordpool_EN.txt	FACE	7	9	n/a	n/a	pyFR	0	UP029
2289.642	2.655	1356653	WORD	n/a	wordpools/wordpool_EN.txt	SOCK	8	9	n/a	n/a	pyFR	0	UP029
2292.297	2.787	1358012	WORD	n/a	wordpools/wordpool_EN.txt	EEL	9	9	n/a	n/a	pyFR	0	UP029
2295.084	2.789	1359439	WORD	n/a	wordpools/wordpool_EN.txt	FILM	10	9	n/a	n/a	pyFR	0	UP029
2297.873	2.438	1360867	WORD	n/a	wordpools/wordpool_EN.txt	STRAW	11	9	n/a	n/a	pyFR	0	UP029
2300.311	2.687	1362116	WORD	n/a	wordpools/wordpool_EN.txt	SLEEVE	12	9	n/a	n/a	pyFR	0	UP029
2302.998	2.755	1363492	WORD	n/a	wordpools/wordpool_EN.txt	CHEEK	13	9	n/a	n/a	pyFR	0	UP029
2305.753	2.521	1364902	WORD	n/a	wordpools/wordpool_EN.txt	MUG	14	9	n/a	n/a	pyFR	0	UP029
2308.274	1.62	1366193	WORD	n/a	wordpools/wordpool_EN.txt	BREAD	15	9	n/a	n/a	pyFR	0	UP029
2309.894	0.917	1367023	START	n/a	n/a	n/a	n/a	9	[-999 -999 -999]	-999	pyFR	0	UP029
2310.811	3.188	1367492	PROB	3.16	n/a	n/a	n/a	9	[6 5 9]	20	pyFR	0	UP029
2313.999	2.539	1369124	PROB	2.517	n/a	n/a	n/a	9	[1 1 8]	10	pyFR	0	UP029
2316.538	4.123	1370424	PROB	4.089	n/a	n/a	n/a	9	[5 6 2]	13	pyFR	0	UP029
2320.661	2.42	1372536	PROB	2.39	n/a	n/a	n/a	9	[3 2 8]	13	pyFR	0	UP029
2323.081	2.805	1373775	PROB	2.77	n/a	n/a	n/a	9	[9 9 5]	23	pyFR	0	UP029
2325.886	3.657	1375211	PROB	3.622	n/a	n/a	n/a	9	[5 9 3]	17	pyFR	0	UP029
2329.543	2.629	1377083	PROB	2.629	n/a	n/a	n/a	9	[7 5 2]	14	pyFR	0	UP029
2332.172	1.228	1378429	STOP	n/a	n/a	n/a	n/a	9	[-999 -999 -999]	-999	pyFR	0	UP029
2333.4	1.682	1379058	REC_START	n/a	n/a	n/a	-999	9	n/a	n/a	pyFR	0	UP029
2335.082	1.02	1379919	REC_WORD	1.682	n/a	VAN	-999	9	n/a	n/a	pyFR	0	UP029
2336.102	1.598	1380442	REC_WORD	2.702	n/a	ZOO	-999	9	n/a	n/a	pyFR	0	UP029
2337.7	2.971	1381260	REC_WORD	4.3	n/a	PASTE	-999	9	n/a	n/a	pyFR	0	UP029
2340.671	20.616	1382781	REC_WORD_VV	7.271	n/a	<>	-999	9	n/a	n/a	pyFR	0	UP029
2361.287	19.928	1393337	REC_WORD	27.887	n/a	EEL	-999	9	n/a	n/a	pyFR	0	UP029
2381.215	0.015	1403541	TRIAL	n/a	n/a	n/a	-999	10	n/a	n/a	pyFR	0	UP029
2381.23	2.821	1403548	ORIENT	n/a	n/a	n/a	-999	10	n/a	n/a	pyFR	0	UP029
2384.051	2.671	1404993	WORD	n/a	wordpools/wordpool_EN.txt	BENCH	1	10	n/a	n/a	pyFR	0	UP029
2386.722	2.455	1406360	WORD	n/a	wordpools/wordpool_EN.txt	NAIL	2	10	n/a	n/a	pyFR	0	UP029
2389.177	2.754	1407617	WORD	n/a	wordpools/wordpool_EN.txt	GLOVE	3	10	n/a	n/a	pyFR	0	UP029
2391.931	2.755	1409028	WORD	n/a	wordpools/wordpool_EN.txt	FOX	4	10	n/a	n/a	pyFR	0	UP029
2394.686	2.755	1410438	WORD	n/a	wordpools/wordpool_EN.txt	OAR	5	10	n/a	n/a	pyFR	0	UP029
2397.441	2.703	1411849	WORD	n/a	wordpools/wordpool_EN.txt	JUICE	6	10	n/a	n/a	pyFR	0	UP029
2400.144	2.471	1413233	WORD	n/a	wordpools/wordpool_EN.txt	FORK	7	10	n/a	n/a	pyFR	0	UP029
2402.615	2.572	1414498	WORD	n/a	wordpools/wordpool_EN.txt	SLUSH	8	10	n/a	n/a	pyFR	0	UP029
2405.187	2.771	1415815	WORD	n/a	wordpools/wordpool_EN.txt	SUN	9	10	n/a	n/a	pyFR	0	UP029
2407.958	2.522	1417234	WORD	n/a	wordpools/wordpool_EN.txt	SHEET	10	10	n/a	n/a	pyFR	0	UP029
2410.48	2.504	1418525	WORD	n/a	wordpools/wordpool_EN.txt	CORD	11	10	n/a	n/a	pyFR	0	UP029
2412.984	2.471	1419807	WORD	n/a	wordpools/wordpool_EN.txt	ROAD	12	10	n/a	n/a	pyFR	0	UP029
2415.455	2.637	1421072	WORD	n/a	wordpools/wordpool_EN.txt	SPARK	13	10	n/a	n/a	pyFR	0	UP029
2418.092	2.62	1422423	WORD	n/a	wordpools/wordpool_EN.txt	BAND	14	10	n/a	n/a	pyFR	0	UP029
2420.712	1.605	1423764	WORD	n/a	wordpools/wordpool_EN.txt	HOLE	15	10	n/a	n/a	pyFR	0	UP029
2422.317	1.051	1424586	START	n/a	n/a	n/a	n/a	10	[-999 -999 -999]	-999	pyFR	0	UP029
2423.368	2.637	1425124	PROB	2.612	n/a	n/a	n/a	10	[4 3 1]	8	pyFR	0	UP029
2426.005	2.855	1426474	PROB	2.83	n/a	n/a	n/a	10	[7 7 6]	20	pyFR	0	UP029
2428.86	4.306	1427936	PROB	4.271	n/a	n/a	n/a	10	[8 8 7]	23	pyFR	0	UP029
2433.166	2.572	1430141	PROB	2.549	n/a	n/a	n/a	10	[3 1 2]	6	pyFR	0	UP029
2435.738	2.805	1431458	PROB	2.77	n/a	n/a	n/a	10	[5 3 9]	17	pyFR	0	UP029
2438.543	2.705	1432894	PROB	2.678	n/a	n/a	n/a	10	[3 5 7]	15	pyFR	0	UP029
2441.248	5.492	1434279	PROB	5.492	n/a	n/a	n/a	10	[9 9 9]	27	pyFR	0	UP029
2446.74	1.169	1437091	STOP	n/a	n/a	n/a	n/a	10	[-999 -999 -999]	-999	pyFR	0	UP029
2447.909	2.339	1437690	REC_START	n/a	n/a	n/a	-999	10	n/a	n/a	pyFR	0	UP029
2450.248	0.199	1438887	REC_WORD_VV	2.339	n/a	<>	-999	10	n/a	n/a	pyFR	0	UP029
2450.447	1.09	1438989	REC_WORD	2.538	n/a	BAND	-999	10	n/a	n/a	pyFR	0	UP029
2451.537	4.003	1439547	REC_WORD	3.628	n/a	FISH	-999	10	n/a	n/a	pyFR	0	UP029
2455.54	14.011	1441597	REC_WORD	7.631	n/a	SHEET	-999	10	n/a	n/a	pyFR	0	UP029
2469.551	8.039	1448771	REC_WORD	21.642	n/a	BRAKE	-999	10	n/a	n/a	pyFR	0	UP029
2477.59	11.595	1452887	REC_WORD	29.681	n/a	CHIN	-999	10	n/a	n/a	pyFR	0	UP029
2489.185	6.554	1458824	REC_WORD	41.276	n/a	ROPE	-999	10	n/a	n/a	pyFR	0	UP029
2495.739	0.017	1462180	TRIAL	n/a	n/a	n/a	-999	11	n/a	n/a	pyFR	0	UP029
2495.756	2.854	1462189	ORIENT	n/a	n/a	n/a	-999	11	n/a	n/a	pyFR	0	UP029
2498.61	2.789	1463650	WORD	n/a	wordpools/wordpool_EN.txt	CHAIR	1	11	n/a	n/a	pyFR	0	UP029
2501.399	2.721	1465078	WORD	n/a	wordpools/wordpool_EN.txt	GUARD	2	11	n/a	n/a	pyFR	0	UP029
2504.12	2.67	1466471	WORD	n/a	wordpools/wordpool_EN.txt	CRANE	3	11	n/a	n/a	pyFR	0	UP029
2506.79	2.439	1467838	WORD	n/a	wordpools/wordpool_EN.txt	FOAM	4	11	n/a	n/a	pyFR	0	UP029
2509.229	2.704	1469087	WORD	n/a	wordpools/wordpool_EN.txt	BLOOM	5	11	n/a	n/a	pyFR	0	UP029
2511.933	2.671	1470472	WORD	n/a	wordpools/wordpool_EN.txt	BOARD	6	11	n/a	n/a	pyFR	0	UP029
2514.604	2.655	1471839	WORD	n/a	wordpools/wordpool_EN.txt	MOON	7	11	n/a	n/a	pyFR	0	UP029
2517.259	2.437	1473199	WORD	n/a	wordpools/wordpool_EN.txt	WOOD	8	11	n/a	n/a	pyFR	0	UP029
2519.696	2.522	1474446	WORD	n/a	wordpools/wordpool_EN.txt	SHELL	9	11	n/a	n/a	pyFR	0	UP029
2522.218	2.687	1475738	WORD	n/a	wordpools/wordpool_EN.txt	GRAPE	10	11	n/a	n/a	pyFR	0	UP029
2524.905	2.438	1477114	WORD	n/a	wordpools/wordpool_EN.txt	DOCK	11	11	n/a	n/a	pyFR	0	UP029
2527.343	2.637	1478362	WORD	n/a	wordpools/wordpool_EN.txt	JAR	12	11	n/a	n/a	pyFR	0	UP029
2529.98	2.455	1479712	WORD	n/a	wordpools/wordpool_EN.txt	BELL	13	11	n/a	n/a	pyFR	0	UP029
2532.435	2.537	1480969	WORD	n/a	wordpools/wordpool_EN.txt	BRUSH	14	11	n/a	n/a	pyFR	0	UP029
2534.972	1.62	1482268	WORD	n/a	wordpools/wordpool_EN.txt	CONE	15	11	n/a	n/a	pyFR	0	UP029
2536.592	1.202	1483098	START	n/a	n/a	n/a	n/a	11	[-999 -999 -999]	-999	pyFR	0	UP029
2537.794	3.855	1483713	PROB	3.817	n/a	n/a	n/a	11	[4 7 1]	12	pyFR	0	UP029
2541.649	3.489	1485687	PROB	3.458	n/a	n/a	n/a	11	[9 5 6]	20	pyFR	0	UP029
2545.138	5.077	1487473	PROB	5.042	n/a	n/a	n/a	11	[2 9 4]	15	pyFR	0	UP029
2550.215	3.188	1490073	PROB	3.157	n/a	n/a	n/a	11	[6 8 1]	17	pyFR	0	UP029
2553.403	3.849	1491705	PROB	3.849	n/a	n/a	n/a	11	[9 4 5]	18	pyFR	0	UP029
2557.252	1.077	1493676	STOP	n/a	n/a	n/a	n/a	11	[-999 -999 -999]	-999	pyFR	0	UP029
2558.329	2.097	1494228	REC_START	n/a	n/a	n/a	-999	11	n/a	n/a	pyFR	0	UP029
2560.426	1.17	1495301	REC_WORD	2.097	n/a	BOARD	-999	11	n/a	n/a	pyFR	0	UP029
2561.596	5.101	1495900	REC_WORD	3.267	n/a	BLOOM	-999	11	n/a	n/a	pyFR	0	UP029
2566.697	17.128	1498512	REC_WORD	8.368	n/a	BOAT	-999	11	n/a	n/a	pyFR	0	UP029
2583.825	40.599	1507282	REC_WORD	25.496	n/a	SAIL	-999	11	n/a	n/a	pyFR	0	UP029
2624.424	0.015	1528070	TRIAL	n/a	n/a	n/a	-999	12	n/a	n/a	pyFR	0	UP029
2624.439	2.654	1528078	ORIENT	n/a	n/a	n/a	-999	12	n/a	n/a	pyFR	0	UP029
2627.093	2.439	1529436	WORD	n/a	wordpools/wordpool_EN.txt	ROOF	1	12	n/a	n/a	pyFR	0	UP029
2629.532	2.621	1530685	WORD	n/a	wordpools/wordpool_EN.txt	TRAY	2	12	n/a	n/a	pyFR	0	UP029
2632.153	2.687	1532027	WORD	n/a	wordpools/wordpool_EN.txt	HOUSE	3	12	n/a	n/a	pyFR	0	UP029
2634.84	2.638	1533403	WORD	n/a	wordpools/wordpool_EN.txt	DIME	4	12	n/a	n/a	pyFR	0	UP029
2637.478	2.503	1534754	WORD	n/a	wordpools/wordpool_EN.txt	CLIFF	5	12	n/a	n/a	pyFR	0	UP029
2639.981	2.588	1536035	WORD	n/a	wordpools/wordpool_EN.txt	EAR	6	12	n/a	n/a	pyFR	0	UP029
2642.569	2.437	1537361	WORD	n/a	wordpools/wordpool_EN.txt	SWAMP	7	12	n/a	n/a	pyFR	0	UP029
2645.006	2.473	1538608	WORD	n/a	wordpools/wordpool_EN.txt	GRASS	8	12	n/a	n/a	pyFR	0	UP029
2647.479	2.469	1539875	WORD	n/a	wordpools/wordpool_EN.txt	TAPE	9	12	n/a	n/a	pyFR	0	UP029
2649.948	2.572	1541139	WORD	n/a	wordpools/wordpool_EN.txt	SEED	10	12	n/a	n/a	pyFR	0	UP029
2652.52	2.604	1542456	WORD	n/a	wordpools/wordpool_EN.txt	GEESE	11	12	n/a	n/a	pyFR	0	UP029
2655.124	2.821	1543789	WORD	n/a	wordpools/wordpool_EN.txt	TEETH	12	12	n/a	n/a	pyFR	0	UP029
2657.945	2.589	1545233	WORD	n/a	wordpools/wordpool_EN.txt	WORM	13	12	n/a	n/a	pyFR	0	UP029
2660.534	2.704	1546559	WORD	n/a	wordpools/wordpool_EN.txt	SNAKE	14	12	n/a	n/a	pyFR	0	UP029
2663.238	1.62	1547944	WORD	n/a	wordpools/wordpool_EN.txt	STEAM	15	12	n/a	n/a	pyFR	0	UP029
2664.858	1.134	1548773	START	n/a	n/a	n/a	n/a	12	[-999 -999 -999]	-999	pyFR	0	UP029
2665.992	3.423	1549354	PROB	3.396	n/a	n/a	n/a	12	[6 8 6]	20	pyFR	0	UP029
2669.415	2.437	1551106	PROB	2.412	n/a	n/a	n/a	12	[9 9 9]	27	pyFR	0	UP029
2671.852	4.325	1552354	PROB	4.295	n/a	n/a	n/a	12	[8 4 9]	21	pyFR	0	UP029
2676.177	2.419	1554569	PROB	2.387	n/a	n/a	n/a	12	[1 9 4]	14	pyFR	0	UP029
2678.596	3.072	1555807	PROB	3.04	n/a	n/a	n/a	12	[8 6 4]	18	pyFR	0	UP029
2681.668	2.889	1557380	PROB	2.857	n/a	n/a	n/a	12	[4 7 4]	15	pyFR	0	UP029
2684.557	2.343	1558859	PROB	2.343	n/a	n/a	n/a	12	[4 1 5]	10	pyFR	0	UP029
2686.9	1.08	1560059	STOP	n/a	n/a	n/a	n/a	12	[-999 -999 -999]	-999	pyFR	0	UP029
2687.98	2.411	1560612	REC_START	n/a	n/a	n/a	-999	12	n/a	n/a	pyFR	0	UP029
2690.391	1.041	1561847	REC_WORD	2.411	n/a	ROOF	-999	12	n/a	n/a	pyFR	0	UP029
2691.432	0.756	1562380	REC_WORD	3.452	n/a	GEESE	-999	12	n/a	n/a	pyFR	0	UP029
2692.188	14.412	1562767	REC_WORD	4.208	n/a	TEETH	-999	12	n/a	n/a	pyFR	0	UP029
2706.6	16.343	1570146	REC_WORD	18.62	n/a	DOCK	-999	12	n/a	n/a	pyFR	0	UP029
2722.943	13.184	1578514	REC_WORD	34.963	n/a	JOKE	-999	12	n/a	n/a	pyFR	0	UP029
2736.127	0.016	1585265	TRIAL	n/a	n/a	n/a	-999	13	n/a	n/a	pyFR	0	UP029
2736.143	2.989	1585273	ORIENT	n/a	n/a	n/a	-999	13	n/a	n/a	pyFR	0	UP029
2739.132	2.671	1586803	WORD	n/a	wordpools/wordpool_EN.txt	CAT	1	13	n/a	n/a	pyFR	0	UP029
2741.803	2.589	1588171	WORD	n/a	wordpools/wordpool_EN.txt	FOOD	2	13	n/a	n/a	pyFR	0	UP029
2744.392	2.637	1589497	WORD	n/a	wordpools/wordpool_EN.txt	CAPE	3	13	n/a	n/a	pyFR	0	UP029
2747.029	2.488	1590847	WORD	n/a	wordpools/wordpool_EN.txt	BOWL	4	13	n/a	n/a	pyFR	0	UP029
2749.517	2.57	1592121	WORD	n/a	wordpools/wordpool_EN.txt	BARN	5	13	n/a	n/a	pyFR	0	UP029
2752.087	2.554	1593437	WORD	n/a	wordpools/wordpool_EN.txt	CUP	6	13	n/a	n/a	pyFR	0	UP029
2754.641	2.488	1594744	WORD	n/a	wordpools/wordpool_EN.txt	JAIL	7	13	n/a	n/a	pyFR	0	UP029
2757.129	2.571	1596018	WORD	n/a	wordpools/wordpool_EN.txt	JUDGE	8	13	n/a	n/a	pyFR	0	UP029
2759.7	2.555	1597335	WORD	n/a	wordpools/wordpool_EN.txt	TOOTH	9	13	n/a	n/a	pyFR	0	UP029
2762.255	2.587	1598643	WORD	n/a	wordpools/wordpool_EN.txt	SOUP	10	13	n/a	n/a	pyFR	0	UP029
2764.842	2.538	1599967	WORD	n/a	wordpools/wordpool_EN.txt	CUBE	11	13	n/a	n/a	pyFR	0	UP029
2767.38	2.805	1601267	WORD	n/a	wordpools/wordpool_EN.txt	GOLD	12	13	n/a	n/a	pyFR	0	UP029
2770.185	2.537	1602703	WORD	n/a	wordpools/wordpool_EN.txt	SHARK	13	13	n/a	n/a	pyFR	0	UP029
2772.722	2.655	1604002	WORD	n/a	wordpools/wordpool_EN.txt	BOX	14	13	n/a	n/a	pyFR	0	UP029
2775.377	1.62	1605362	WORD	n/a	wordpools/wordpool_EN.txt	FLOOR	15	13	n/a	n/a	pyFR	0	UP029
2776.997	1.1	1606191	START	n/a	n/a	n/a	n/a	13	[-999 -999 -999]	-999	pyFR	0	UP029
2778.097	3.307	1606754	PROB	3.284	n/a	n/a	n/a	13	[7 4 4]	15	pyFR	0	UP029
2781.404	3.138	1608448	PROB	3.104	n/a	n/a	n/a	13	[7 3 8]	18	pyFR	0	UP029
2784.542	1.837	1610054	PROB	1.814	n/a	n/a	n/a	13	[1 1 3]	5	pyFR	0	UP029
2786.379	3.288	1610995	PROB	3.264	n/a	n/a	n/a	13	[6 8 9]	23	pyFR	0	UP029
2789.667	4.157	1612678	PROB	4.128	n/a	n/a	n/a	13	[6 8 8]	22	pyFR	0	UP029
2793.824	2.371	1614807	PROB	2.34	n/a	n/a	n/a	13	[4 2 2]	8	pyFR	0	UP029
2796.195	2.217	1616021	PROB	2.217	n/a	n/a	n/a	13	[4 5 2]	11	pyFR	0	UP029
2798.412	1.239	1617156	STOP	n/a	n/a	n/a	n/a	13	[-999 -999 -999]	-999	pyFR	0	UP029
2799.651	3.047	1617791	REC_START	n/a	n/a	n/a	-999	13	n/a	n/a	pyFR	0	UP029
2802.698	0.579	1619351	REC_WORD	3.047	n/a	CAT	-999	13	n/a	n/a	pyFR	0	UP029
2803.277	2.024	1619647	REC_WORD	3.626	n/a	FOOD	-999	13	n/a	n/a	pyFR	0	UP029
2805.301	1.64	1620683	REC_WORD	5.65	n/a	CUP	-999	13	n/a	n/a	pyFR	0	UP029
2806.941	1.658	1621523	REC_WORD	7.29	n/a	FLOOR	-999	13	n/a	n/a	pyFR	0	UP029
2808.599	2.369	1622372	REC_WORD	8.948	n/a	SHARK	-999	13	n/a	n/a	pyFR	0	UP029
2810.968	28.904	1623585	REC_WORD	11.317	n/a	JAIL	-999	13	n/a	n/a	pyFR	0	UP029
2839.872	7.943	1638385	REC_WORD	40.221	n/a	BOX	-999	13	n/a	n/a	pyFR	0	UP029
2847.815	0.016	1642452	TRIAL	n/a	n/a	n/a	-999	14	n/a	n/a	pyFR	0	UP029
2847.831	2.889	1642460	ORIENT	n/a	n/a	n/a	-999	14	n/a	n/a	pyFR	0	UP029
2850.72	2.555	1643939	WORD	n/a	wordpools/wordpool_EN.txt	BOOK	1	14	n/a	n/a	pyFR	0	UP029
2853.275	2.486	1645247	WORD	n/a	wordpools/wordpool_EN.txt	CLOUD	2	14	n/a	n/a	pyFR	0	UP029
2855.761	2.789	1646520	WORD	n/a	wordpools/wordpool_EN.txt	LEAF	3	14	n/a	n/a	pyFR	0	UP029
2858.55	2.722	1647948	WORD	n/a	wordpools/wordpool_EN.txt	POLE	4	14	n/a	n/a	pyFR	0	UP029
2861.272	2.52	1649342	WORD	n/a	wordpools/wordpool_EN.txt	FLAME	5	14	n/a	n/a	pyFR	0	UP029
2863.792	2.804	1650632	WORD	n/a	wordpools/wordpool_EN.txt	PEAR	6	14	n/a	n/a	pyFR	0	UP029
2866.596	2.438	1652068	WORD	n/a	wordpools/wordpool_EN.txt	STAR	7	14	n/a	n/a	pyFR	0	UP029
2869.034	2.455	1653316	WORD	n/a	wordpools/wordpool_EN.txt	STORE	8	14	n/a	n/a	pyFR	0	UP029
2871.489	2.721	1654573	WORD	n/a	wordpools/wordpool_EN.txt	WOLF	9	14	n/a	n/a	pyFR	0	UP029
2874.21	2.453	1655967	WORD	n/a	wordpools/wordpool_EN.txt	PHONE	10	14	n/a	n/a	pyFR	0	UP029
2876.663	2.789	1657223	WORD	n/a	wordpools/wordpool_EN.txt	WAVE	11	14	n/a	n/a	pyFR	0	UP029
2879.452	2.755	1658651	WORD	n/a	wordpools/wordpool_EN.txt	OAK	12	14	n/a	n/a	pyFR	0	UP029
2882.207	2.453	1660061	WORD	n/a	wordpools/wordpool_EN.txt	WHEEL	13	14	n/a	n/a	pyFR	0	UP029
2884.66	2.589	1661317	WORD	n/a	wordpools/wordpool_EN.txt	ANT	14	14	n/a	n/a	pyFR	0	UP029
2887.249	1.619	1662643	WORD	n/a	wordpools/wordpool_EN.txt	BALL	15	14	n/a	n/a	pyFR	0	UP029
2888.868	0.867	1663472	START	n/a	n/a	n/a	n/a	14	[-999 -999 -999]	-999	pyFR	0	UP029
2889.735	3.724	1663916	PROB	3.694	n/a	n/a	n/a	14	[4 3 9]	16	pyFR	0	UP029
2893.459	3.355	1665823	PROB	3.321	n/a	n/a	n/a	14	[2 4 8]	14	pyFR	0	UP029
2896.814	2.705	1667540	PROB	2.679	n/a	n/a	n/a	14	[2 5 7]	14	pyFR	0	UP029
2899.519	2.888	1668925	PROB	2.862	n/a	n/a	n/a	14	[9 6 5]	20	pyFR	0	UP029
2902.407	2.32	1670404	PROB	2.293	n/a	n/a	n/a	14	[2 3 6]	11	pyFR	0	UP029
2904.727	2.187	1671592	PROB	2.164	n/a	n/a	n/a	14	[3 3 5]	11	pyFR	0	UP029
2906.914	2.507	1672712	PROB	2.507	n/a	n/a	n/a	14	[8 4 1]	13	pyFR	0	UP029
2909.421	1.084	1673996	STOP	n/a	n/a	n/a	n/a	14	[-999 -999 -999]	-999	pyFR	0	UP029
2910.505	2.527	1674551	REC_START	n/a	n/a	n/a	-999	14	n/a	n/a	pyFR	0	UP029
2913.032	4.149	1675844	REC_WORD	2.527	n/a	ANT	-999	14	n/a	n/a	pyFR	0	UP029
2917.181	9.227	1677969	REC_WORD	6.676	n/a	GEESE	-999	14	n/a	n/a	pyFR	0	UP029
2926.408	5.213	1682693	REC_WORD	15.903	n/a	ROAD	-999	14	n/a	n/a	pyFR	0	UP029
2931.621	3.958	1685363	REC_WORD	21.116	n/a	REEF	-999	14	n/a	n/a	pyFR	0	UP029
2935.579	7.629	1687389	REC_WORD	25.074	n/a	BOOK	-999	14	n/a	n/a	pyFR	0	UP029
2943.208	14.977	1691295	REC_WORD	32.703	n/a	SNAKE	-999	14	n/a	n/a	pyFR	0	UP029
2958.185	0.016	1698964	TRIAL	n/a	n/a	n/a	-999	15	n/a	n/a	pyFR	0	UP029
2958.201	2.921	1698972	ORIENT	n/a	n/a	n/a	-999	15	n/a	n/a	pyFR	0	UP029
2961.122	2.554	1700468	WORD	n/a	wordpools/wordpool_EN.txt	PEN	1	15	n/a	n/a	pyFR	0	UP029
2963.676	2.438	1701775	WORD	n/a	wordpools/wordpool_EN.txt	SHEEP	2	15	n/a	n/a	pyFR	0	UP029
2966.114	2.821	1703024	WORD	n/a	wordpools/wordpool_EN.txt	WING	3	15	n/a	n/a	pyFR	0	UP029
2968.935	2.589	1704468	WORD	n/a	wordpools/wordpool_EN.txt	ROSE	4	15	n/a	n/a	pyFR	0	UP029
2971.524	2.771	1705794	WORD	n/a	wordpools/wordpool_EN.txt	DOLL	5	15	n/a	n/a	pyFR	0	UP029
2974.295	2.704	1707213	WORD	n/a	wordpools/wordpool_EN.txt	DEER	6	15	n/a	n/a	pyFR	0	UP029
2976.999	2.455	1708597	WORD	n/a	wordpools/wordpool_EN.txt	CLOTH	7	15	n/a	n/a	pyFR	0	UP029
2979.454	2.721	1709854	WORD	n/a	wordpools/wordpool_EN.txt	SHRIMP	8	15	n/a	n/a	pyFR	0	UP029
2982.175	2.637	1711247	WORD	n/a	wordpools/wordpool_EN.txt	DAD	9	15	n/a	n/a	pyFR	0	UP029
2984.812	2.538	1712598	WORD	n/a	wordpools/wordpool_EN.txt	SPONGE	10	15	n/a	n/a	pyFR	0	UP029
2987.35	2.804	1713897	WORD	n/a	wordpools/wordpool_EN.txt	SALT	11	15	n/a	n/a	pyFR	0	UP029
2990.154	2.521	1715333	WORD	n/a	wordpools/wordpool_EN.txt	ELF	12	15	n/a	n/a	pyFR	0	UP029
2992.675	2.622	1716624	WORD	n/a	wordpools/wordpool_EN.txt	ROOM	13	15	n/a	n/a	pyFR	0	UP029
2995.297	2.67	1717966	WORD	n/a	wordpools/wordpool_EN.txt	FARM	14	15	n/a	n/a	pyFR	0	UP029
2997.967	1.604	1719333	WORD	n/a	wordpools/wordpool_EN.txt	BIRD	15	15	n/a	n/a	pyFR	0	UP029
2999.571	1.051	1720155	START	n/a	n/a	n/a	n/a	15	[-999 -999 -999]	-999	pyFR	0	UP029
3000.622	3.807	1720693	PROB	3.774	n/a	n/a	n/a	15	[5 7 9]	21	pyFR	0	UP029
3004.429	2.403	1722642	PROB	2.383	n/a	n/a	n/a	15	[7 6 1]	14	pyFR	0	UP029
3006.832	2.522	1723872	PROB	2.484	n/a	n/a	n/a	15	[4 2 5]	11	pyFR	0	UP029
3009.354	2.989	1725164	PROB	2.963	n/a	n/a	n/a	15	[5 8 1]	14	pyFR	0	UP029
3012.343	2.319	1726694	PROB	2.292	n/a	n/a	n/a	15	[8 3 3]	14	pyFR	0	UP029
3014.662	3.356	1727882	PROB	3.333	n/a	n/a	n/a	15	[4 8 5]	17	pyFR	0	UP029
3018.018	2.467	1729600	PROB	2.467	n/a	n/a	n/a	15	[2 8 1]	11	pyFR	0	UP029
3020.485	1.139	1730863	STOP	n/a	n/a	n/a	n/a	15	[-999 -999 -999]	-999	pyFR	0	UP029
3021.624	2.301	1731446	REC_START	n/a	n/a	n/a	-999	15	n/a	n/a	pyFR	0	UP029
3023.925	0.947	1732625	REC_WORD	2.301	n/a	PEN	-999	15	n/a	n/a	pyFR	0	UP029
3024.872	1.472	1733109	REC_WORD	3.248	n/a	SHEEP	-999	15	n/a	n/a	pyFR	0	UP029
3026.344	1.662	1733863	REC_WORD	4.72	n/a	WING	-999	15	n/a	n/a	pyFR	0	UP029
3028.006	5.371	1734714	REC_WORD	6.382	n/a	ROSE	-999	15	n/a	n/a	pyFR	0	UP029
3033.377	3.952	1737464	REC_WORD	11.753	n/a	LEAP	-999	15	n/a	n/a	pyFR	0	UP029
3037.329	8.5	1739488	REC_WORD	15.705	n/a	PLATE	-999	15	n/a	n/a	pyFR	0	UP029
3045.829	9.068	1743840	REC_WORD	24.205	n/a	TOOTH	-999	15	n/a	n/a	pyFR	0	UP029
3054.897	11.316	1748483	REC_WORD	33.273	n/a	DEER	-999	15	n/a	n/a	pyFR	0	UP029
3066.213	8.285	1754277	REC_WORD	44.589	n/a	BRICK	-999	15	n/a	n/a	pyFR	0	UP029
3074.498	0.016	1758519	TRIAL	n/a	n/a	n/a	-999	16	n/a	n/a	pyFR	0	UP029
3074.514	2.955	1758527	ORIENT	n/a	n/a	n/a	-999	16	n/a	n/a	pyFR	0	UP029
3077.469	2.804	1760040	WORD	n/a	wordpools/wordpool_EN.txt	FLEA	1	16	n/a	n/a	pyFR	0	UP029
3080.273	2.722	1761476	WORD	n/a	wordpools/wordpool_EN.txt	HEART	2	16	n/a	n/a	pyFR	0	UP029
3082.995	2.804	1762870	WORD	n/a	wordpools/wordpool_EN.txt	TREE	3	16	n/a	n/a	pyFR	0	UP029
3085.799	2.605	1764306	WORD	n/a	wordpools/wordpool_EN.txt	NOSE	4	16	n/a	n/a	pyFR	0	UP029
3088.404	2.453	1765639	WORD	n/a	wordpools/wordpool_EN.txt	CROWN	5	16	n/a	n/a	pyFR	0	UP029
3090.857	2.771	1766895	WORD	n/a	wordpools/wordpool_EN.txt	LAND	6	16	n/a	n/a	pyFR	0	UP029
3093.628	2.505	1768314	WORD	n/a	wordpools/wordpool_EN.txt	BLUSH	7	16	n/a	n/a	pyFR	0	UP029
3096.133	2.804	1769597	WORD	n/a	wordpools/wordpool_EN.txt	CALF	8	16	n/a	n/a	pyFR	0	UP029
3098.937	2.722	1771033	WORD	n/a	wordpools/wordpool_EN.txt	STICK	9	16	n/a	n/a	pyFR	0	UP029
3101.659	2.822	1772426	WORD	n/a	wordpools/wordpool_EN.txt	NEST	10	16	n/a	n/a	pyFR	0	UP029
3104.481	2.738	1773871	WORD	n/a	wordpools/wordpool_EN.txt	SEAL	11	16	n/a	n/a	pyFR	0	UP029
3107.219	2.82	1775273	WORD	n/a	wordpools/wordpool_EN.txt	SCHOOL	12	16	n/a	n/a	pyFR	0	UP029
3110.039	2.788	1776717	WORD	n/a	wordpools/wordpool_EN.txt	BRANCH	13	16	n/a	n/a	pyFR	0	UP029
3112.827	2.639	1778145	WORD	n/a	wordpools/wordpool_EN.txt	GATE	14	16	n/a	n/a	pyFR	0	UP029
3115.466	1.62	1779496	WORD	n/a	wordpools/wordpool_EN.txt	PIN	15	16	n/a	n/a	pyFR	0	UP029
3117.086	1.034	1780325	START	n/a	n/a	n/a	n/a	16	[-999 -999 -999]	-999	pyFR	0	UP029
3118.12	2.938	1780855	PROB	2.916	n/a	n/a	n/a	16	[5 5 1]	11	pyFR	0	UP029
3121.058	4.541	1782359	PROB	4.514	n/a	n/a	n/a	16	[8 7 8]	23	pyFR	0	UP029
3125.599	2.52	1784684	PROB	2.484	n/a	n/a	n/a	16	[4 2 7]	13	pyFR	0	UP029
3128.119	2.272	1785974	PROB	2.237	n/a	n/a	n/a	16	[9 9 2]	20	pyFR	0	UP029
3130.391	8.038	1787138	PROB	8.038	n/a	n/a	n/a	16	[5 8 3]	16	pyFR	0	UP029
3138.429	1.366	1791253	STOP	n/a	n/a	n/a	n/a	16	[-999 -999 -999]	-999	pyFR	0	UP029
3139.795	1.634	1791953	REC_START	n/a	n/a	n/a	-999	16	n/a	n/a	pyFR	0	UP029
3141.429	3.214	1792790	REC_WORD	1.634	n/a	FLEA	-999	16	n/a	n/a	pyFR	0	UP029
3144.643	6.5	1794435	REC_WORD	4.848	n/a	HEART	-999	16	n/a	n/a	pyFR	0	UP029
3151.143	631.096	1797763	REC_WORD_VV	11.348	n/a	<>	-999	16	n/a	n/a	pyFR	0	UP029
3782.239	0.07	2120900	SESS_END	n/a	n/a	n/a	-999	16	n/a	n/a	pyFR	0	UP029
3782.309	0.0	2120936	E	n/a	n/a	n/a	-999	16	n/a	n/a	pyFR	0	UP029
