onset	duration	sample	trial_type	response_time	stim_file	item_name	serialpos	list	test	answer	experiment	session	subject
0.0	0.001	415709	B	n/a	n/a	n/a	-999	-999	n/a	n/a	pyFR	0	UP034
0.001	44.31	415709	SESS_START	n/a	n/a	n/a	-999	-999	n/a	n/a	pyFR	0	UP034
44.311	0.019	438393	START	n/a	n/a	n/a	n/a	0	[-999 -999 -999]	-999	pyFR	0	UP034
44.33	21.413	438403	PROB	21.364	n/a	n/a	n/a	0	[8 5 7]	20	pyFR	0	UP034
65.743	7.869	449365	PROB	7.824	n/a	n/a	n/a	0	[7 9 8]	24	pyFR	0	UP034
73.612	4.932	453394	PROB	4.932	n/a	n/a	n/a	0	[8 2 2]	12	pyFR	0	UP034
78.544	119.608	455919	STOP	n/a	n/a	n/a	n/a	0	[-999 -999 -999]	-999	pyFR	0	UP034
198.152	0.015	517151	TRIAL	n/a	n/a	n/a	-999	1	n/a	n/a	pyFR	0	UP034
198.167	2.823	517159	ORIENT	n/a	n/a	n/a	-999	1	n/a	n/a	pyFR	0	UP034
200.99	2.54	518604	WORD	n/a	wordpools/wordpool_EN.txt	HAND	1	1	n/a	n/a	pyFR	0	UP034
203.53	2.505	519904	WORD	n/a	wordpools/wordpool_EN.txt	SWAMP	2	1	n/a	n/a	pyFR	0	UP034
206.035	2.739	521187	WORD	n/a	wordpools/wordpool_EN.txt	BATH	3	1	n/a	n/a	pyFR	0	UP034
208.774	2.456	522589	WORD	n/a	wordpools/wordpool_EN.txt	OWL	4	1	n/a	n/a	pyFR	0	UP034
211.23	2.605	523846	WORD	n/a	wordpools/wordpool_EN.txt	BEE	5	1	n/a	n/a	pyFR	0	UP034
213.835	2.774	525180	WORD	n/a	wordpools/wordpool_EN.txt	PEACH	6	1	n/a	n/a	pyFR	0	UP034
216.609	2.806	526600	WORD	n/a	wordpools/wordpool_EN.txt	BOOT	7	1	n/a	n/a	pyFR	0	UP034
219.415	2.471	528036	WORD	n/a	wordpools/wordpool_EN.txt	JET	8	1	n/a	n/a	pyFR	0	UP034
221.886	2.823	529301	WORD	n/a	wordpools/wordpool_EN.txt	CLOWN	9	1	n/a	n/a	pyFR	0	UP034
224.709	2.824	530747	WORD	n/a	wordpools/wordpool_EN.txt	BRICK	10	1	n/a	n/a	pyFR	0	UP034
227.533	2.655	532192	WORD	n/a	wordpools/wordpool_EN.txt	SHIP	11	1	n/a	n/a	pyFR	0	UP034
230.188	2.539	533552	WORD	n/a	wordpools/wordpool_EN.txt	PHONE	12	1	n/a	n/a	pyFR	0	UP034
232.727	2.489	534851	WORD	n/a	wordpools/wordpool_EN.txt	CHALK	13	1	n/a	n/a	pyFR	0	UP034
235.216	2.756	536126	WORD	n/a	wordpools/wordpool_EN.txt	RUG	14	1	n/a	n/a	pyFR	0	UP034
237.972	1.622	537536	WORD	n/a	wordpools/wordpool_EN.txt	RAIN	15	1	n/a	n/a	pyFR	0	UP034
239.594	0.818	538367	START	n/a	n/a	n/a	n/a	1	[-999 -999 -999]	-999	pyFR	0	UP034
240.412	18.056	538786	PROB	18.017	n/a	n/a	n/a	1	[5 4 7]	16	pyFR	0	UP034
258.468	8.787	548029	PROB	8.787	n/a	n/a	n/a	1	[8 4 6]	18	pyFR	0	UP034
267.255	1.219	552528	STOP	n/a	n/a	n/a	n/a	1	[-999 -999 -999]	-999	pyFR	0	UP034
268.474	13.563	553152	REC_START	n/a	n/a	n/a	-999	1	n/a	n/a	pyFR	0	UP034
282.037	4.005	560095	REC_WORD	13.563	n/a	CLOWN	-999	1	n/a	n/a	pyFR	0	UP034
286.042	3.846	562145	REC_WORD	17.568	n/a	BEE	-999	1	n/a	n/a	pyFR	0	UP034
289.888	11.917	564114	REC_WORD	21.414	n/a	BEACH	-999	1	n/a	n/a	pyFR	0	UP034
301.805	189.676	570215	REC_WORD	33.331	n/a	STING	-999	1	n/a	n/a	pyFR	0	UP034
491.481	0.016	667318	TRIAL	n/a	n/a	n/a	-999	2	n/a	n/a	pyFR	0	UP034
491.497	2.688	667326	ORIENT	n/a	n/a	n/a	-999	2	n/a	n/a	pyFR	0	UP034
494.185	2.556	668702	WORD	n/a	wordpools/wordpool_EN.txt	MULE	1	2	n/a	n/a	pyFR	0	UP034
496.741	2.74	670011	WORD	n/a	wordpools/wordpool_EN.txt	SUN	2	2	n/a	n/a	pyFR	0	UP034
499.481	2.605	671414	WORD	n/a	wordpools/wordpool_EN.txt	MOTH	3	2	n/a	n/a	pyFR	0	UP034
502.086	2.54	672747	WORD	n/a	wordpools/wordpool_EN.txt	FOOT	4	2	n/a	n/a	pyFR	0	UP034
504.626	2.689	674048	WORD	n/a	wordpools/wordpool_EN.txt	CORN	5	2	n/a	n/a	pyFR	0	UP034
507.315	2.438	675424	WORD	n/a	wordpools/wordpool_EN.txt	FUDGE	6	2	n/a	n/a	pyFR	0	UP034
509.753	2.723	676672	WORD	n/a	wordpools/wordpool_EN.txt	WING	7	2	n/a	n/a	pyFR	0	UP034
512.476	2.806	678066	WORD	n/a	wordpools/wordpool_EN.txt	BANK	8	2	n/a	n/a	pyFR	0	UP034
515.282	2.789	679503	WORD	n/a	wordpools/wordpool_EN.txt	BUSH	9	2	n/a	n/a	pyFR	0	UP034
518.071	2.59	680931	WORD	n/a	wordpools/wordpool_EN.txt	MILK	10	2	n/a	n/a	pyFR	0	UP034
520.661	2.656	682257	WORD	n/a	wordpools/wordpool_EN.txt	ARM	11	2	n/a	n/a	pyFR	0	UP034
523.317	2.588	683616	WORD	n/a	wordpools/wordpool_EN.txt	SEED	12	2	n/a	n/a	pyFR	0	UP034
525.905	2.823	684941	WORD	n/a	wordpools/wordpool_EN.txt	LEG	13	2	n/a	n/a	pyFR	0	UP034
528.728	2.59	686386	WORD	n/a	wordpools/wordpool_EN.txt	STEM	14	2	n/a	n/a	pyFR	0	UP034
531.318	1.62	687712	WORD	n/a	wordpools/wordpool_EN.txt	TAPE	15	2	n/a	n/a	pyFR	0	UP034
532.938	1.201	688542	START	n/a	n/a	n/a	n/a	2	[-999 -999 -999]	-999	pyFR	0	UP034
534.139	10.257	689157	PROB	10.209	n/a	n/a	n/a	2	[7 8 9]	24	pyFR	0	UP034
544.396	5.897	694408	PROB	5.865	n/a	n/a	n/a	2	[5 4 4]	13	pyFR	0	UP034
550.293	6.986	697426	PROB	6.986	n/a	n/a	n/a	2	[3 7 9]	19	pyFR	0	UP034
557.279	1.082	701003	STOP	n/a	n/a	n/a	n/a	2	[-999 -999 -999]	-999	pyFR	0	UP034
558.361	3.594	701557	REC_START	n/a	n/a	n/a	-999	2	n/a	n/a	pyFR	0	UP034
561.955	2.886	703397	REC_WORD	3.594	n/a	SUN	-999	2	n/a	n/a	pyFR	0	UP034
564.841	8.449	704874	REC_WORD	6.48	n/a	MULE	-999	2	n/a	n/a	pyFR	0	UP034
573.29	2.858	709200	REC_WORD	14.929	n/a	WING	-999	2	n/a	n/a	pyFR	0	UP034
576.148	4.597	710663	REC_WORD	17.787	n/a	MOOD	-999	2	n/a	n/a	pyFR	0	UP034
580.745	48.522	713016	REC_WORD	22.384	n/a	STEM	-999	2	n/a	n/a	pyFR	0	UP034
629.267	0.016	737856	TRIAL	n/a	n/a	n/a	-999	3	n/a	n/a	pyFR	0	UP034
629.283	2.855	737865	ORIENT	n/a	n/a	n/a	-999	3	n/a	n/a	pyFR	0	UP034
632.138	2.606	739326	WORD	n/a	wordpools/wordpool_EN.txt	EGG	1	3	n/a	n/a	pyFR	0	UP034
634.744	2.607	740660	WORD	n/a	wordpools/wordpool_EN.txt	BOX	2	3	n/a	n/a	pyFR	0	UP034
637.351	2.654	741995	WORD	n/a	wordpools/wordpool_EN.txt	JEEP	3	3	n/a	n/a	pyFR	0	UP034
640.005	2.773	743354	WORD	n/a	wordpools/wordpool_EN.txt	MOUTH	4	3	n/a	n/a	pyFR	0	UP034
642.778	2.54	744773	WORD	n/a	wordpools/wordpool_EN.txt	JUICE	5	3	n/a	n/a	pyFR	0	UP034
645.318	2.521	746074	WORD	n/a	wordpools/wordpool_EN.txt	PALM	6	3	n/a	n/a	pyFR	0	UP034
647.839	2.707	747364	WORD	n/a	wordpools/wordpool_EN.txt	FENCE	7	3	n/a	n/a	pyFR	0	UP034
650.546	2.756	748750	WORD	n/a	wordpools/wordpool_EN.txt	INK	8	3	n/a	n/a	pyFR	0	UP034
653.302	2.672	750161	WORD	n/a	wordpools/wordpool_EN.txt	CLAY	9	3	n/a	n/a	pyFR	0	UP034
655.974	2.806	751529	WORD	n/a	wordpools/wordpool_EN.txt	BADGE	10	3	n/a	n/a	pyFR	0	UP034
658.78	2.674	752965	WORD	n/a	wordpools/wordpool_EN.txt	APE	11	3	n/a	n/a	pyFR	0	UP034
661.454	2.806	754334	WORD	n/a	wordpools/wordpool_EN.txt	SAIL	12	3	n/a	n/a	pyFR	0	UP034
664.26	2.555	755771	WORD	n/a	wordpools/wordpool_EN.txt	ROOT	13	3	n/a	n/a	pyFR	0	UP034
666.815	2.773	757079	WORD	n/a	wordpools/wordpool_EN.txt	JAIL	14	3	n/a	n/a	pyFR	0	UP034
669.588	1.621	758498	WORD	n/a	wordpools/wordpool_EN.txt	FARM	15	3	n/a	n/a	pyFR	0	UP034
671.209	0.917	759328	START	n/a	n/a	n/a	n/a	3	[-999 -999 -999]	-999	pyFR	0	UP034
672.126	7.717	759798	PROB	7.676	n/a	n/a	n/a	3	[8 4 3]	15	pyFR	0	UP034
679.843	7.884	763748	PROB	7.849	n/a	n/a	n/a	3	[8 5 8]	21	pyFR	0	UP034
687.727	7.213	767785	PROB	7.213	n/a	n/a	n/a	3	[2 8 9]	19	pyFR	0	UP034
694.94	1.206	771477	STOP	n/a	n/a	n/a	n/a	3	[-999 -999 -999]	-999	pyFR	0	UP034
696.146	1.303	772095	REC_START	n/a	n/a	n/a	-999	3	n/a	n/a	pyFR	0	UP034
697.449	2.651	772762	REC_WORD	1.303	n/a	EGG	-999	3	n/a	n/a	pyFR	0	UP034
700.1	4.579	774119	REC_WORD	3.954	n/a	SAIL	-999	3	n/a	n/a	pyFR	0	UP034
704.679	7.078	776463	REC_WORD	8.533	n/a	PALM	-999	3	n/a	n/a	pyFR	0	UP034
711.757	9.949	780086	REC_WORD	15.611	n/a	FARM	-999	3	n/a	n/a	pyFR	0	UP034
721.706	10.708	785180	REC_WORD	25.56	n/a	BADGE	-999	3	n/a	n/a	pyFR	0	UP034
732.414	32.151	790662	REC_WORD_VV	36.268	n/a	<>	-999	3	n/a	n/a	pyFR	0	UP034
764.565	0.016	807121	TRIAL	n/a	n/a	n/a	-999	4	n/a	n/a	pyFR	0	UP034
764.581	3.023	807129	ORIENT	n/a	n/a	n/a	-999	4	n/a	n/a	pyFR	0	UP034
767.604	2.722	808677	WORD	n/a	wordpools/wordpool_EN.txt	STEAK	1	4	n/a	n/a	pyFR	0	UP034
770.326	2.655	810070	WORD	n/a	wordpools/wordpool_EN.txt	CHEEK	2	4	n/a	n/a	pyFR	0	UP034
772.981	2.423	811430	WORD	n/a	wordpools/wordpool_EN.txt	STOOL	3	4	n/a	n/a	pyFR	0	UP034
775.404	2.622	812670	WORD	n/a	wordpools/wordpool_EN.txt	BARN	4	4	n/a	n/a	pyFR	0	UP034
778.026	2.573	814012	WORD	n/a	wordpools/wordpool_EN.txt	PEA	5	4	n/a	n/a	pyFR	0	UP034
780.599	2.739	815330	WORD	n/a	wordpools/wordpool_EN.txt	ELF	6	4	n/a	n/a	pyFR	0	UP034
783.338	2.438	816732	WORD	n/a	wordpools/wordpool_EN.txt	FISH	7	4	n/a	n/a	pyFR	0	UP034
785.776	2.74	817980	WORD	n/a	wordpools/wordpool_EN.txt	PEN	8	4	n/a	n/a	pyFR	0	UP034
788.516	2.773	819383	WORD	n/a	wordpools/wordpool_EN.txt	DOOR	9	4	n/a	n/a	pyFR	0	UP034
791.289	2.805	820802	WORD	n/a	wordpools/wordpool_EN.txt	ROOM	10	4	n/a	n/a	pyFR	0	UP034
794.094	2.64	822238	WORD	n/a	wordpools/wordpool_EN.txt	BOARD	11	4	n/a	n/a	pyFR	0	UP034
796.734	2.723	823590	WORD	n/a	wordpools/wordpool_EN.txt	FRUIT	12	4	n/a	n/a	pyFR	0	UP034
799.457	2.772	824984	WORD	n/a	wordpools/wordpool_EN.txt	TENT	13	4	n/a	n/a	pyFR	0	UP034
802.229	2.472	826403	WORD	n/a	wordpools/wordpool_EN.txt	CAGE	14	4	n/a	n/a	pyFR	0	UP034
804.701	1.622	827668	WORD	n/a	wordpools/wordpool_EN.txt	RAT	15	4	n/a	n/a	pyFR	0	UP034
806.323	1.051	828499	START	n/a	n/a	n/a	n/a	4	[-999 -999 -999]	-999	pyFR	0	UP034
807.374	4.86	829037	PROB	4.833	n/a	n/a	n/a	4	[2 4 6]	12	pyFR	0	UP034
812.234	5.012	831525	PROB	4.982	n/a	n/a	n/a	4	[2 5 8]	15	pyFR	0	UP034
817.246	13.125	834091	PROB	13.125	n/a	n/a	n/a	4	[7 3 9]	19	pyFR	0	UP034
830.371	1.124	840810	STOP	n/a	n/a	n/a	n/a	4	[-999 -999 -999]	-999	pyFR	0	UP034
831.495	2.695	841385	REC_START	n/a	n/a	n/a	-999	4	n/a	n/a	pyFR	0	UP034
834.19	2.765	842765	REC_WORD	2.695	n/a	STEAK	-999	4	n/a	n/a	pyFR	0	UP034
836.955	3.15	844180	REC_WORD	5.46	n/a	EEL	-999	4	n/a	n/a	pyFR	0	UP034
840.105	7.192	845793	REC_WORD	8.61	n/a	PEN	-999	4	n/a	n/a	pyFR	0	UP034
847.297	1.0	849475	REC_WORD_VV	15.802	n/a	<>	-999	4	n/a	n/a	pyFR	0	UP034
848.297	1.0	849987	REC_WORD_VV	16.802	n/a	<>	-999	4	n/a	n/a	pyFR	0	UP034
849.297	1.0	850499	REC_WORD_VV	17.802	n/a	<>	-999	4	n/a	n/a	pyFR	0	UP034
850.297	1.0	851011	REC_WORD_VV	18.802	n/a	<>	-999	4	n/a	n/a	pyFR	0	UP034
851.297	1.0	851523	REC_WORD_VV	19.802	n/a	<>	-999	4	n/a	n/a	pyFR	0	UP034
852.297	2.62	852035	REC_WORD_VV	20.802	n/a	<>	-999	4	n/a	n/a	pyFR	0	UP034
854.917	11.637	853376	REC_WORD	23.422	n/a	BARN	-999	4	n/a	n/a	pyFR	0	UP034
866.554	31.353	859333	REC_WORD	35.059	n/a	RAT	-999	4	n/a	n/a	pyFR	0	UP034
897.907	0.016	875384	TRIAL	n/a	n/a	n/a	-999	5	n/a	n/a	pyFR	0	UP034
897.923	2.989	875393	ORIENT	n/a	n/a	n/a	-999	5	n/a	n/a	pyFR	0	UP034
900.912	2.557	876923	WORD	n/a	wordpools/wordpool_EN.txt	SEA	1	5	n/a	n/a	pyFR	0	UP034
903.469	2.505	878232	WORD	n/a	wordpools/wordpool_EN.txt	FAN	2	5	n/a	n/a	pyFR	0	UP034
905.974	2.806	879514	WORD	n/a	wordpools/wordpool_EN.txt	SOCK	3	5	n/a	n/a	pyFR	0	UP034
908.78	2.455	880951	WORD	n/a	wordpools/wordpool_EN.txt	HEART	4	5	n/a	n/a	pyFR	0	UP034
911.235	2.84	882207	WORD	n/a	wordpools/wordpool_EN.txt	STOVE	5	5	n/a	n/a	pyFR	0	UP034
914.075	2.59	883661	WORD	n/a	wordpools/wordpool_EN.txt	MUD	6	5	n/a	n/a	pyFR	0	UP034
916.665	2.689	884987	WORD	n/a	wordpools/wordpool_EN.txt	VINE	7	5	n/a	n/a	pyFR	0	UP034
919.354	2.822	886364	WORD	n/a	wordpools/wordpool_EN.txt	TAIL	8	5	n/a	n/a	pyFR	0	UP034
922.176	2.606	887809	WORD	n/a	wordpools/wordpool_EN.txt	MOON	9	5	n/a	n/a	pyFR	0	UP034
924.782	2.623	889143	WORD	n/a	wordpools/wordpool_EN.txt	CLOTH	10	5	n/a	n/a	pyFR	0	UP034
927.405	2.738	890486	WORD	n/a	wordpools/wordpool_EN.txt	DAD	11	5	n/a	n/a	pyFR	0	UP034
930.143	2.806	891887	WORD	n/a	wordpools/wordpool_EN.txt	HILL	12	5	n/a	n/a	pyFR	0	UP034
932.949	2.44	893324	WORD	n/a	wordpools/wordpool_EN.txt	EAR	13	5	n/a	n/a	pyFR	0	UP034
935.389	2.555	894573	WORD	n/a	wordpools/wordpool_EN.txt	WAND	14	5	n/a	n/a	pyFR	0	UP034
937.944	1.623	895881	WORD	n/a	wordpools/wordpool_EN.txt	PIT	15	5	n/a	n/a	pyFR	0	UP034
939.567	0.833	896712	START	n/a	n/a	n/a	n/a	5	[-999 -999 -999]	-999	pyFR	0	UP034
940.4	5.095	897138	PROB	5.046	n/a	n/a	n/a	5	[8 2 2]	12	pyFR	0	UP034
945.495	8.417	899747	PROB	8.383	n/a	n/a	n/a	5	[7 6 6]	19	pyFR	0	UP034
953.912	9.521	904056	PROB	9.521	n/a	n/a	n/a	5	[5 8 1]	14	pyFR	0	UP034
963.433	1.071	908930	STOP	n/a	n/a	n/a	n/a	5	[-999 -999 -999]	-999	pyFR	0	UP034
964.504	0.903	909478	REC_START	n/a	n/a	n/a	-999	5	n/a	n/a	pyFR	0	UP034
965.407	2.532	909940	REC_WORD	0.903	n/a	SEA	-999	5	n/a	n/a	pyFR	0	UP034
967.939	2.47	911237	REC_WORD	3.435	n/a	FAN	-999	5	n/a	n/a	pyFR	0	UP034
970.409	1.616	912501	REC_WORD	5.905	n/a	WIND	-999	5	n/a	n/a	pyFR	0	UP034
972.025	1.665	913328	REC_WORD	7.521	n/a	DAD	-999	5	n/a	n/a	pyFR	0	UP034
973.69	8.196	914181	REC_WORD	9.186	n/a	HILL	-999	5	n/a	n/a	pyFR	0	UP034
981.886	56.33	918377	REC_WORD	17.382	n/a	MIND	-999	5	n/a	n/a	pyFR	0	UP034
1038.216	0.015	947214	TRIAL	n/a	n/a	n/a	-999	6	n/a	n/a	pyFR	0	UP034
1038.231	3.024	947222	ORIENT	n/a	n/a	n/a	-999	6	n/a	n/a	pyFR	0	UP034
1041.255	2.572	948770	WORD	n/a	wordpools/wordpool_EN.txt	WALL	1	6	n/a	n/a	pyFR	0	UP034
1043.827	2.656	950087	WORD	n/a	wordpools/wordpool_EN.txt	CAKE	2	6	n/a	n/a	pyFR	0	UP034
1046.483	2.756	951446	WORD	n/a	wordpools/wordpool_EN.txt	FUR	3	6	n/a	n/a	pyFR	0	UP034
1049.239	2.689	952857	WORD	n/a	wordpools/wordpool_EN.txt	LAND	4	6	n/a	n/a	pyFR	0	UP034
1051.928	2.506	954234	WORD	n/a	wordpools/wordpool_EN.txt	SMOKE	5	6	n/a	n/a	pyFR	0	UP034
1054.434	2.823	955517	WORD	n/a	wordpools/wordpool_EN.txt	SHIRT	6	6	n/a	n/a	pyFR	0	UP034
1057.257	2.488	956962	WORD	n/a	wordpools/wordpool_EN.txt	SPOON	7	6	n/a	n/a	pyFR	0	UP034
1059.745	2.59	958236	WORD	n/a	wordpools/wordpool_EN.txt	KITE	8	6	n/a	n/a	pyFR	0	UP034
1062.335	2.638	959562	WORD	n/a	wordpools/wordpool_EN.txt	FROG	9	6	n/a	n/a	pyFR	0	UP034
1064.973	2.574	960912	WORD	n/a	wordpools/wordpool_EN.txt	CONE	10	6	n/a	n/a	pyFR	0	UP034
1067.547	2.671	962230	WORD	n/a	wordpools/wordpool_EN.txt	QUEEN	11	6	n/a	n/a	pyFR	0	UP034
1070.218	2.79	963597	WORD	n/a	wordpools/wordpool_EN.txt	SOUP	12	6	n/a	n/a	pyFR	0	UP034
1073.008	2.673	965026	WORD	n/a	wordpools/wordpool_EN.txt	CANE	13	6	n/a	n/a	pyFR	0	UP034
1075.681	2.706	966394	WORD	n/a	wordpools/wordpool_EN.txt	SPONGE	14	6	n/a	n/a	pyFR	0	UP034
1078.387	1.621	967779	WORD	n/a	wordpools/wordpool_EN.txt	SEAT	15	6	n/a	n/a	pyFR	0	UP034
1080.008	0.917	968609	START	n/a	n/a	n/a	n/a	6	[-999 -999 -999]	-999	pyFR	0	UP034
1080.925	12.026	969079	PROB	12.0	n/a	n/a	n/a	6	[8 3 7]	18	pyFR	0	UP034
1092.951	4.042	975235	PROB	4.015	n/a	n/a	n/a	6	[2 6 4]	12	pyFR	0	UP034
1096.993	4.206	977305	PROB	4.206	n/a	n/a	n/a	6	[5 1 3]	9	pyFR	0	UP034
1101.199	1.158	979458	STOP	n/a	n/a	n/a	n/a	6	[-999 -999 -999]	-999	pyFR	0	UP034
1102.357	1.716	980051	REC_START	n/a	n/a	n/a	-999	6	n/a	n/a	pyFR	0	UP034
1104.073	1.17	980929	REC_WORD	1.716	n/a	SHORT	-999	6	n/a	n/a	pyFR	0	UP034
1105.243	2.634	981528	REC_WORD	2.886	n/a	SHIRT	-999	6	n/a	n/a	pyFR	0	UP034
1107.877	2.495	982877	REC_WORD	5.52	n/a	SPOON	-999	6	n/a	n/a	pyFR	0	UP034
1110.372	3.946	984154	REC_WORD	8.015	n/a	CAKE	-999	6	n/a	n/a	pyFR	0	UP034
1114.318	1.27	986174	REC_WORD	11.961	n/a	FAN	-999	6	n/a	n/a	pyFR	0	UP034
1115.588	28.778	986824	REC_WORD	13.231	n/a	WALL	-999	6	n/a	n/a	pyFR	0	UP034
1144.366	1.0	1001557	REC_WORD_VV	42.009	n/a	<>	-999	6	n/a	n/a	pyFR	0	UP034
1145.366	3.327	1002069	REC_WORD_VV	43.009	n/a	<>	-999	6	n/a	n/a	pyFR	0	UP034
1148.693	0.014	1003772	TRIAL	n/a	n/a	n/a	-999	7	n/a	n/a	pyFR	0	UP034
1148.707	2.791	1003779	ORIENT	n/a	n/a	n/a	-999	7	n/a	n/a	pyFR	0	UP034
1151.498	2.571	1005208	WORD	n/a	wordpools/wordpool_EN.txt	BLOOM	1	7	n/a	n/a	pyFR	0	UP034
1154.069	2.59	1006524	WORD	n/a	wordpools/wordpool_EN.txt	CUP	2	7	n/a	n/a	pyFR	0	UP034
1156.659	2.471	1007850	WORD	n/a	wordpools/wordpool_EN.txt	STRAW	3	7	n/a	n/a	pyFR	0	UP034
1159.13	2.756	1009115	WORD	n/a	wordpools/wordpool_EN.txt	SLIME	4	7	n/a	n/a	pyFR	0	UP034
1161.886	2.457	1010526	WORD	n/a	wordpools/wordpool_EN.txt	PET	5	7	n/a	n/a	pyFR	0	UP034
1164.343	2.755	1011784	WORD	n/a	wordpools/wordpool_EN.txt	GRASS	6	7	n/a	n/a	pyFR	0	UP034
1167.098	2.59	1013194	WORD	n/a	wordpools/wordpool_EN.txt	PIE	7	7	n/a	n/a	pyFR	0	UP034
1169.688	2.605	1014520	WORD	n/a	wordpools/wordpool_EN.txt	LEAF	8	7	n/a	n/a	pyFR	0	UP034
1172.293	2.705	1015854	WORD	n/a	wordpools/wordpool_EN.txt	TOE	9	7	n/a	n/a	pyFR	0	UP034
1174.998	2.49	1017239	WORD	n/a	wordpools/wordpool_EN.txt	SHRIMP	10	7	n/a	n/a	pyFR	0	UP034
1177.488	2.555	1018513	WORD	n/a	wordpools/wordpool_EN.txt	LAMB	11	7	n/a	n/a	pyFR	0	UP034
1180.043	2.64	1019821	WORD	n/a	wordpools/wordpool_EN.txt	CAR	12	7	n/a	n/a	pyFR	0	UP034
1182.683	2.454	1021173	WORD	n/a	wordpools/wordpool_EN.txt	TOY	13	7	n/a	n/a	pyFR	0	UP034
1185.137	2.49	1022429	WORD	n/a	wordpools/wordpool_EN.txt	PIG	14	7	n/a	n/a	pyFR	0	UP034
1187.627	1.622	1023704	WORD	n/a	wordpools/wordpool_EN.txt	SPRING	15	7	n/a	n/a	pyFR	0	UP034
1189.249	1.184	1024534	START	n/a	n/a	n/a	n/a	7	[-999 -999 -999]	-999	pyFR	0	UP034
1190.433	5.93	1025140	PROB	5.894	n/a	n/a	n/a	7	[1 9 1]	11	pyFR	0	UP034
1196.363	9.821	1028176	PROB	9.789	n/a	n/a	n/a	7	[9 2 6]	17	pyFR	0	UP034
1206.184	3.057	1033204	PROB	3.057	n/a	n/a	n/a	7	[1 3 7]	11	pyFR	0	UP034
1209.241	1.237	1034769	STOP	n/a	n/a	n/a	n/a	7	[-999 -999 -999]	-999	pyFR	0	UP034
1210.478	1.239	1035402	REC_START	n/a	n/a	n/a	-999	7	n/a	n/a	pyFR	0	UP034
1211.717	0.905	1036037	REC_WORD	1.239	n/a	CUP	-999	7	n/a	n/a	pyFR	0	UP034
1212.622	1.879	1036500	REC_WORD	2.144	n/a	STRAW	-999	7	n/a	n/a	pyFR	0	UP034
1214.501	6.692	1037462	REC_WORD	4.023	n/a	PET	-999	7	n/a	n/a	pyFR	0	UP034
1221.193	6.554	1040888	REC_WORD	10.715	n/a	BLOOM	-999	7	n/a	n/a	pyFR	0	UP034
1227.747	9.407	1044243	REC_WORD	17.269	n/a	SHRIMP	-999	7	n/a	n/a	pyFR	0	UP034
1237.154	39.853	1049059	REC_WORD	26.676	n/a	SPRING	-999	7	n/a	n/a	pyFR	0	UP034
1277.007	0.016	1069461	TRIAL	n/a	n/a	n/a	-999	8	n/a	n/a	pyFR	0	UP034
1277.023	2.722	1069469	ORIENT	n/a	n/a	n/a	-999	8	n/a	n/a	pyFR	0	UP034
1279.745	2.54	1070863	WORD	n/a	wordpools/wordpool_EN.txt	SHOE	1	8	n/a	n/a	pyFR	0	UP034
1282.285	2.755	1072163	WORD	n/a	wordpools/wordpool_EN.txt	DOG	2	8	n/a	n/a	pyFR	0	UP034
1285.04	2.807	1073574	WORD	n/a	wordpools/wordpool_EN.txt	SPARK	3	8	n/a	n/a	pyFR	0	UP034
1287.847	2.79	1075011	WORD	n/a	wordpools/wordpool_EN.txt	WEB	4	8	n/a	n/a	pyFR	0	UP034
1290.637	2.723	1076439	WORD	n/a	wordpools/wordpool_EN.txt	BEAN	5	8	n/a	n/a	pyFR	0	UP034
1293.36	2.654	1077833	WORD	n/a	wordpools/wordpool_EN.txt	ROSE	6	8	n/a	n/a	pyFR	0	UP034
1296.014	2.641	1079192	WORD	n/a	wordpools/wordpool_EN.txt	FOAM	7	8	n/a	n/a	pyFR	0	UP034
1298.655	2.487	1080544	WORD	n/a	wordpools/wordpool_EN.txt	PANTS	8	8	n/a	n/a	pyFR	0	UP034
1301.142	2.556	1081817	WORD	n/a	wordpools/wordpool_EN.txt	VASE	9	8	n/a	n/a	pyFR	0	UP034
1303.698	2.74	1083125	WORD	n/a	wordpools/wordpool_EN.txt	GEESE	10	8	n/a	n/a	pyFR	0	UP034
1306.438	2.505	1084528	WORD	n/a	wordpools/wordpool_EN.txt	LIP	11	8	n/a	n/a	pyFR	0	UP034
1308.943	2.74	1085811	WORD	n/a	wordpools/wordpool_EN.txt	STREET	12	8	n/a	n/a	pyFR	0	UP034
1311.683	2.438	1087213	WORD	n/a	wordpools/wordpool_EN.txt	BOOK	13	8	n/a	n/a	pyFR	0	UP034
1314.121	2.823	1088461	WORD	n/a	wordpools/wordpool_EN.txt	SHELL	14	8	n/a	n/a	pyFR	0	UP034
1316.944	1.622	1089907	WORD	n/a	wordpools/wordpool_EN.txt	HAWK	15	8	n/a	n/a	pyFR	0	UP034
1318.566	1.018	1090737	START	n/a	n/a	n/a	n/a	8	[-999 -999 -999]	-999	pyFR	0	UP034
1319.584	4.258	1091258	PROB	4.22	n/a	n/a	n/a	8	[2 3 2]	7	pyFR	0	UP034
1323.842	9.221	1093438	PROB	9.195	n/a	n/a	n/a	8	[9 6 9]	24	pyFR	0	UP034
1333.063	3.708	1098159	PROB	3.679	n/a	n/a	n/a	8	[2 1 3]	6	pyFR	0	UP034
1336.771	5.477	1100057	PROB	5.477	n/a	n/a	n/a	8	[1 6 7]	14	pyFR	0	UP034
1342.248	1.055	1102861	STOP	n/a	n/a	n/a	n/a	8	[-999 -999 -999]	-999	pyFR	0	UP034
1343.303	1.209	1103401	REC_START	n/a	n/a	n/a	-999	8	n/a	n/a	pyFR	0	UP034
1344.512	0.826	1104020	REC_WORD	1.209	n/a	DOG	-999	8	n/a	n/a	pyFR	0	UP034
1345.338	1.101	1104443	REC_WORD	2.035	n/a	HAWK	-999	8	n/a	n/a	pyFR	0	UP034
1346.439	0.892	1105006	REC_WORD	3.136	n/a	ROSE	-999	8	n/a	n/a	pyFR	0	UP034
1347.331	1.404	1105463	REC_WORD	4.028	n/a	VASE	-999	8	n/a	n/a	pyFR	0	UP034
1348.735	14.148	1106182	REC_WORD	5.432	n/a	SHOE	-999	8	n/a	n/a	pyFR	0	UP034
1362.883	13.986	1113425	REC_WORD	19.58	n/a	BLOOM	-999	8	n/a	n/a	pyFR	0	UP034
1376.869	1.343	1120585	REC_WORD	33.566	n/a	PANTS	-999	8	n/a	n/a	pyFR	0	UP034
1378.212	33.591	1121272	REC_WORD	34.909	n/a	SHIRT	-999	8	n/a	n/a	pyFR	0	UP034
1411.803	0.016	1138469	TRIAL	n/a	n/a	n/a	-999	9	n/a	n/a	pyFR	0	UP034
1411.819	2.923	1138477	ORIENT	n/a	n/a	n/a	-999	9	n/a	n/a	pyFR	0	UP034
1414.742	2.59	1139973	WORD	n/a	wordpools/wordpool_EN.txt	HEN	1	9	n/a	n/a	pyFR	0	UP034
1417.332	2.455	1141299	WORD	n/a	wordpools/wordpool_EN.txt	COAT	2	9	n/a	n/a	pyFR	0	UP034
1419.787	2.824	1142556	WORD	n/a	wordpools/wordpool_EN.txt	CHIN	3	9	n/a	n/a	pyFR	0	UP034
1422.611	2.621	1144002	WORD	n/a	wordpools/wordpool_EN.txt	TEETH	4	9	n/a	n/a	pyFR	0	UP034
1425.232	2.44	1145344	WORD	n/a	wordpools/wordpool_EN.txt	SLEEVE	5	9	n/a	n/a	pyFR	0	UP034
1427.672	2.471	1146593	WORD	n/a	wordpools/wordpool_EN.txt	RAKE	6	9	n/a	n/a	pyFR	0	UP034
1430.143	2.706	1147858	WORD	n/a	wordpools/wordpool_EN.txt	GOAT	7	9	n/a	n/a	pyFR	0	UP034
1432.849	2.706	1149243	WORD	n/a	wordpools/wordpool_EN.txt	PLATE	8	9	n/a	n/a	pyFR	0	UP034
1435.555	2.773	1150628	WORD	n/a	wordpools/wordpool_EN.txt	CLOCK	9	9	n/a	n/a	pyFR	0	UP034
1438.328	2.538	1152048	WORD	n/a	wordpools/wordpool_EN.txt	DUCK	10	9	n/a	n/a	pyFR	0	UP034
1440.866	2.774	1153347	WORD	n/a	wordpools/wordpool_EN.txt	BOAT	11	9	n/a	n/a	pyFR	0	UP034
1443.64	2.505	1154767	WORD	n/a	wordpools/wordpool_EN.txt	BOMB	12	9	n/a	n/a	pyFR	0	UP034
1446.145	2.589	1156050	WORD	n/a	wordpools/wordpool_EN.txt	SHEEP	13	9	n/a	n/a	pyFR	0	UP034
1448.734	2.807	1157375	WORD	n/a	wordpools/wordpool_EN.txt	FILM	14	9	n/a	n/a	pyFR	0	UP034
1451.541	1.62	1158812	WORD	n/a	wordpools/wordpool_EN.txt	PEARL	15	9	n/a	n/a	pyFR	0	UP034
1453.161	1.051	1159642	START	n/a	n/a	n/a	n/a	9	[-999 -999 -999]	-999	pyFR	0	UP034
1454.212	5.246	1160180	PROB	5.207	n/a	n/a	n/a	9	[9 3 5]	17	pyFR	0	UP034
1459.458	4.844	1162865	PROB	4.809	n/a	n/a	n/a	9	[6 6 6]	18	pyFR	0	UP034
1464.302	7.766	1165345	PROB	7.726	n/a	n/a	n/a	9	[2 3 8]	13	pyFR	0	UP034
1472.068	4.434	1169321	PROB	4.434	n/a	n/a	n/a	9	[6 9 1]	16	pyFR	0	UP034
1476.502	1.097	1171591	STOP	n/a	n/a	n/a	n/a	9	[-999 -999 -999]	-999	pyFR	0	UP034
1477.599	0.874	1172152	REC_START	n/a	n/a	n/a	-999	9	n/a	n/a	pyFR	0	UP034
1478.473	1.427	1172600	REC_WORD	0.874	n/a	HEN	-999	9	n/a	n/a	pyFR	0	UP034
1479.9	1.266	1173330	REC_WORD	2.301	n/a	GOAT	-999	9	n/a	n/a	pyFR	0	UP034
1481.166	11.645	1173979	REC_WORD	3.567	n/a	COAT	-999	9	n/a	n/a	pyFR	0	UP034
1492.811	31.289	1179940	REC_WORD	15.212	n/a	SLEEVE	-999	9	n/a	n/a	pyFR	0	UP034
1524.1	0.016	1195958	TRIAL	n/a	n/a	n/a	-999	10	n/a	n/a	pyFR	0	UP034
1524.116	2.656	1195966	ORIENT	n/a	n/a	n/a	-999	10	n/a	n/a	pyFR	0	UP034
1526.772	2.673	1197326	WORD	n/a	wordpools/wordpool_EN.txt	BAT	1	10	n/a	n/a	pyFR	0	UP034
1529.445	2.572	1198695	WORD	n/a	wordpools/wordpool_EN.txt	STICK	2	10	n/a	n/a	pyFR	0	UP034
1532.017	2.623	1200011	WORD	n/a	wordpools/wordpool_EN.txt	FLAG	3	10	n/a	n/a	pyFR	0	UP034
1534.64	2.606	1201354	WORD	n/a	wordpools/wordpool_EN.txt	BOWL	4	10	n/a	n/a	pyFR	0	UP034
1537.246	2.655	1202688	WORD	n/a	wordpools/wordpool_EN.txt	ROAD	5	10	n/a	n/a	pyFR	0	UP034
1539.901	2.774	1204047	WORD	n/a	wordpools/wordpool_EN.txt	DIME	6	10	n/a	n/a	pyFR	0	UP034
1542.675	2.755	1205468	WORD	n/a	wordpools/wordpool_EN.txt	SKI	7	10	n/a	n/a	pyFR	0	UP034
1545.43	2.572	1206878	WORD	n/a	wordpools/wordpool_EN.txt	BEAK	8	10	n/a	n/a	pyFR	0	UP034
1548.002	2.673	1208195	WORD	n/a	wordpools/wordpool_EN.txt	DOLL	9	10	n/a	n/a	pyFR	0	UP034
1550.675	2.573	1209563	WORD	n/a	wordpools/wordpool_EN.txt	FLUTE	10	10	n/a	n/a	pyFR	0	UP034
1553.248	2.488	1210880	WORD	n/a	wordpools/wordpool_EN.txt	GUARD	11	10	n/a	n/a	pyFR	0	UP034
1555.736	2.472	1212154	WORD	n/a	wordpools/wordpool_EN.txt	SNAIL	12	10	n/a	n/a	pyFR	0	UP034
1558.208	2.655	1213420	WORD	n/a	wordpools/wordpool_EN.txt	MOOSE	13	10	n/a	n/a	pyFR	0	UP034
1560.863	2.674	1214779	WORD	n/a	wordpools/wordpool_EN.txt	CRANE	14	10	n/a	n/a	pyFR	0	UP034
1563.537	1.621	1216148	WORD	n/a	wordpools/wordpool_EN.txt	TRASH	15	10	n/a	n/a	pyFR	0	UP034
1565.158	0.967	1216978	START	n/a	n/a	n/a	n/a	10	[-999 -999 -999]	-999	pyFR	0	UP034
1566.125	4.727	1217473	PROB	4.695	n/a	n/a	n/a	10	[2 4 8]	14	pyFR	0	UP034
1570.852	9.387	1219893	PROB	9.362	n/a	n/a	n/a	10	[4 2 8]	14	pyFR	0	UP034
1580.239	3.859	1224698	PROB	3.831	n/a	n/a	n/a	10	[9 1 7]	17	pyFR	0	UP034
1584.098	4.454	1226674	PROB	4.454	n/a	n/a	n/a	10	[4 5 9]	18	pyFR	0	UP034
1588.552	1.226	1228954	STOP	n/a	n/a	n/a	n/a	10	[-999 -999 -999]	-999	pyFR	0	UP034
1589.778	0.978	1229582	REC_START	n/a	n/a	n/a	-999	10	n/a	n/a	pyFR	0	UP034
1590.756	1.145	1230082	REC_WORD	0.978	n/a	SNAIL	-999	10	n/a	n/a	pyFR	0	UP034
1591.901	0.9	1230668	REC_WORD	2.123	n/a	MOOSE	-999	10	n/a	n/a	pyFR	0	UP034
1592.801	2.257	1231129	REC_WORD	3.023	n/a	TRASH	-999	10	n/a	n/a	pyFR	0	UP034
1595.058	3.728	1232285	REC_WORD	5.28	n/a	FLAG	-999	10	n/a	n/a	pyFR	0	UP034
1598.786	5.375	1234193	REC_WORD	9.008	n/a	POLE	-999	10	n/a	n/a	pyFR	0	UP034
1604.161	1.328	1236945	REC_WORD_VV	14.383	n/a	<>	-999	10	n/a	n/a	pyFR	0	UP034
1605.489	20.942	1237625	REC_WORD	15.711	n/a	HEN	-999	10	n/a	n/a	pyFR	0	UP034
1626.431	57.839	1248346	REC_WORD	36.653	n/a	COAT	-999	10	n/a	n/a	pyFR	0	UP034
1684.27	0.016	1277956	TRIAL	n/a	n/a	n/a	-999	11	n/a	n/a	pyFR	0	UP034
1684.286	2.738	1277964	ORIENT	n/a	n/a	n/a	-999	11	n/a	n/a	pyFR	0	UP034
1687.024	2.506	1279366	WORD	n/a	wordpools/wordpool_EN.txt	HOSE	1	11	n/a	n/a	pyFR	0	UP034
1689.53	2.472	1280649	WORD	n/a	wordpools/wordpool_EN.txt	TEA	2	11	n/a	n/a	pyFR	0	UP034
1692.002	2.623	1281914	WORD	n/a	wordpools/wordpool_EN.txt	SCHOOL	3	11	n/a	n/a	pyFR	0	UP034
1694.625	2.471	1283257	WORD	n/a	wordpools/wordpool_EN.txt	DEER	4	11	n/a	n/a	pyFR	0	UP034
1697.096	2.557	1284522	WORD	n/a	wordpools/wordpool_EN.txt	WORM	5	11	n/a	n/a	pyFR	0	UP034
1699.653	2.806	1285831	WORD	n/a	wordpools/wordpool_EN.txt	MUG	6	11	n/a	n/a	pyFR	0	UP034
1702.459	2.605	1287268	WORD	n/a	wordpools/wordpool_EN.txt	STONE	7	11	n/a	n/a	pyFR	0	UP034
1705.064	2.689	1288601	WORD	n/a	wordpools/wordpool_EN.txt	MOLE	8	11	n/a	n/a	pyFR	0	UP034
1707.753	2.573	1289978	WORD	n/a	wordpools/wordpool_EN.txt	ROOF	9	11	n/a	n/a	pyFR	0	UP034
1710.326	2.722	1291295	WORD	n/a	wordpools/wordpool_EN.txt	HORSE	10	11	n/a	n/a	pyFR	0	UP034
1713.048	2.706	1292689	WORD	n/a	wordpools/wordpool_EN.txt	SPEAR	11	11	n/a	n/a	pyFR	0	UP034
1715.754	2.757	1294074	WORD	n/a	wordpools/wordpool_EN.txt	SUIT	12	11	n/a	n/a	pyFR	0	UP034
1718.511	2.588	1295485	WORD	n/a	wordpools/wordpool_EN.txt	SOAP	13	11	n/a	n/a	pyFR	0	UP034
1721.099	2.49	1296810	WORD	n/a	wordpools/wordpool_EN.txt	BELL	14	11	n/a	n/a	pyFR	0	UP034
1723.589	1.62	1298085	WORD	n/a	wordpools/wordpool_EN.txt	TRUCK	15	11	n/a	n/a	pyFR	0	UP034
1725.209	0.918	1298914	START	n/a	n/a	n/a	n/a	11	[-999 -999 -999]	-999	pyFR	0	UP034
1726.127	6.648	1299384	PROB	6.607	n/a	n/a	n/a	11	[8 4 4]	16	pyFR	0	UP034
1732.775	4.811	1302788	PROB	4.777	n/a	n/a	n/a	11	[1 8 2]	11	pyFR	0	UP034
1737.586	6.363	1305251	PROB	6.327	n/a	n/a	n/a	11	[2 4 2]	8	pyFR	0	UP034
1743.949	4.437	1308508	PROB	4.437	n/a	n/a	n/a	11	[9 2 8]	19	pyFR	0	UP034
1748.386	1.11	1310779	STOP	n/a	n/a	n/a	n/a	11	[-999 -999 -999]	-999	pyFR	0	UP034
1749.496	1.778	1311348	REC_START	n/a	n/a	n/a	-999	11	n/a	n/a	pyFR	0	UP034
1751.274	3.755	1312258	REC_WORD	1.778	n/a	HOSE	-999	11	n/a	n/a	pyFR	0	UP034
1755.029	4.433	1314180	REC_WORD	5.533	n/a	MULE	-999	11	n/a	n/a	pyFR	0	UP034
1759.462	2.106	1316450	REC_WORD	9.966	n/a	GOAT	-999	11	n/a	n/a	pyFR	0	UP034
1761.568	4.394	1317528	REC_WORD	12.072	n/a	TRUCK	-999	11	n/a	n/a	pyFR	0	UP034
1765.962	6.02	1319777	REC_WORD	16.466	n/a	WORM	-999	11	n/a	n/a	pyFR	0	UP034
1771.982	24.083	1322859	REC_WORD	22.486	n/a	SNAIL	-999	11	n/a	n/a	pyFR	0	UP034
1796.065	0.016	1335188	TRIAL	n/a	n/a	n/a	-999	12	n/a	n/a	pyFR	0	UP034
1796.081	2.856	1335197	ORIENT	n/a	n/a	n/a	-999	12	n/a	n/a	pyFR	0	UP034
1798.937	2.723	1336659	WORD	n/a	wordpools/wordpool_EN.txt	ZOO	1	12	n/a	n/a	pyFR	0	UP034
1801.66	2.64	1338053	WORD	n/a	wordpools/wordpool_EN.txt	CHIEF	2	12	n/a	n/a	pyFR	0	UP034
1804.3	2.604	1339404	WORD	n/a	wordpools/wordpool_EN.txt	BAND	3	12	n/a	n/a	pyFR	0	UP034
1806.904	2.724	1340737	WORD	n/a	wordpools/wordpool_EN.txt	DART	4	12	n/a	n/a	pyFR	0	UP034
1809.628	2.504	1342132	WORD	n/a	wordpools/wordpool_EN.txt	BRANCH	5	12	n/a	n/a	pyFR	0	UP034
1812.132	2.656	1343414	WORD	n/a	wordpools/wordpool_EN.txt	SWORD	6	12	n/a	n/a	pyFR	0	UP034
1814.788	2.59	1344773	WORD	n/a	wordpools/wordpool_EN.txt	BAG	7	12	n/a	n/a	pyFR	0	UP034
1817.378	2.739	1346099	WORD	n/a	wordpools/wordpool_EN.txt	MAZE	8	12	n/a	n/a	pyFR	0	UP034
1820.117	2.605	1347502	WORD	n/a	wordpools/wordpool_EN.txt	BLUSH	9	12	n/a	n/a	pyFR	0	UP034
1822.722	2.439	1348835	WORD	n/a	wordpools/wordpool_EN.txt	VEST	10	12	n/a	n/a	pyFR	0	UP034
1825.161	2.79	1350084	WORD	n/a	wordpools/wordpool_EN.txt	SINK	11	12	n/a	n/a	pyFR	0	UP034
1827.951	2.456	1351512	WORD	n/a	wordpools/wordpool_EN.txt	WHALE	12	12	n/a	n/a	pyFR	0	UP034
1830.407	2.488	1352769	WORD	n/a	wordpools/wordpool_EN.txt	GRAPE	13	12	n/a	n/a	pyFR	0	UP034
1832.895	2.806	1354043	WORD	n/a	wordpools/wordpool_EN.txt	LAKE	14	12	n/a	n/a	pyFR	0	UP034
1835.701	1.606	1355480	WORD	n/a	wordpools/wordpool_EN.txt	CROWN	15	12	n/a	n/a	pyFR	0	UP034
1837.307	0.916	1356302	START	n/a	n/a	n/a	n/a	12	[-999 -999 -999]	-999	pyFR	0	UP034
1838.223	8.353	1356771	PROB	8.315	n/a	n/a	n/a	12	[4 3 4]	11	pyFR	0	UP034
1846.576	4.492	1361047	PROB	4.458	n/a	n/a	n/a	12	[3 7 2]	12	pyFR	0	UP034
1851.068	4.394	1363347	PROB	4.368	n/a	n/a	n/a	12	[4 2 6]	12	pyFR	0	UP034
1855.462	5.486	1365596	PROB	5.486	n/a	n/a	n/a	12	[5 4 2]	10	pyFR	0	UP034
1860.948	1.195	1368405	STOP	n/a	n/a	n/a	n/a	12	[-999 -999 -999]	-999	pyFR	0	UP034
1862.143	1.045	1369016	REC_START	n/a	n/a	n/a	-999	12	n/a	n/a	pyFR	0	UP034
1863.188	3.263	1369551	REC_WORD	1.045	n/a	WHALE	-999	12	n/a	n/a	pyFR	0	UP034
1866.451	3.961	1371222	REC_WORD	4.308	n/a	BARN	-999	12	n/a	n/a	pyFR	0	UP034
1870.412	7.305	1373250	REC_WORD	8.269	n/a	MULE	-999	12	n/a	n/a	pyFR	0	UP034
1877.717	3.154	1376989	REC_WORD	15.574	n/a	BRANCH	-999	12	n/a	n/a	pyFR	0	UP034
1880.871	6.203	1378604	REC_WORD	18.728	n/a	LAKE	-999	12	n/a	n/a	pyFR	0	UP034
1887.074	2.79	1381780	REC_WORD	24.931	n/a	ZOO	-999	12	n/a	n/a	pyFR	0	UP034
1889.864	21.087	1383208	REC_WORD	27.721	n/a	CHIEF	-999	12	n/a	n/a	pyFR	0	UP034
1910.951	0.015	1394003	TRIAL	n/a	n/a	n/a	-999	13	n/a	n/a	pyFR	0	UP034
1910.966	2.707	1394011	ORIENT	n/a	n/a	n/a	-999	13	n/a	n/a	pyFR	0	UP034
1913.673	2.505	1395397	WORD	n/a	wordpools/wordpool_EN.txt	COUCH	1	13	n/a	n/a	pyFR	0	UP034
1916.178	2.556	1396679	WORD	n/a	wordpools/wordpool_EN.txt	CORD	2	13	n/a	n/a	pyFR	0	UP034
1918.734	2.606	1397988	WORD	n/a	wordpools/wordpool_EN.txt	VAN	3	13	n/a	n/a	pyFR	0	UP034
1921.34	2.672	1399322	WORD	n/a	wordpools/wordpool_EN.txt	CAVE	4	13	n/a	n/a	pyFR	0	UP034
1924.012	2.657	1400690	WORD	n/a	wordpools/wordpool_EN.txt	CALF	5	13	n/a	n/a	pyFR	0	UP034
1926.669	2.789	1402050	WORD	n/a	wordpools/wordpool_EN.txt	ICE	6	13	n/a	n/a	pyFR	0	UP034
1929.458	2.806	1403478	WORD	n/a	wordpools/wordpool_EN.txt	SNOW	7	13	n/a	n/a	pyFR	0	UP034
1932.264	2.655	1404914	WORD	n/a	wordpools/wordpool_EN.txt	OAR	8	13	n/a	n/a	pyFR	0	UP034
1934.919	2.707	1406273	WORD	n/a	wordpools/wordpool_EN.txt	EEL	9	13	n/a	n/a	pyFR	0	UP034
1937.626	2.588	1407659	WORD	n/a	wordpools/wordpool_EN.txt	SEAL	10	13	n/a	n/a	pyFR	0	UP034
1940.214	2.489	1408984	WORD	n/a	wordpools/wordpool_EN.txt	PARK	11	13	n/a	n/a	pyFR	0	UP034
1942.703	2.79	1410258	WORD	n/a	wordpools/wordpool_EN.txt	COIN	12	13	n/a	n/a	pyFR	0	UP034
1945.493	2.672	1411687	WORD	n/a	wordpools/wordpool_EN.txt	CARD	13	13	n/a	n/a	pyFR	0	UP034
1948.165	2.506	1413055	WORD	n/a	wordpools/wordpool_EN.txt	PLANE	14	13	n/a	n/a	pyFR	0	UP034
1950.671	1.622	1414338	WORD	n/a	wordpools/wordpool_EN.txt	FOG	15	13	n/a	n/a	pyFR	0	UP034
1952.293	0.933	1415168	START	n/a	n/a	n/a	n/a	13	[-999 -999 -999]	-999	pyFR	0	UP034
1953.226	4.677	1415646	PROB	4.65	n/a	n/a	n/a	13	[5 4 2]	10	pyFR	0	UP034
1957.903	4.009	1418040	PROB	3.973	n/a	n/a	n/a	13	[1 1 5]	7	pyFR	0	UP034
1961.912	13.022	1420092	PROB	13.022	n/a	n/a	n/a	13	[8 4 7]	19	pyFR	0	UP034
1974.934	1.126	1426759	STOP	n/a	n/a	n/a	n/a	13	[-999 -999 -999]	-999	pyFR	0	UP034
1976.06	1.803	1427335	REC_START	n/a	n/a	n/a	-999	13	n/a	n/a	pyFR	0	UP034
1977.863	7.68	1428258	REC_WORD	1.803	n/a	CORD	-999	13	n/a	n/a	pyFR	0	UP034
1985.543	1.991	1432190	REC_WORD	9.483	n/a	COUGH	-999	13	n/a	n/a	pyFR	0	UP034
1987.534	1.349	1433209	REC_WORD	11.474	n/a	COLD	-999	13	n/a	n/a	pyFR	0	UP034
1988.883	7.648	1433900	REC_WORD	12.823	n/a	EEL	-999	13	n/a	n/a	pyFR	0	UP034
1996.531	7.245	1437815	REC_WORD	20.471	n/a	SEAL	-999	13	n/a	n/a	pyFR	0	UP034
2003.776	9.438	1441524	REC_WORD	27.716	n/a	CARD	-999	13	n/a	n/a	pyFR	0	UP034
2013.214	1.0	1446356	REC_WORD_VV	37.154	n/a	<>	-999	13	n/a	n/a	pyFR	0	UP034
2014.214	9.235	1446868	REC_WORD_VV	38.154	n/a	<>	-999	13	n/a	n/a	pyFR	0	UP034
2023.449	0.016	1451596	TRIAL	n/a	n/a	n/a	-999	14	n/a	n/a	pyFR	0	UP034
2023.465	2.671	1451604	ORIENT	n/a	n/a	n/a	-999	14	n/a	n/a	pyFR	0	UP034
2026.136	2.74	1452971	WORD	n/a	wordpools/wordpool_EN.txt	STAIR	1	14	n/a	n/a	pyFR	0	UP034
2028.876	2.54	1454374	WORD	n/a	wordpools/wordpool_EN.txt	CUBE	2	14	n/a	n/a	pyFR	0	UP034
2031.416	2.771	1455674	WORD	n/a	wordpools/wordpool_EN.txt	DOCK	3	14	n/a	n/a	pyFR	0	UP034
2034.187	2.523	1457093	WORD	n/a	wordpools/wordpool_EN.txt	DRESS	4	14	n/a	n/a	pyFR	0	UP034
2036.71	2.773	1458384	WORD	n/a	wordpools/wordpool_EN.txt	LAMP	5	14	n/a	n/a	pyFR	0	UP034
2039.483	2.488	1459804	WORD	n/a	wordpools/wordpool_EN.txt	HOOF	6	14	n/a	n/a	pyFR	0	UP034
2041.971	2.657	1461078	WORD	n/a	wordpools/wordpool_EN.txt	LOCK	7	14	n/a	n/a	pyFR	0	UP034
2044.628	2.673	1462438	WORD	n/a	wordpools/wordpool_EN.txt	FORT	8	14	n/a	n/a	pyFR	0	UP034
2047.301	2.504	1463806	WORD	n/a	wordpools/wordpool_EN.txt	BREAD	9	14	n/a	n/a	pyFR	0	UP034
2049.805	2.523	1465088	WORD	n/a	wordpools/wordpool_EN.txt	SHIELD	10	14	n/a	n/a	pyFR	0	UP034
2052.328	2.805	1466380	WORD	n/a	wordpools/wordpool_EN.txt	SNAKE	11	14	n/a	n/a	pyFR	0	UP034
2055.133	2.623	1467816	WORD	n/a	wordpools/wordpool_EN.txt	PIPE	12	14	n/a	n/a	pyFR	0	UP034
2057.756	2.64	1469159	WORD	n/a	wordpools/wordpool_EN.txt	TRAIN	13	14	n/a	n/a	pyFR	0	UP034
2060.396	2.671	1470510	WORD	n/a	wordpools/wordpool_EN.txt	DRUM	14	14	n/a	n/a	pyFR	0	UP034
2063.067	1.607	1471878	WORD	n/a	wordpools/wordpool_EN.txt	BIRD	15	14	n/a	n/a	pyFR	0	UP034
2064.674	1.1	1472700	START	n/a	n/a	n/a	n/a	14	[-999 -999 -999]	-999	pyFR	0	UP034
2065.774	6.531	1473263	PROB	6.505	n/a	n/a	n/a	14	[8 9 1]	18	pyFR	0	UP034
2072.305	11.375	1476607	PROB	11.345	n/a	n/a	n/a	14	[6 6 9]	21	pyFR	0	UP034
2083.68	6.794	1482430	PROB	6.794	n/a	n/a	n/a	14	[1 8 4]	13	pyFR	0	UP034
2090.474	1.191	1485908	STOP	n/a	n/a	n/a	n/a	14	[-999 -999 -999]	-999	pyFR	0	UP034
2091.665	3.926	1486518	REC_START	n/a	n/a	n/a	-999	14	n/a	n/a	pyFR	0	UP034
2095.591	2.244	1488528	REC_WORD	3.926	n/a	STAIR	-999	14	n/a	n/a	pyFR	0	UP034
2097.835	5.456	1489677	REC_WORD	6.17	n/a	PIPE	-999	14	n/a	n/a	pyFR	0	UP034
2103.291	5.061	1492470	REC_WORD	11.626	n/a	WHEEL	-999	14	n/a	n/a	pyFR	0	UP034
2108.352	9.217	1495061	REC_WORD	16.687	n/a	HOSE	-999	14	n/a	n/a	pyFR	0	UP034
2117.569	15.686	1499779	REC_WORD	25.904	n/a	ICE	-999	14	n/a	n/a	pyFR	0	UP034
2133.255	7.785	1507810	REC_WORD	41.59	n/a	SNAKE	-999	14	n/a	n/a	pyFR	0	UP034
2141.04	0.016	1511795	TRIAL	n/a	n/a	n/a	-999	15	n/a	n/a	pyFR	0	UP034
2141.056	3.023	1511803	ORIENT	n/a	n/a	n/a	-999	15	n/a	n/a	pyFR	0	UP034
2144.079	2.49	1513351	WORD	n/a	wordpools/wordpool_EN.txt	WEED	1	15	n/a	n/a	pyFR	0	UP034
2146.569	2.488	1514626	WORD	n/a	wordpools/wordpool_EN.txt	KING	2	15	n/a	n/a	pyFR	0	UP034
2149.057	2.59	1515899	WORD	n/a	wordpools/wordpool_EN.txt	FORK	3	15	n/a	n/a	pyFR	0	UP034
2151.647	2.689	1517225	WORD	n/a	wordpools/wordpool_EN.txt	FLEA	4	15	n/a	n/a	pyFR	0	UP034
2154.336	2.638	1518602	WORD	n/a	wordpools/wordpool_EN.txt	TANK	5	15	n/a	n/a	pyFR	0	UP034
2156.974	2.54	1519952	WORD	n/a	wordpools/wordpool_EN.txt	GLASS	6	15	n/a	n/a	pyFR	0	UP034
2159.514	2.823	1521253	WORD	n/a	wordpools/wordpool_EN.txt	FLAME	7	15	n/a	n/a	pyFR	0	UP034
2162.337	2.805	1522698	WORD	n/a	wordpools/wordpool_EN.txt	CASH	8	15	n/a	n/a	pyFR	0	UP034
2165.142	2.506	1524134	WORD	n/a	wordpools/wordpool_EN.txt	BRUSH	9	15	n/a	n/a	pyFR	0	UP034
2167.648	2.639	1525417	WORD	n/a	wordpools/wordpool_EN.txt	STRING	10	15	n/a	n/a	pyFR	0	UP034
2170.287	2.455	1526768	WORD	n/a	wordpools/wordpool_EN.txt	BALL	11	15	n/a	n/a	pyFR	0	UP034
2172.742	2.455	1528025	WORD	n/a	wordpools/wordpool_EN.txt	PASTE	12	15	n/a	n/a	pyFR	0	UP034
2175.197	2.556	1529282	WORD	n/a	wordpools/wordpool_EN.txt	WHEEL	13	15	n/a	n/a	pyFR	0	UP034
2177.753	2.59	1530590	WORD	n/a	wordpools/wordpool_EN.txt	SHARK	14	15	n/a	n/a	pyFR	0	UP034
2180.343	1.621	1531916	WORD	n/a	wordpools/wordpool_EN.txt	ROPE	15	15	n/a	n/a	pyFR	0	UP034
2181.964	0.833	1532746	START	n/a	n/a	n/a	n/a	15	[-999 -999 -999]	-999	pyFR	0	UP034
2182.797	11.259	1533172	PROB	11.229	n/a	n/a	n/a	15	[9 7 7]	23	pyFR	0	UP034
2194.056	6.431	1538936	PROB	6.404	n/a	n/a	n/a	15	[6 2 1]	9	pyFR	0	UP034
2200.487	3.11	1542229	PROB	3.11	n/a	n/a	n/a	15	[9 1 1]	11	pyFR	0	UP034
2203.597	1.66	1543821	STOP	n/a	n/a	n/a	n/a	15	[-999 -999 -999]	-999	pyFR	0	UP034
2205.257	0.839	1544671	REC_START	n/a	n/a	n/a	-999	15	n/a	n/a	pyFR	0	UP034
2206.096	1.466	1545100	REC_WORD	0.839	n/a	WEED	-999	15	n/a	n/a	pyFR	0	UP034
2207.562	9.904	1545851	REC_WORD	2.305	n/a	GRASS	-999	15	n/a	n/a	pyFR	0	UP034
2217.466	20.766	1550921	REC_WORD	12.209	n/a	KING	-999	15	n/a	n/a	pyFR	0	UP034
2238.232	4.211	1561552	REC_WORD	32.975	n/a	ROPE	-999	15	n/a	n/a	pyFR	0	UP034
2242.443	23.438	1563708	REC_WORD	37.186	n/a	BRUSH	-999	15	n/a	n/a	pyFR	0	UP034
2265.881	0.016	1575706	TRIAL	n/a	n/a	n/a	-999	16	n/a	n/a	pyFR	0	UP034
2265.897	2.774	1575715	ORIENT	n/a	n/a	n/a	-999	16	n/a	n/a	pyFR	0	UP034
2268.671	2.689	1577135	WORD	n/a	wordpools/wordpool_EN.txt	RICE	1	16	n/a	n/a	pyFR	0	UP034
2271.36	2.571	1578511	WORD	n/a	wordpools/wordpool_EN.txt	KEY	2	16	n/a	n/a	pyFR	0	UP034
2273.931	2.59	1579828	WORD	n/a	wordpools/wordpool_EN.txt	PIN	3	16	n/a	n/a	pyFR	0	UP034
2276.521	2.488	1581154	WORD	n/a	wordpools/wordpool_EN.txt	TOAST	4	16	n/a	n/a	pyFR	0	UP034
2279.009	2.523	1582427	WORD	n/a	wordpools/wordpool_EN.txt	PURSE	5	16	n/a	n/a	pyFR	0	UP034
2281.532	2.488	1583719	WORD	n/a	wordpools/wordpool_EN.txt	FOOD	6	16	n/a	n/a	pyFR	0	UP034
2284.02	2.607	1584993	WORD	n/a	wordpools/wordpool_EN.txt	MAIL	7	16	n/a	n/a	pyFR	0	UP034
2286.627	2.772	1586327	WORD	n/a	wordpools/wordpool_EN.txt	HOOK	8	16	n/a	n/a	pyFR	0	UP034
2289.399	2.789	1587746	WORD	n/a	wordpools/wordpool_EN.txt	STORM	9	16	n/a	n/a	pyFR	0	UP034
2292.188	2.506	1589174	WORD	n/a	wordpools/wordpool_EN.txt	PRINCE	10	16	n/a	n/a	pyFR	0	UP034
2294.694	2.74	1590457	WORD	n/a	wordpools/wordpool_EN.txt	BRIDGE	11	16	n/a	n/a	pyFR	0	UP034
2297.434	2.438	1591860	WORD	n/a	wordpools/wordpool_EN.txt	ROCK	12	16	n/a	n/a	pyFR	0	UP034
2299.872	2.623	1593108	WORD	n/a	wordpools/wordpool_EN.txt	SLUSH	13	16	n/a	n/a	pyFR	0	UP034
2302.495	2.823	1594451	WORD	n/a	wordpools/wordpool_EN.txt	SMILE	14	16	n/a	n/a	pyFR	0	UP034
2305.318	1.62	1595896	WORD	n/a	wordpools/wordpool_EN.txt	HORN	15	16	n/a	n/a	pyFR	0	UP034
2306.938	0.851	1596725	START	n/a	n/a	n/a	n/a	16	[-999 -999 -999]	-999	pyFR	0	UP034
2307.789	15.45	1597161	PROB	15.418	n/a	n/a	n/a	16	[8 6 6]	20	pyFR	0	UP034
2323.239	4.442	1605070	PROB	4.442	n/a	n/a	n/a	16	[6 9 4]	19	pyFR	0	UP034
2327.681	1.155	1607344	STOP	n/a	n/a	n/a	n/a	16	[-999 -999 -999]	-999	pyFR	0	UP034
2328.836	2.878	1607936	REC_START	n/a	n/a	n/a	-999	16	n/a	n/a	pyFR	0	UP034
2331.714	2.258	1609409	REC_WORD	2.878	n/a	PIN	-999	16	n/a	n/a	pyFR	0	UP034
2333.972	9.041	1610565	REC_WORD	5.136	n/a	WHEEL	-999	16	n/a	n/a	pyFR	0	UP034
2343.013	1.0	1615194	REC_WORD_VV	14.177	n/a	<>	-999	16	n/a	n/a	pyFR	0	UP034
2344.013	4.378	1615705	REC_WORD_VV	15.177	n/a	<>	-999	16	n/a	n/a	pyFR	0	UP034
2348.391	1.621	1617947	REC_WORD	19.555	n/a	BRIDGE	-999	16	n/a	n/a	pyFR	0	UP034
2350.012	11.132	1618777	REC_WORD	21.176	n/a	BADGE	-999	16	n/a	n/a	pyFR	0	UP034
2361.144	9.254	1624476	REC_WORD	32.308	n/a	COW	-999	16	n/a	n/a	pyFR	0	UP034
2370.398	3.312	1629213	REC_WORD	41.562	n/a	KEY	-999	16	n/a	n/a	pyFR	0	UP034
2373.71	640.585	1630909	REC_WORD_VV	44.874	n/a	<>	-999	16	n/a	n/a	pyFR	0	UP034
3014.295	0.151	1958850	SESS_END	n/a	n/a	n/a	-999	16	n/a	n/a	pyFR	0	UP034
3014.446	0.0	1958928	E	n/a	n/a	n/a	-999	16	n/a	n/a	pyFR	0	UP034
