onset	duration	sample	trial_type	response_time	stim_file	item_name	serialpos	list	test	answer	experiment	session	subject
0.0	0.0	28050	SESS_START	n/a	n/a	n/a	-999.0	-999	n/a	n/a	pyFR	1	UP046
0.0	16.491	28050	B	n/a	n/a	n/a	-999.0	-999	n/a	n/a	pyFR	1	UP046
16.491	0.021	32172	START	n/a	n/a	n/a	n/a	0	[-999 -999 -999]	-999.0	pyFR	1	UP046
16.512	12.434	32178	PROB	12.412	n/a	n/a	n/a	0	[7 3 7]	17.0	pyFR	1	UP046
28.946	3.866	35286	PROB	3.833	n/a	n/a	n/a	0	[6 4 8]	18.0	pyFR	1	UP046
32.812	3.836	36253	PROB	3.799	n/a	n/a	n/a	0	[4 3 1]	8.0	pyFR	1	UP046
36.648	8.3	37212	PROB	8.275	n/a	n/a	n/a	0	[6 5 1]	11.0	pyFR	1	UP046
44.948	4.343	39287	PROB	4.343	n/a	n/a	n/a	0	[2 5 1]	8.0	pyFR	1	UP046
49.291	13.806	40372	STOP	n/a	n/a	n/a	n/a	0	[-999 -999 -999]	-999.0	pyFR	1	UP046
63.097	0.017	43824	TRIAL	n/a	n/a	n/a	-999.0	1	n/a	n/a	pyFR	1	UP046
63.114	1.6	43828	ORIENT	n/a	n/a	n/a	-999.0	1	n/a	n/a	pyFR	1	UP046
65.782	1.6	44495	WORD	n/a	wordpools/wordpool_EN.txt	HOLE	1.0	1	n/a	n/a	pyFR	1	UP046
68.266	1.6	45116	WORD	n/a	wordpools/wordpool_EN.txt	NET	2.0	1	n/a	n/a	pyFR	1	UP046
70.882	1.6	45770	WORD	n/a	wordpools/wordpool_EN.txt	SMOKE	3.0	1	n/a	n/a	pyFR	1	UP046
73.616	1.6	46453	WORD	n/a	wordpools/wordpool_EN.txt	CART	4.0	1	n/a	n/a	pyFR	1	UP046
76.333	1.6	47133	WORD	n/a	wordpools/wordpool_EN.txt	COUCH	5.0	1	n/a	n/a	pyFR	1	UP046
78.866	1.6	47766	WORD	n/a	wordpools/wordpool_EN.txt	BOWL	6.0	1	n/a	n/a	pyFR	1	UP046
81.666	1.6	48466	WORD	n/a	wordpools/wordpool_EN.txt	DOOR	7.0	1	n/a	n/a	pyFR	1	UP046
84.466	1.6	49166	WORD	n/a	wordpools/wordpool_EN.txt	MUG	8.0	1	n/a	n/a	pyFR	1	UP046
87.1	1.6	49824	WORD	n/a	wordpools/wordpool_EN.txt	BENCH	9.0	1	n/a	n/a	pyFR	1	UP046
89.666	1.6	50466	WORD	n/a	wordpools/wordpool_EN.txt	CHEEK	10.0	1	n/a	n/a	pyFR	1	UP046
92.383	1.6	51145	WORD	n/a	wordpools/wordpool_EN.txt	SPEAR	11.0	1	n/a	n/a	pyFR	1	UP046
95.149	1.6	51837	WORD	n/a	wordpools/wordpool_EN.txt	SUN	12.0	1	n/a	n/a	pyFR	1	UP046
97.7	1.6	52474	WORD	n/a	wordpools/wordpool_EN.txt	WHALE	13.0	1	n/a	n/a	pyFR	1	UP046
100.2	1.6	53099	WORD	n/a	wordpools/wordpool_EN.txt	FARM	14.0	1	n/a	n/a	pyFR	1	UP046
102.8	1.6	53749	WORD	n/a	wordpools/wordpool_EN.txt	STEAK	15.0	1	n/a	n/a	pyFR	1	UP046
104.419	1.029	54154	START	n/a	n/a	n/a	n/a	1	[-999 -999 -999]	-999.0	pyFR	1	UP046
105.448	4.186	54411	PROB	4.161	n/a	n/a	n/a	1	[2 2 2]	6.0	pyFR	1	UP046
109.634	4.25	55458	PROB	4.215	n/a	n/a	n/a	1	[2 3 1]	6.0	pyFR	1	UP046
113.884	7.615	56520	PROB	7.589	n/a	n/a	n/a	1	[8 3 3]	14.0	pyFR	1	UP046
121.499	6.061	58424	PROB	6.061	n/a	n/a	n/a	1	[2 3 9]	14.0	pyFR	1	UP046
127.56	1.076	59939	STOP	n/a	n/a	n/a	n/a	1	[-999 -999 -999]	-999.0	pyFR	1	UP046
128.636	2.997	60208	REC_START	n/a	n/a	n/a	-999.0	1	n/a	n/a	pyFR	1	UP046
131.633	1.368	60958	REC_WORD	2.997	n/a	SMOKE	-999.0	1	n/a	n/a	pyFR	1	UP046
133.001	2.583	61300	REC_WORD	4.365	n/a	BOMB	-999.0	1	n/a	n/a	pyFR	1	UP046
135.584	4.552	61945	REC_WORD	6.948	n/a	TREE	-999.0	1	n/a	n/a	pyFR	1	UP046
140.136	24.091	63083	REC_WORD	11.5	n/a	TOE	-999.0	1	n/a	n/a	pyFR	1	UP046
164.227	16.81	69106	REC_WORD	35.591	n/a	HAWK	-999.0	1	n/a	n/a	pyFR	1	UP046
181.037	0.016	73309	TRIAL	n/a	n/a	n/a	-999.0	2	n/a	n/a	pyFR	1	UP046
181.053	1.6	73313	ORIENT	n/a	n/a	n/a	-999.0	2	n/a	n/a	pyFR	1	UP046
183.851	1.6	74012	WORD	n/a	wordpools/wordpool_EN.txt	BEAR	1.0	2	n/a	n/a	pyFR	1	UP046
186.587	1.6	74696	WORD	n/a	wordpools/wordpool_EN.txt	VEST	2.0	2	n/a	n/a	pyFR	1	UP046
189.02	1.6	75304	WORD	n/a	wordpools/wordpool_EN.txt	GLOVE	3.0	2	n/a	n/a	pyFR	1	UP046
191.737	1.6	75984	WORD	n/a	wordpools/wordpool_EN.txt	GRAPE	4.0	2	n/a	n/a	pyFR	1	UP046
194.187	1.6	76596	WORD	n/a	wordpools/wordpool_EN.txt	JAR	5.0	2	n/a	n/a	pyFR	1	UP046
196.787	1.6	77246	WORD	n/a	wordpools/wordpool_EN.txt	STOOL	6.0	2	n/a	n/a	pyFR	1	UP046
199.487	1.6	77921	WORD	n/a	wordpools/wordpool_EN.txt	PEAR	7.0	2	n/a	n/a	pyFR	1	UP046
202.137	1.6	78584	WORD	n/a	wordpools/wordpool_EN.txt	MAT	8.0	2	n/a	n/a	pyFR	1	UP046
204.604	1.6	79200	WORD	n/a	wordpools/wordpool_EN.txt	CALF	9.0	2	n/a	n/a	pyFR	1	UP046
207.287	1.6	79871	WORD	n/a	wordpools/wordpool_EN.txt	GLASS	10.0	2	n/a	n/a	pyFR	1	UP046
209.753	1.6	80488	WORD	n/a	wordpools/wordpool_EN.txt	ROAD	11.0	2	n/a	n/a	pyFR	1	UP046
212.221	1.6	81105	WORD	n/a	wordpools/wordpool_EN.txt	CRANE	12.0	2	n/a	n/a	pyFR	1	UP046
214.652	1.6	81712	WORD	n/a	wordpools/wordpool_EN.txt	TRASH	13.0	2	n/a	n/a	pyFR	1	UP046
217.221	1.6	82355	WORD	n/a	wordpools/wordpool_EN.txt	BLUSH	14.0	2	n/a	n/a	pyFR	1	UP046
220.021	1.6	83055	WORD	n/a	wordpools/wordpool_EN.txt	SEED	15.0	2	n/a	n/a	pyFR	1	UP046
221.639	0.897	83459	START	n/a	n/a	n/a	n/a	2	[-999 -999 -999]	-999.0	pyFR	1	UP046
222.536	8.384	83683	PROB	8.349	n/a	n/a	n/a	2	[3 6 5]	14.0	pyFR	1	UP046
230.92	6.433	85779	PROB	6.397	n/a	n/a	n/a	2	[4 4 7]	15.0	pyFR	1	UP046
237.353	3.187	87388	PROB	3.148	n/a	n/a	n/a	2	[2 6 6]	14.0	pyFR	1	UP046
240.54	5.801	88184	PROB	5.801	n/a	n/a	n/a	2	[2 5 8]	15.0	pyFR	1	UP046
246.341	1.116	89635	STOP	n/a	n/a	n/a	n/a	2	[-999 -999 -999]	-999.0	pyFR	1	UP046
247.457	6.416	89914	REC_START	n/a	n/a	n/a	-999.0	2	n/a	n/a	pyFR	1	UP046
253.873	4.75	91518	REC_WORD	6.416	n/a	TREE	-999.0	2	n/a	n/a	pyFR	1	UP046
258.623	6.242	92705	REC_WORD	11.166	n/a	BRICK	-999.0	2	n/a	n/a	pyFR	1	UP046
264.865	50.16	94265	REC_WORD_VV	17.408	n/a	<>	-999.0	2	n/a	n/a	pyFR	1	UP046
315.025	0.016	106805	TRIAL	n/a	n/a	n/a	-999.0	3	n/a	n/a	pyFR	1	UP046
315.041	1.6	106809	ORIENT	n/a	n/a	n/a	-999.0	3	n/a	n/a	pyFR	1	UP046
317.908	1.6	107526	WORD	n/a	wordpools/wordpool_EN.txt	MILK	1.0	3	n/a	n/a	pyFR	1	UP046
320.675	1.6	108218	WORD	n/a	wordpools/wordpool_EN.txt	ROOF	2.0	3	n/a	n/a	pyFR	1	UP046
323.39	1.6	108897	WORD	n/a	wordpools/wordpool_EN.txt	STAIR	3.0	3	n/a	n/a	pyFR	1	UP046
325.875	1.6	109518	WORD	n/a	wordpools/wordpool_EN.txt	BAND	4.0	3	n/a	n/a	pyFR	1	UP046
328.425	1.6	110155	WORD	n/a	wordpools/wordpool_EN.txt	CLIFF	5.0	3	n/a	n/a	pyFR	1	UP046
331.075	1.6	110818	WORD	n/a	wordpools/wordpool_EN.txt	PIG	6.0	3	n/a	n/a	pyFR	1	UP046
333.842	1.6	111510	WORD	n/a	wordpools/wordpool_EN.txt	CHAIR	7.0	3	n/a	n/a	pyFR	1	UP046
336.309	1.6	112126	WORD	n/a	wordpools/wordpool_EN.txt	FLOOR	8.0	3	n/a	n/a	pyFR	1	UP046
338.959	1.6	112789	WORD	n/a	wordpools/wordpool_EN.txt	SHEET	9.0	3	n/a	n/a	pyFR	1	UP046
341.459	1.6	113414	WORD	n/a	wordpools/wordpool_EN.txt	SEAL	10.0	3	n/a	n/a	pyFR	1	UP046
344.109	1.6	114076	WORD	n/a	wordpools/wordpool_EN.txt	BEAK	11.0	3	n/a	n/a	pyFR	1	UP046
346.692	1.6	114722	WORD	n/a	wordpools/wordpool_EN.txt	PLANT	12.0	3	n/a	n/a	pyFR	1	UP046
349.193	1.6	115347	WORD	n/a	wordpools/wordpool_EN.txt	DOLL	13.0	3	n/a	n/a	pyFR	1	UP046
351.826	1.6	116006	WORD	n/a	wordpools/wordpool_EN.txt	BEAN	14.0	3	n/a	n/a	pyFR	1	UP046
354.393	1.6	116647	WORD	n/a	wordpools/wordpool_EN.txt	DOG	15.0	3	n/a	n/a	pyFR	1	UP046
356.011	0.997	117052	START	n/a	n/a	n/a	n/a	3	[-999 -999 -999]	-999.0	pyFR	1	UP046
357.008	12.333	117301	PROB	12.305	n/a	n/a	n/a	3	[6 9 6]	21.0	pyFR	1	UP046
369.341	6.286	120384	PROB	6.259	n/a	n/a	n/a	3	[1 2 6]	9.0	pyFR	1	UP046
375.627	5.909	121956	PROB	5.909	n/a	n/a	n/a	3	[9 8 2]	19.0	pyFR	1	UP046
381.536	1.176	123433	STOP	n/a	n/a	n/a	n/a	3	[-999 -999 -999]	-999.0	pyFR	1	UP046
382.712	1.886	123727	REC_START	n/a	n/a	n/a	-999.0	3	n/a	n/a	pyFR	1	UP046
384.598	0.469	124199	REC_WORD	1.886	n/a	MILK	-999.0	3	n/a	n/a	pyFR	1	UP046
385.067	0.466	124316	REC_WORD	2.355	n/a	ROOF	-999.0	3	n/a	n/a	pyFR	1	UP046
385.533	4.81	124432	REC_WORD	2.821	n/a	PLANT	-999.0	3	n/a	n/a	pyFR	1	UP046
390.343	26.818	125635	REC_WORD	7.631	n/a	TOOL	-999.0	3	n/a	n/a	pyFR	1	UP046
417.161	16.335	132339	REC_WORD	34.449	n/a	SENSE	-999.0	3	n/a	n/a	pyFR	1	UP046
433.496	0.016	136423	TRIAL	n/a	n/a	n/a	-999.0	4	n/a	n/a	pyFR	1	UP046
433.512	1.6	136427	ORIENT	n/a	n/a	n/a	-999.0	4	n/a	n/a	pyFR	1	UP046
436.379	1.6	137144	WORD	n/a	wordpools/wordpool_EN.txt	ZOO	1.0	4	n/a	n/a	pyFR	1	UP046
439.113	1.6	137827	WORD	n/a	wordpools/wordpool_EN.txt	TAIL	2.0	4	n/a	n/a	pyFR	1	UP046
441.646	1.6	138461	WORD	n/a	wordpools/wordpool_EN.txt	CLOWN	3.0	4	n/a	n/a	pyFR	1	UP046
444.363	1.6	139140	WORD	n/a	wordpools/wordpool_EN.txt	PIN	4.0	4	n/a	n/a	pyFR	1	UP046
446.879	1.6	139769	WORD	n/a	wordpools/wordpool_EN.txt	TRAIN	5.0	4	n/a	n/a	pyFR	1	UP046
449.379	1.6	140394	WORD	n/a	wordpools/wordpool_EN.txt	DRUM	6.0	4	n/a	n/a	pyFR	1	UP046
451.929	1.6	141031	WORD	n/a	wordpools/wordpool_EN.txt	JAIL	7.0	4	n/a	n/a	pyFR	1	UP046
454.696	1.6	141723	WORD	n/a	wordpools/wordpool_EN.txt	CAT	8.0	4	n/a	n/a	pyFR	1	UP046
457.38	1.6	142394	WORD	n/a	wordpools/wordpool_EN.txt	STEAM	9.0	4	n/a	n/a	pyFR	1	UP046
460.063	1.6	143065	WORD	n/a	wordpools/wordpool_EN.txt	SHEEP	10.0	4	n/a	n/a	pyFR	1	UP046
462.647	1.6	143711	WORD	n/a	wordpools/wordpool_EN.txt	NAIL	11.0	4	n/a	n/a	pyFR	1	UP046
465.247	1.6	144361	WORD	n/a	wordpools/wordpool_EN.txt	OAR	12.0	4	n/a	n/a	pyFR	1	UP046
467.98	1.6	145044	WORD	n/a	wordpools/wordpool_EN.txt	ROSE	13.0	4	n/a	n/a	pyFR	1	UP046
470.514	1.6	145677	WORD	n/a	wordpools/wordpool_EN.txt	QUEEN	14.0	4	n/a	n/a	pyFR	1	UP046
473.047	1.6	146311	WORD	n/a	wordpools/wordpool_EN.txt	PHONE	15.0	4	n/a	n/a	pyFR	1	UP046
474.665	1.214	146715	START	n/a	n/a	n/a	n/a	4	[-999 -999 -999]	-999.0	pyFR	1	UP046
475.879	11.533	147019	PROB	11.51	n/a	n/a	n/a	4	[1 2 4]	7.0	pyFR	1	UP046
487.412	9.961	149902	PROB	9.961	n/a	n/a	n/a	4	[7 9 8]	24.0	pyFR	1	UP046
497.373	1.109	152392	STOP	n/a	n/a	n/a	n/a	4	[-999 -999 -999]	-999.0	pyFR	1	UP046
498.482	1.555	152669	REC_START	n/a	n/a	n/a	-999.0	4	n/a	n/a	pyFR	1	UP046
500.037	0.509	153058	REC_WORD	1.555	n/a	ZOO	-999.0	4	n/a	n/a	pyFR	1	UP046
500.546	0.532	153185	REC_WORD	2.064	n/a	DRUM	-999.0	4	n/a	n/a	pyFR	1	UP046
501.078	6.048	153318	REC_WORD	2.596	n/a	JAIL	-999.0	4	n/a	n/a	pyFR	1	UP046
507.126	2.23	154830	REC_WORD	8.644	n/a	BRICK	-999.0	4	n/a	n/a	pyFR	1	UP046
509.356	23.349	155388	REC_WORD_VV	10.874	n/a	<>	-999.0	4	n/a	n/a	pyFR	1	UP046
532.705	40.646	161225	REC_WORD_VV	34.223	n/a	<>	-999.0	4	n/a	n/a	pyFR	1	UP046
573.351	0.016	171387	TRIAL	n/a	n/a	n/a	-999.0	5	n/a	n/a	pyFR	1	UP046
573.367	1.6	171391	ORIENT	n/a	n/a	n/a	-999.0	5	n/a	n/a	pyFR	1	UP046
576.168	1.6	172091	WORD	n/a	wordpools/wordpool_EN.txt	BOARD	1.0	5	n/a	n/a	pyFR	1	UP046
578.851	1.6	172762	WORD	n/a	wordpools/wordpool_EN.txt	ROCK	2.0	5	n/a	n/a	pyFR	1	UP046
581.501	1.6	173424	WORD	n/a	wordpools/wordpool_EN.txt	TEA	3.0	5	n/a	n/a	pyFR	1	UP046
584.251	1.6	174112	WORD	n/a	wordpools/wordpool_EN.txt	BANK	4.0	5	n/a	n/a	pyFR	1	UP046
587.051	1.6	174812	WORD	n/a	wordpools/wordpool_EN.txt	TENT	5.0	5	n/a	n/a	pyFR	1	UP046
589.55	1.6	175436	WORD	n/a	wordpools/wordpool_EN.txt	FROG	6.0	5	n/a	n/a	pyFR	1	UP046
592.051	1.6	176062	WORD	n/a	wordpools/wordpool_EN.txt	FOX	7.0	5	n/a	n/a	pyFR	1	UP046
594.568	1.6	176691	WORD	n/a	wordpools/wordpool_EN.txt	HAWK	8.0	5	n/a	n/a	pyFR	1	UP046
597.051	1.6	177312	WORD	n/a	wordpools/wordpool_EN.txt	SQUARE	9.0	5	n/a	n/a	pyFR	1	UP046
599.835	1.6	178008	WORD	n/a	wordpools/wordpool_EN.txt	SWORD	10.0	5	n/a	n/a	pyFR	1	UP046
602.335	1.6	178633	WORD	n/a	wordpools/wordpool_EN.txt	TRUCK	11.0	5	n/a	n/a	pyFR	1	UP046
605.052	1.6	179312	WORD	n/a	wordpools/wordpool_EN.txt	CLOUD	12.0	5	n/a	n/a	pyFR	1	UP046
607.569	1.6	179941	WORD	n/a	wordpools/wordpool_EN.txt	JEEP	13.0	5	n/a	n/a	pyFR	1	UP046
610.119	1.6	180579	WORD	n/a	wordpools/wordpool_EN.txt	SHOE	14.0	5	n/a	n/a	pyFR	1	UP046
612.735	1.6	181233	WORD	n/a	wordpools/wordpool_EN.txt	TANK	15.0	5	n/a	n/a	pyFR	1	UP046
614.354	0.913	181637	START	n/a	n/a	n/a	n/a	5	[-999 -999 -999]	-999.0	pyFR	1	UP046
615.267	4.8	181866	PROB	4.774	n/a	n/a	n/a	5	[6 9 1]	16.0	pyFR	1	UP046
620.067	4.5	183066	PROB	4.477	n/a	n/a	n/a	5	[4 2 4]	10.0	pyFR	1	UP046
624.567	20.481	184191	PROB	20.481	n/a	n/a	n/a	5	[8 9 7]	24.0	pyFR	1	UP046
645.048	1.156	189311	STOP	n/a	n/a	n/a	n/a	5	[-999 -999 -999]	-999.0	pyFR	1	UP046
646.204	11.045	189600	REC_START	n/a	n/a	n/a	-999.0	5	n/a	n/a	pyFR	1	UP046
657.249	0.443	192361	REC_WORD	11.045	n/a	ZOO	-999.0	5	n/a	n/a	pyFR	1	UP046
657.692	40.878	192472	REC_WORD	11.488	n/a	CHOOSE	-999.0	5	n/a	n/a	pyFR	1	UP046
698.57	0.017	202691	TRIAL	n/a	n/a	n/a	-999.0	6	n/a	n/a	pyFR	1	UP046
698.587	1.6	202695	ORIENT	n/a	n/a	n/a	-999.0	6	n/a	n/a	pyFR	1	UP046
701.305	1.6	203375	WORD	n/a	wordpools/wordpool_EN.txt	WALL	1.0	6	n/a	n/a	pyFR	1	UP046
704.022	1.6	204054	WORD	n/a	wordpools/wordpool_EN.txt	SNAKE	2.0	6	n/a	n/a	pyFR	1	UP046
706.755	1.6	204737	WORD	n/a	wordpools/wordpool_EN.txt	FAN	3.0	6	n/a	n/a	pyFR	1	UP046
709.356	1.6	205388	WORD	n/a	wordpools/wordpool_EN.txt	INK	4.0	6	n/a	n/a	pyFR	1	UP046
711.989	1.6	206046	WORD	n/a	wordpools/wordpool_EN.txt	VINE	5.0	6	n/a	n/a	pyFR	1	UP046
714.489	1.6	206671	WORD	n/a	wordpools/wordpool_EN.txt	PEACH	6.0	6	n/a	n/a	pyFR	1	UP046
717.039	1.6	207308	WORD	n/a	wordpools/wordpool_EN.txt	CROWN	7.0	6	n/a	n/a	pyFR	1	UP046
719.722	1.6	207979	WORD	n/a	wordpools/wordpool_EN.txt	BIRD	8.0	6	n/a	n/a	pyFR	1	UP046
722.373	1.6	208642	WORD	n/a	wordpools/wordpool_EN.txt	LAKE	9.0	6	n/a	n/a	pyFR	1	UP046
725.173	1.6	209342	WORD	n/a	wordpools/wordpool_EN.txt	BELL	10.0	6	n/a	n/a	pyFR	1	UP046
727.64	1.6	209959	WORD	n/a	wordpools/wordpool_EN.txt	CANE	11.0	6	n/a	n/a	pyFR	1	UP046
730.223	1.6	210604	WORD	n/a	wordpools/wordpool_EN.txt	BOY	12.0	6	n/a	n/a	pyFR	1	UP046
732.84	1.6	211259	WORD	n/a	wordpools/wordpool_EN.txt	POOL	13.0	6	n/a	n/a	pyFR	1	UP046
735.423	1.6	211904	WORD	n/a	wordpools/wordpool_EN.txt	HOOK	14.0	6	n/a	n/a	pyFR	1	UP046
737.94	1.6	212534	WORD	n/a	wordpools/wordpool_EN.txt	CAPE	15.0	6	n/a	n/a	pyFR	1	UP046
739.558	0.847	212938	START	n/a	n/a	n/a	n/a	6	[-999 -999 -999]	-999.0	pyFR	1	UP046
740.405	4.468	213150	PROB	4.439	n/a	n/a	n/a	6	[2 4 5]	11.0	pyFR	1	UP046
744.873	12.484	214267	PROB	12.46	n/a	n/a	n/a	6	[7 6 6]	19.0	pyFR	1	UP046
757.357	9.343	217388	PROB	9.343	n/a	n/a	n/a	6	[5 7 8]	20.0	pyFR	1	UP046
766.7	1.175	219724	STOP	n/a	n/a	n/a	n/a	6	[-999 -999 -999]	-999.0	pyFR	1	UP046
767.875	1.477	220017	REC_START	n/a	n/a	n/a	-999.0	6	n/a	n/a	pyFR	1	UP046
769.352	0.458	220387	REC_WORD	1.477	n/a	LAKE	-999.0	6	n/a	n/a	pyFR	1	UP046
769.81	0.41	220501	REC_WORD	1.935	n/a	BELL	-999.0	6	n/a	n/a	pyFR	1	UP046
770.22	0.587	220604	REC_WORD	2.345	n/a	CANE	-999.0	6	n/a	n/a	pyFR	1	UP046
770.807	10.197	220750	REC_WORD	2.932	n/a	BOY	-999.0	6	n/a	n/a	pyFR	1	UP046
781.004	48.356	223300	REC_WORD	13.129	n/a	CLOWN	-999.0	6	n/a	n/a	pyFR	1	UP046
829.36	0.017	235389	TRIAL	n/a	n/a	n/a	-999.0	7	n/a	n/a	pyFR	1	UP046
829.377	1.6	235393	ORIENT	n/a	n/a	n/a	-999.0	7	n/a	n/a	pyFR	1	UP046
832.243	1.6	236109	WORD	n/a	wordpools/wordpool_EN.txt	WORLD	1.0	7	n/a	n/a	pyFR	1	UP046
834.743	1.6	236734	WORD	n/a	wordpools/wordpool_EN.txt	TOAST	2.0	7	n/a	n/a	pyFR	1	UP046
837.21	1.6	237351	WORD	n/a	wordpools/wordpool_EN.txt	WOOD	3.0	7	n/a	n/a	pyFR	1	UP046
839.86	1.6	238014	WORD	n/a	wordpools/wordpool_EN.txt	RIB	4.0	7	n/a	n/a	pyFR	1	UP046
842.31	1.6	238626	WORD	n/a	wordpools/wordpool_EN.txt	CAGE	5.0	7	n/a	n/a	pyFR	1	UP046
844.844	1.6	239260	WORD	n/a	wordpools/wordpool_EN.txt	PEA	6.0	7	n/a	n/a	pyFR	1	UP046
847.544	1.6	239935	WORD	n/a	wordpools/wordpool_EN.txt	HEART	7.0	7	n/a	n/a	pyFR	1	UP046
850.094	1.6	240572	WORD	n/a	wordpools/wordpool_EN.txt	SUIT	8.0	7	n/a	n/a	pyFR	1	UP046
852.794	1.6	241247	WORD	n/a	wordpools/wordpool_EN.txt	MOOSE	9.0	7	n/a	n/a	pyFR	1	UP046
855.328	1.6	241881	WORD	n/a	wordpools/wordpool_EN.txt	ANT	10.0	7	n/a	n/a	pyFR	1	UP046
857.861	1.6	242514	WORD	n/a	wordpools/wordpool_EN.txt	CAKE	11.0	7	n/a	n/a	pyFR	1	UP046
860.409	1.6	243151	WORD	n/a	wordpools/wordpool_EN.txt	BOMB	12.0	7	n/a	n/a	pyFR	1	UP046
863.078	1.6	243818	WORD	n/a	wordpools/wordpool_EN.txt	ROPE	13.0	7	n/a	n/a	pyFR	1	UP046
865.678	1.6	244468	WORD	n/a	wordpools/wordpool_EN.txt	HOSE	14.0	7	n/a	n/a	pyFR	1	UP046
868.211	1.6	245101	WORD	n/a	wordpools/wordpool_EN.txt	APE	15.0	7	n/a	n/a	pyFR	1	UP046
869.83	0.813	245506	START	n/a	n/a	n/a	n/a	7	[-999 -999 -999]	-999.0	pyFR	1	UP046
870.643	13.534	245709	PROB	13.501	n/a	n/a	n/a	7	[6 8 3]	15.0	pyFR	1	UP046
884.177	20.359	249093	PROB	20.359	n/a	n/a	n/a	7	[7 5 9]	21.0	pyFR	1	UP046
904.536	1.144	254182	STOP	n/a	n/a	n/a	n/a	7	[-999 -999 -999]	-999.0	pyFR	1	UP046
905.68	1.6	254468	REC_START	n/a	n/a	n/a	-999.0	7	n/a	n/a	pyFR	1	UP046
907.28	0.537	254868	REC_WORD	1.6	n/a	WORLD	-999.0	7	n/a	n/a	pyFR	1	UP046
907.817	0.57	255003	REC_WORD	2.137	n/a	TOAST	-999.0	7	n/a	n/a	pyFR	1	UP046
908.387	0.481	255145	REC_WORD	2.707	n/a	RIB	-999.0	7	n/a	n/a	pyFR	1	UP046
908.868	13.358	255265	REC_WORD	3.188	n/a	WOOD	-999.0	7	n/a	n/a	pyFR	1	UP046
922.226	31.805	258605	REC_WORD	16.546	n/a	SEED	-999.0	7	n/a	n/a	pyFR	1	UP046
954.031	0.017	266556	TRIAL	n/a	n/a	n/a	-999.0	8	n/a	n/a	pyFR	1	UP046
954.048	1.6	266560	ORIENT	n/a	n/a	n/a	-999.0	8	n/a	n/a	pyFR	1	UP046
956.831	1.6	267256	WORD	n/a	wordpools/wordpool_EN.txt	PEARL	1.0	8	n/a	n/a	pyFR	1	UP046
959.348	1.6	267885	WORD	n/a	wordpools/wordpool_EN.txt	SHELL	2.0	8	n/a	n/a	pyFR	1	UP046
962.148	1.6	268585	WORD	n/a	wordpools/wordpool_EN.txt	TOOTH	3.0	8	n/a	n/a	pyFR	1	UP046
964.915	1.6	269277	WORD	n/a	wordpools/wordpool_EN.txt	DITCH	4.0	8	n/a	n/a	pyFR	1	UP046
967.648	1.6	269960	WORD	n/a	wordpools/wordpool_EN.txt	WORM	5.0	8	n/a	n/a	pyFR	1	UP046
970.115	1.6	270577	WORD	n/a	wordpools/wordpool_EN.txt	MOTH	6.0	8	n/a	n/a	pyFR	1	UP046
972.815	1.6	271252	WORD	n/a	wordpools/wordpool_EN.txt	COW	7.0	8	n/a	n/a	pyFR	1	UP046
975.632	1.6	271956	WORD	n/a	wordpools/wordpool_EN.txt	FLEA	8.0	8	n/a	n/a	pyFR	1	UP046
978.149	1.6	272586	WORD	n/a	wordpools/wordpool_EN.txt	CASH	9.0	8	n/a	n/a	pyFR	1	UP046
980.963	1.6	273289	WORD	n/a	wordpools/wordpool_EN.txt	SHRIMP	10.0	8	n/a	n/a	pyFR	1	UP046
983.699	1.6	273973	WORD	n/a	wordpools/wordpool_EN.txt	ARK	11.0	8	n/a	n/a	pyFR	1	UP046
986.165	1.6	274590	WORD	n/a	wordpools/wordpool_EN.txt	FOG	12.0	8	n/a	n/a	pyFR	1	UP046
988.632	1.6	275206	WORD	n/a	wordpools/wordpool_EN.txt	BED	13.0	8	n/a	n/a	pyFR	1	UP046
991.116	1.6	275827	WORD	n/a	wordpools/wordpool_EN.txt	FENCE	14.0	8	n/a	n/a	pyFR	1	UP046
993.749	1.6	276486	WORD	n/a	wordpools/wordpool_EN.txt	HORSE	15.0	8	n/a	n/a	pyFR	1	UP046
995.368	1.079	276890	START	n/a	n/a	n/a	n/a	8	[-999 -999 -999]	-999.0	pyFR	1	UP046
996.447	7.601	277160	PROB	7.566	n/a	n/a	n/a	8	[4 4 3]	11.0	pyFR	1	UP046
1004.048	6.585	279060	PROB	6.556	n/a	n/a	n/a	8	[5 3 1]	9.0	pyFR	1	UP046
1010.633	8.003	280707	PROB	8.003	n/a	n/a	n/a	8	[7 9 2]	18.0	pyFR	1	UP046
1018.636	1.132	282707	STOP	n/a	n/a	n/a	n/a	8	[-999 -999 -999]	-999.0	pyFR	1	UP046
1019.768	1.454	282990	REC_START	n/a	n/a	n/a	-999.0	8	n/a	n/a	pyFR	1	UP046
1021.222	0.439	283354	REC_WORD	1.454	n/a	PEARL	-999.0	8	n/a	n/a	pyFR	1	UP046
1021.661	0.622	283464	REC_WORD	1.893	n/a	SHELL	-999.0	8	n/a	n/a	pyFR	1	UP046
1022.283	0.59	283619	REC_WORD	2.515	n/a	TOOTH	-999.0	8	n/a	n/a	pyFR	1	UP046
1022.873	7.943	283767	REC_WORD	3.105	n/a	DITCH	-999.0	8	n/a	n/a	pyFR	1	UP046
1030.816	11.745	285752	REC_WORD_VV	11.048	n/a	<>	-999.0	8	n/a	n/a	pyFR	1	UP046
1042.561	12.46	288689	REC_WORD_VV	22.793	n/a	<>	-999.0	8	n/a	n/a	pyFR	1	UP046
1055.021	5.166	291803	REC_WORD	35.253	n/a	TOOTH	-999.0	8	n/a	n/a	pyFR	1	UP046
1060.187	8.832	293095	REC_WORD	40.419	n/a	CLOWN	-999.0	8	n/a	n/a	pyFR	1	UP046
1069.019	0.016	295303	TRIAL	n/a	n/a	n/a	-999.0	9	n/a	n/a	pyFR	1	UP046
1069.035	1.6	295307	ORIENT	n/a	n/a	n/a	-999.0	9	n/a	n/a	pyFR	1	UP046
1071.869	1.6	296015	WORD	n/a	wordpools/wordpool_EN.txt	SOCK	1.0	9	n/a	n/a	pyFR	1	UP046
1074.436	1.6	296657	WORD	n/a	wordpools/wordpool_EN.txt	PALM	2.0	9	n/a	n/a	pyFR	1	UP046
1077.252	1.6	297361	WORD	n/a	wordpools/wordpool_EN.txt	MOUTH	3.0	9	n/a	n/a	pyFR	1	UP046
1079.952	1.6	298036	WORD	n/a	wordpools/wordpool_EN.txt	JET	4.0	9	n/a	n/a	pyFR	1	UP046
1082.518	1.6	298678	WORD	n/a	wordpools/wordpool_EN.txt	MAIL	5.0	9	n/a	n/a	pyFR	1	UP046
1085.202	1.6	299349	WORD	n/a	wordpools/wordpool_EN.txt	MAZE	6.0	9	n/a	n/a	pyFR	1	UP046
1087.636	1.6	299957	WORD	n/a	wordpools/wordpool_EN.txt	SKUNK	7.0	9	n/a	n/a	pyFR	1	UP046
1090.303	1.6	300624	WORD	n/a	wordpools/wordpool_EN.txt	BALL	8.0	9	n/a	n/a	pyFR	1	UP046
1092.953	1.6	301286	WORD	n/a	wordpools/wordpool_EN.txt	GUARD	9.0	9	n/a	n/a	pyFR	1	UP046
1095.519	1.6	301928	WORD	n/a	wordpools/wordpool_EN.txt	PRINCE	10.0	9	n/a	n/a	pyFR	1	UP046
1098.136	1.6	302582	WORD	n/a	wordpools/wordpool_EN.txt	THUMB	11.0	9	n/a	n/a	pyFR	1	UP046
1100.853	1.6	303261	WORD	n/a	wordpools/wordpool_EN.txt	HILL	12.0	9	n/a	n/a	pyFR	1	UP046
1103.287	1.6	303870	WORD	n/a	wordpools/wordpool_EN.txt	EAR	13.0	9	n/a	n/a	pyFR	1	UP046
1105.97	1.6	304541	WORD	n/a	wordpools/wordpool_EN.txt	CHALK	14.0	9	n/a	n/a	pyFR	1	UP046
1108.437	1.6	305157	WORD	n/a	wordpools/wordpool_EN.txt	TEETH	15.0	9	n/a	n/a	pyFR	1	UP046
1110.055	1.197	305562	START	n/a	n/a	n/a	n/a	9	[-999 -999 -999]	-999.0	pyFR	1	UP046
1111.252	11.15	305861	PROB	11.124	n/a	n/a	n/a	9	[1 6 5]	12.0	pyFR	1	UP046
1122.402	4.149	308649	PROB	4.126	n/a	n/a	n/a	9	[5 2 1]	8.0	pyFR	1	UP046
1126.551	5.746	309686	PROB	5.746	n/a	n/a	n/a	9	[8 2 6]	16.0	pyFR	1	UP046
1132.297	1.058	311122	STOP	n/a	n/a	n/a	n/a	9	[-999 -999 -999]	-999.0	pyFR	1	UP046
1133.355	1.507	311387	REC_START	n/a	n/a	n/a	-999.0	9	n/a	n/a	pyFR	1	UP046
1134.862	0.455	311764	REC_WORD	1.507	n/a	GUARD	-999.0	9	n/a	n/a	pyFR	1	UP046
1135.317	0.457	311877	REC_WORD	1.962	n/a	GUM	-999.0	9	n/a	n/a	pyFR	1	UP046
1135.774	0.592	311992	REC_WORD	2.419	n/a	PRINCE	-999.0	9	n/a	n/a	pyFR	1	UP046
1136.366	3.454	312140	REC_WORD	3.011	n/a	HILL	-999.0	9	n/a	n/a	pyFR	1	UP046
1139.82	4.189	313003	REC_WORD	6.465	n/a	SOCK	-999.0	9	n/a	n/a	pyFR	1	UP046
1144.009	37.781	314050	REC_WORD	10.654	n/a	TOE	-999.0	9	n/a	n/a	pyFR	1	UP046
1181.79	0.016	323496	TRIAL	n/a	n/a	n/a	-999.0	10	n/a	n/a	pyFR	1	UP046
1181.806	1.6	323500	ORIENT	n/a	n/a	n/a	-999.0	10	n/a	n/a	pyFR	1	UP046
1184.623	1.6	324204	WORD	n/a	wordpools/wordpool_EN.txt	BOAT	1.0	10	n/a	n/a	pyFR	1	UP046
1187.439	1.6	324908	WORD	n/a	wordpools/wordpool_EN.txt	SPARK	2.0	10	n/a	n/a	pyFR	1	UP046
1190.023	1.6	325554	WORD	n/a	wordpools/wordpool_EN.txt	DART	3.0	10	n/a	n/a	pyFR	1	UP046
1192.756	1.6	326237	WORD	n/a	wordpools/wordpool_EN.txt	TOY	4.0	10	n/a	n/a	pyFR	1	UP046
1195.406	1.6	326900	WORD	n/a	wordpools/wordpool_EN.txt	CLAY	5.0	10	n/a	n/a	pyFR	1	UP046
1198.04	1.6	327558	WORD	n/a	wordpools/wordpool_EN.txt	FLAG	6.0	10	n/a	n/a	pyFR	1	UP046
1200.49	1.6	328171	WORD	n/a	wordpools/wordpool_EN.txt	GATE	7.0	10	n/a	n/a	pyFR	1	UP046
1203.007	1.6	328800	WORD	n/a	wordpools/wordpool_EN.txt	BRIDGE	8.0	10	n/a	n/a	pyFR	1	UP046
1205.623	1.6	329454	WORD	n/a	wordpools/wordpool_EN.txt	STORM	9.0	10	n/a	n/a	pyFR	1	UP046
1208.24	1.6	330108	WORD	n/a	wordpools/wordpool_EN.txt	PLANE	10.0	10	n/a	n/a	pyFR	1	UP046
1210.724	1.6	330729	WORD	n/a	wordpools/wordpool_EN.txt	GRASS	11.0	10	n/a	n/a	pyFR	1	UP046
1213.206	1.6	331350	WORD	n/a	wordpools/wordpool_EN.txt	CHIN	12.0	10	n/a	n/a	pyFR	1	UP046
1215.907	1.6	332025	WORD	n/a	wordpools/wordpool_EN.txt	LAMP	13.0	10	n/a	n/a	pyFR	1	UP046
1218.574	1.6	332692	WORD	n/a	wordpools/wordpool_EN.txt	WOLF	14.0	10	n/a	n/a	pyFR	1	UP046
1221.091	1.6	333321	WORD	n/a	wordpools/wordpool_EN.txt	JUDGE	15.0	10	n/a	n/a	pyFR	1	UP046
1222.709	0.846	333725	START	n/a	n/a	n/a	n/a	10	[-999 -999 -999]	-999.0	pyFR	1	UP046
1223.555	15.151	333937	PROB	15.122	n/a	n/a	n/a	10	[7 5 1]	13.0	pyFR	1	UP046
1238.706	6.267	337725	PROB	6.267	n/a	n/a	n/a	10	[6 8 6]	20.0	pyFR	1	UP046
1244.973	1.137	339291	STOP	n/a	n/a	n/a	n/a	10	[-999 -999 -999]	-999.0	pyFR	1	UP046
1246.11	5.075	339576	REC_START	n/a	n/a	n/a	-999.0	10	n/a	n/a	pyFR	1	UP046
1251.185	0.594	340844	REC_WORD	5.075	n/a	TOY	-999.0	10	n/a	n/a	pyFR	1	UP046
1251.779	6.846	340993	REC_WORD	5.669	n/a	BRIDGE	-999.0	10	n/a	n/a	pyFR	1	UP046
1258.625	35.986	342704	REC_WORD	12.515	n/a	CHANGE	-999.0	10	n/a	n/a	pyFR	1	UP046
1294.611	0.016	351701	TRIAL	n/a	n/a	n/a	-999.0	11	n/a	n/a	pyFR	1	UP046
1294.627	1.6	351705	ORIENT	n/a	n/a	n/a	-999.0	11	n/a	n/a	pyFR	1	UP046
1297.36	1.6	352388	WORD	n/a	wordpools/wordpool_EN.txt	SHIELD	1.0	11	n/a	n/a	pyFR	1	UP046
1299.893	1.6	353021	WORD	n/a	wordpools/wordpool_EN.txt	THREAD	2.0	11	n/a	n/a	pyFR	1	UP046
1302.327	1.6	353630	WORD	n/a	wordpools/wordpool_EN.txt	ROOM	3.0	11	n/a	n/a	pyFR	1	UP046
1305.143	1.6	354334	WORD	n/a	wordpools/wordpool_EN.txt	STAR	4.0	11	n/a	n/a	pyFR	1	UP046
1307.727	1.6	354980	WORD	n/a	wordpools/wordpool_EN.txt	DUCK	5.0	11	n/a	n/a	pyFR	1	UP046
1310.544	1.6	355684	WORD	n/a	wordpools/wordpool_EN.txt	BAT	6.0	11	n/a	n/a	pyFR	1	UP046
1313.377	1.6	356392	WORD	n/a	wordpools/wordpool_EN.txt	TOAD	7.0	11	n/a	n/a	pyFR	1	UP046
1315.861	1.6	357013	WORD	n/a	wordpools/wordpool_EN.txt	SIGN	8.0	11	n/a	n/a	pyFR	1	UP046
1318.628	1.6	357705	WORD	n/a	wordpools/wordpool_EN.txt	SHARK	9.0	11	n/a	n/a	pyFR	1	UP046
1321.244	1.6	358359	WORD	n/a	wordpools/wordpool_EN.txt	LAWN	10.0	11	n/a	n/a	pyFR	1	UP046
1323.894	1.6	359021	WORD	n/a	wordpools/wordpool_EN.txt	CORD	11.0	11	n/a	n/a	pyFR	1	UP046
1326.428	1.6	359655	WORD	n/a	wordpools/wordpool_EN.txt	WEED	12.0	11	n/a	n/a	pyFR	1	UP046
1328.961	1.6	360288	WORD	n/a	wordpools/wordpool_EN.txt	GOAT	13.0	11	n/a	n/a	pyFR	1	UP046
1331.678	1.6	360967	WORD	n/a	wordpools/wordpool_EN.txt	STICK	14.0	11	n/a	n/a	pyFR	1	UP046
1334.428	1.6	361655	WORD	n/a	wordpools/wordpool_EN.txt	SHIRT	15.0	11	n/a	n/a	pyFR	1	UP046
1336.046	1.014	362059	START	n/a	n/a	n/a	n/a	11	[-999 -999 -999]	-999.0	pyFR	1	UP046
1337.06	6.433	362313	PROB	6.398	n/a	n/a	n/a	11	[3 4 8]	15.0	pyFR	1	UP046
1343.493	4.334	363921	PROB	4.308	n/a	n/a	n/a	11	[6 4 1]	11.0	pyFR	1	UP046
1347.827	6.9	365005	PROB	6.878	n/a	n/a	n/a	11	[2 6 1]	9.0	pyFR	1	UP046
1354.727	13.442	366730	PROB	13.442	n/a	n/a	n/a	11	[7 6 6]	19.0	pyFR	1	UP046
1368.169	1.078	370090	STOP	n/a	n/a	n/a	n/a	11	[-999 -999 -999]	-999.0	pyFR	1	UP046
1369.247	1.424	370360	REC_START	n/a	n/a	n/a	-999.0	11	n/a	n/a	pyFR	1	UP046
1370.671	0.409	370716	REC_WORD	1.424	n/a	ROOM	-999.0	11	n/a	n/a	pyFR	1	UP046
1371.08	0.618	370818	REC_WORD	1.833	n/a	STAR	-999.0	11	n/a	n/a	pyFR	1	UP046
1371.698	0.437	370972	REC_WORD	2.451	n/a	DUCK	-999.0	11	n/a	n/a	pyFR	1	UP046
1372.135	0.448	371082	REC_WORD	2.888	n/a	BAT	-999.0	11	n/a	n/a	pyFR	1	UP046
1372.583	5.119	371194	REC_WORD	3.336	n/a	WEED	-999.0	11	n/a	n/a	pyFR	1	UP046
1377.702	16.049	372473	REC_WORD	8.455	n/a	STRANGE	-999.0	11	n/a	n/a	pyFR	1	UP046
1393.751	23.097	376486	REC_WORD	24.504	n/a	CHANGE	-999.0	11	n/a	n/a	pyFR	1	UP046
1416.848	0.016	382260	TRIAL	n/a	n/a	n/a	-999.0	12	n/a	n/a	pyFR	1	UP046
1416.864	1.6	382264	ORIENT	n/a	n/a	n/a	-999.0	12	n/a	n/a	pyFR	1	UP046
1419.831	1.6	383006	WORD	n/a	wordpools/wordpool_EN.txt	TRAY	1.0	12	n/a	n/a	pyFR	1	UP046
1422.465	1.6	383664	WORD	n/a	wordpools/wordpool_EN.txt	JUICE	2.0	12	n/a	n/a	pyFR	1	UP046
1424.998	1.6	384297	WORD	n/a	wordpools/wordpool_EN.txt	BUSH	3.0	12	n/a	n/a	pyFR	1	UP046
1427.481	1.6	384918	WORD	n/a	wordpools/wordpool_EN.txt	STREET	4.0	12	n/a	n/a	pyFR	1	UP046
1429.965	1.6	385539	WORD	n/a	wordpools/wordpool_EN.txt	RICE	5.0	12	n/a	n/a	pyFR	1	UP046
1432.682	1.6	386218	WORD	n/a	wordpools/wordpool_EN.txt	FLAME	6.0	12	n/a	n/a	pyFR	1	UP046
1435.398	1.6	386897	WORD	n/a	wordpools/wordpool_EN.txt	STRING	7.0	12	n/a	n/a	pyFR	1	UP046
1438.232	1.6	387606	WORD	n/a	wordpools/wordpool_EN.txt	PLATE	8.0	12	n/a	n/a	pyFR	1	UP046
1440.799	1.6	388248	WORD	n/a	wordpools/wordpool_EN.txt	STEM	9.0	12	n/a	n/a	pyFR	1	UP046
1443.482	1.6	388918	WORD	n/a	wordpools/wordpool_EN.txt	DESK	10.0	12	n/a	n/a	pyFR	1	UP046
1446.149	1.6	389585	WORD	n/a	wordpools/wordpool_EN.txt	MULE	11.0	12	n/a	n/a	pyFR	1	UP046
1448.599	1.6	390198	WORD	n/a	wordpools/wordpool_EN.txt	BADGE	12.0	12	n/a	n/a	pyFR	1	UP046
1451.349	1.6	390885	WORD	n/a	wordpools/wordpool_EN.txt	NOSE	13.0	12	n/a	n/a	pyFR	1	UP046
1453.782	1.6	391493	WORD	n/a	wordpools/wordpool_EN.txt	BOOK	14.0	12	n/a	n/a	pyFR	1	UP046
1456.599	1.6	392197	WORD	n/a	wordpools/wordpool_EN.txt	TREE	15.0	12	n/a	n/a	pyFR	1	UP046
1458.218	1.163	392602	START	n/a	n/a	n/a	n/a	12	[-999 -999 -999]	-999.0	pyFR	1	UP046
1459.381	10.452	392893	PROB	10.425	n/a	n/a	n/a	12	[8 5 4]	17.0	pyFR	1	UP046
1469.833	8.444	395506	PROB	8.444	n/a	n/a	n/a	12	[1 2 3]	6.0	pyFR	1	UP046
1478.277	1.057	397617	STOP	n/a	n/a	n/a	n/a	12	[-999 -999 -999]	-999.0	pyFR	1	UP046
1479.334	1.408	397881	REC_START	n/a	n/a	n/a	-999.0	12	n/a	n/a	pyFR	1	UP046
1480.742	0.855	398233	REC_WORD	1.408	n/a	TRAY	-999.0	12	n/a	n/a	pyFR	1	UP046
1481.597	3.74	398447	REC_WORD	2.263	n/a	BUSH	-999.0	12	n/a	n/a	pyFR	1	UP046
1485.337	5.754	399382	REC_WORD	6.003	n/a	NOSE	-999.0	12	n/a	n/a	pyFR	1	UP046
1491.091	3.151	400820	REC_WORD_VV	11.757	n/a	<>	-999.0	12	n/a	n/a	pyFR	1	UP046
1494.242	4.049	401608	REC_WORD_VV	14.908	n/a	<>	-999.0	12	n/a	n/a	pyFR	1	UP046
1498.291	10.587	402620	REC_WORD	18.957	n/a	NOSE	-999.0	12	n/a	n/a	pyFR	1	UP046
1508.878	23.141	405267	REC_WORD	29.544	n/a	CHANGE	-999.0	12	n/a	n/a	pyFR	1	UP046
1532.019	0.016	411052	TRIAL	n/a	n/a	n/a	-999.0	13	n/a	n/a	pyFR	1	UP046
1532.035	1.6	411056	ORIENT	n/a	n/a	n/a	-999.0	13	n/a	n/a	pyFR	1	UP046
1534.8	1.6	411748	WORD	n/a	wordpools/wordpool_EN.txt	SKY	1.0	13	n/a	n/a	pyFR	1	UP046
1537.519	1.6	412427	WORD	n/a	wordpools/wordpool_EN.txt	COIN	2.0	13	n/a	n/a	pyFR	1	UP046
1540.136	1.6	413082	WORD	n/a	wordpools/wordpool_EN.txt	KING	3.0	13	n/a	n/a	pyFR	1	UP046
1542.619	1.6	413702	WORD	n/a	wordpools/wordpool_EN.txt	SEAT	4.0	13	n/a	n/a	pyFR	1	UP046
1545.102	1.6	414323	WORD	n/a	wordpools/wordpool_EN.txt	ICE	5.0	13	n/a	n/a	pyFR	1	UP046
1547.802	1.6	414998	WORD	n/a	wordpools/wordpool_EN.txt	MOLE	6.0	13	n/a	n/a	pyFR	1	UP046
1550.619	1.6	415702	WORD	n/a	wordpools/wordpool_EN.txt	BROOM	7.0	13	n/a	n/a	pyFR	1	UP046
1553.303	1.6	416373	WORD	n/a	wordpools/wordpool_EN.txt	FUDGE	8.0	13	n/a	n/a	pyFR	1	UP046
1555.736	1.6	416982	WORD	n/a	wordpools/wordpool_EN.txt	SLEEVE	9.0	13	n/a	n/a	pyFR	1	UP046
1558.203	1.6	417598	WORD	n/a	wordpools/wordpool_EN.txt	LAND	10.0	13	n/a	n/a	pyFR	1	UP046
1560.686	1.6	418219	WORD	n/a	wordpools/wordpool_EN.txt	LAMB	11.0	13	n/a	n/a	pyFR	1	UP046
1563.22	1.6	418853	WORD	n/a	wordpools/wordpool_EN.txt	FRUIT	12.0	13	n/a	n/a	pyFR	1	UP046
1565.901	1.6	419523	WORD	n/a	wordpools/wordpool_EN.txt	CORN	13.0	13	n/a	n/a	pyFR	1	UP046
1568.603	1.6	420198	WORD	n/a	wordpools/wordpool_EN.txt	AXE	14.0	13	n/a	n/a	pyFR	1	UP046
1571.354	1.6	420886	WORD	n/a	wordpools/wordpool_EN.txt	LEAF	15.0	13	n/a	n/a	pyFR	1	UP046
1572.972	0.93	421291	START	n/a	n/a	n/a	n/a	13	[-999 -999 -999]	-999.0	pyFR	1	UP046
1573.902	8.502	421523	PROB	8.467	n/a	n/a	n/a	13	[3 9 2]	14.0	pyFR	1	UP046
1582.404	8.782	423649	PROB	8.757	n/a	n/a	n/a	13	[8 6 3]	17.0	pyFR	1	UP046
1591.186	7.303	425844	PROB	7.303	n/a	n/a	n/a	13	[2 9 1]	12.0	pyFR	1	UP046
1598.489	1.217	427670	STOP	n/a	n/a	n/a	n/a	13	[-999 -999 -999]	-999.0	pyFR	1	UP046
1599.706	2.098	427974	REC_START	n/a	n/a	n/a	-999.0	13	n/a	n/a	pyFR	1	UP046
1601.804	0.517	428499	REC_WORD	2.098	n/a	AXE	-999.0	13	n/a	n/a	pyFR	1	UP046
1602.321	4.948	428628	REC_WORD	2.615	n/a	LEAF	-999.0	13	n/a	n/a	pyFR	1	UP046
1607.269	7.399	429865	REC_WORD	7.563	n/a	CHANGE	-999.0	13	n/a	n/a	pyFR	1	UP046
1614.668	20.935	431715	REC_WORD_VV	14.962	n/a	<>	-999.0	13	n/a	n/a	pyFR	1	UP046
1635.603	16.737	436948	REC_WORD_VV	35.897	n/a	<>	-999.0	13	n/a	n/a	pyFR	1	UP046
1652.34	0.016	441132	TRIAL	n/a	n/a	n/a	-999.0	14	n/a	n/a	pyFR	1	UP046
1652.356	1.6	441136	ORIENT	n/a	n/a	n/a	-999.0	14	n/a	n/a	pyFR	1	UP046
1655.057	1.6	441812	WORD	n/a	wordpools/wordpool_EN.txt	SNAIL	1.0	14	n/a	n/a	pyFR	1	UP046
1657.756	1.6	442486	WORD	n/a	wordpools/wordpool_EN.txt	CARD	2.0	14	n/a	n/a	pyFR	1	UP046
1660.323	1.6	443128	WORD	n/a	wordpools/wordpool_EN.txt	KEY	3.0	14	n/a	n/a	pyFR	1	UP046
1663.007	1.6	443799	WORD	n/a	wordpools/wordpool_EN.txt	ARM	4.0	14	n/a	n/a	pyFR	1	UP046
1665.49	1.6	444420	WORD	n/a	wordpools/wordpool_EN.txt	PARK	5.0	14	n/a	n/a	pyFR	1	UP046
1668.29	1.6	445120	WORD	n/a	wordpools/wordpool_EN.txt	HAND	6.0	14	n/a	n/a	pyFR	1	UP046
1670.807	1.6	445749	WORD	n/a	wordpools/wordpool_EN.txt	WHEEL	7.0	14	n/a	n/a	pyFR	1	UP046
1673.624	1.6	446453	WORD	n/a	wordpools/wordpool_EN.txt	SMILE	8.0	14	n/a	n/a	pyFR	1	UP046
1676.14	1.6	447082	WORD	n/a	wordpools/wordpool_EN.txt	BRANCH	9.0	14	n/a	n/a	pyFR	1	UP046
1678.907	1.6	447774	WORD	n/a	wordpools/wordpool_EN.txt	CAR	10.0	14	n/a	n/a	pyFR	1	UP046
1681.357	1.6	448387	WORD	n/a	wordpools/wordpool_EN.txt	HORN	11.0	14	n/a	n/a	pyFR	1	UP046
1684.024	1.6	449053	WORD	n/a	wordpools/wordpool_EN.txt	CONE	12.0	14	n/a	n/a	pyFR	1	UP046
1686.724	1.6	449728	WORD	n/a	wordpools/wordpool_EN.txt	KITE	13.0	14	n/a	n/a	pyFR	1	UP046
1689.174	1.6	450341	WORD	n/a	wordpools/wordpool_EN.txt	SPOON	14.0	14	n/a	n/a	pyFR	1	UP046
1691.858	1.6	451012	WORD	n/a	wordpools/wordpool_EN.txt	SAIL	15.0	14	n/a	n/a	pyFR	1	UP046
1693.476	0.913	451416	START	n/a	n/a	n/a	n/a	14	[-999 -999 -999]	-999.0	pyFR	1	UP046
1694.389	21.729	451645	PROB	21.729	n/a	n/a	n/a	14	[7 7 8]	22.0	pyFR	1	UP046
1716.118	1.058	457077	STOP	n/a	n/a	n/a	n/a	14	[-999 -999 -999]	-999.0	pyFR	1	UP046
1717.176	1.474	457341	REC_START	n/a	n/a	n/a	-999.0	14	n/a	n/a	pyFR	1	UP046
1718.65	0.477	457710	REC_WORD	1.474	n/a	BARK	-999.0	14	n/a	n/a	pyFR	1	UP046
1719.127	0.415	457829	REC_WORD	1.951	n/a	CAR	-999.0	14	n/a	n/a	pyFR	1	UP046
1719.542	0.477	457933	REC_WORD	2.366	n/a	HAND	-999.0	14	n/a	n/a	pyFR	1	UP046
1720.019	4.644	458052	REC_WORD	2.843	n/a	WHEEL	-999.0	14	n/a	n/a	pyFR	1	UP046
1724.663	19.677	459213	REC_WORD	7.487	n/a	SNOOZE	-999.0	14	n/a	n/a	pyFR	1	UP046
1744.34	20.637	464132	REC_WORD_VV	27.164	n/a	<>	-999.0	14	n/a	n/a	pyFR	1	UP046
1764.977	0.017	469292	TRIAL	n/a	n/a	n/a	-999.0	15	n/a	n/a	pyFR	1	UP046
1764.994	1.6	469296	ORIENT	n/a	n/a	n/a	-999.0	15	n/a	n/a	pyFR	1	UP046
1767.711	1.6	469975	WORD	n/a	wordpools/wordpool_EN.txt	RUG	1.0	15	n/a	n/a	pyFR	1	UP046
1770.344	1.6	470633	WORD	n/a	wordpools/wordpool_EN.txt	DRESS	2.0	15	n/a	n/a	pyFR	1	UP046
1772.877	1.6	471267	WORD	n/a	wordpools/wordpool_EN.txt	BARN	3.0	15	n/a	n/a	pyFR	1	UP046
1775.477	1.6	471917	WORD	n/a	wordpools/wordpool_EN.txt	CHIEF	4.0	15	n/a	n/a	pyFR	1	UP046
1778.294	1.6	472621	WORD	n/a	wordpools/wordpool_EN.txt	HOUSE	5.0	15	n/a	n/a	pyFR	1	UP046
1780.744	1.6	473233	WORD	n/a	wordpools/wordpool_EN.txt	BAG	6.0	15	n/a	n/a	pyFR	1	UP046
1783.211	1.6	473850	WORD	n/a	wordpools/wordpool_EN.txt	PASTE	7.0	15	n/a	n/a	pyFR	1	UP046
1785.743	1.6	474483	WORD	n/a	wordpools/wordpool_EN.txt	RAIN	8.0	15	n/a	n/a	pyFR	1	UP046
1788.311	1.6	475125	WORD	n/a	wordpools/wordpool_EN.txt	POND	9.0	15	n/a	n/a	pyFR	1	UP046
1791.094	1.6	475821	WORD	n/a	wordpools/wordpool_EN.txt	GEESE	10.0	15	n/a	n/a	pyFR	1	UP046
1793.578	1.6	476442	WORD	n/a	wordpools/wordpool_EN.txt	PET	11.0	15	n/a	n/a	pyFR	1	UP046
1796.261	1.6	477113	WORD	n/a	wordpools/wordpool_EN.txt	CAVE	12.0	15	n/a	n/a	pyFR	1	UP046
1799.01	1.6	477800	WORD	n/a	wordpools/wordpool_EN.txt	SINK	13.0	15	n/a	n/a	pyFR	1	UP046
1801.745	1.6	478484	WORD	n/a	wordpools/wordpool_EN.txt	SOUP	14.0	15	n/a	n/a	pyFR	1	UP046
1804.562	1.6	479188	WORD	n/a	wordpools/wordpool_EN.txt	BEE	15.0	15	n/a	n/a	pyFR	1	UP046
1806.18	0.847	479592	START	n/a	n/a	n/a	n/a	15	[-999 -999 -999]	-999.0	pyFR	1	UP046
1807.027	6.385	479804	PROB	6.351	n/a	n/a	n/a	15	[1 1 7]	9.0	pyFR	1	UP046
1813.412	5.582	481400	PROB	5.55	n/a	n/a	n/a	15	[8 7 3]	18.0	pyFR	1	UP046
1818.994	6.917	482796	PROB	6.888	n/a	n/a	n/a	15	[3 4 9]	16.0	pyFR	1	UP046
1825.911	6.395	484525	PROB	6.395	n/a	n/a	n/a	15	[9 6 8]	23.0	pyFR	1	UP046
1832.306	1.209	486124	STOP	n/a	n/a	n/a	n/a	15	[-999 -999 -999]	-999.0	pyFR	1	UP046
1833.515	1.1	486426	REC_START	n/a	n/a	n/a	-999.0	15	n/a	n/a	pyFR	1	UP046
1834.615	0.522	486701	REC_WORD	1.1	n/a	RUG	-999.0	15	n/a	n/a	pyFR	1	UP046
1835.137	0.509	486832	REC_WORD	1.622	n/a	BARN	-999.0	15	n/a	n/a	pyFR	1	UP046
1835.646	0.474	486959	REC_WORD	2.131	n/a	BACK	-999.0	15	n/a	n/a	pyFR	1	UP046
1836.12	0.39	487077	REC_WORD	2.605	n/a	PACK	-999.0	15	n/a	n/a	pyFR	1	UP046
1836.51	7.644	487175	REC_WORD	2.995	n/a	SOUP	-999.0	15	n/a	n/a	pyFR	1	UP046
1844.154	8.165	489086	REC_WORD	10.639	n/a	SENSE	-999.0	15	n/a	n/a	pyFR	1	UP046
1852.319	20.994	491127	REC_WORD_VV	18.804	n/a	<>	-999.0	15	n/a	n/a	pyFR	1	UP046
1873.313	8.118	496375	REC_WORD_VV	39.798	n/a	<>	-999.0	15	n/a	n/a	pyFR	1	UP046
1881.431	0.017	498405	TRIAL	n/a	n/a	n/a	-999.0	16	n/a	n/a	pyFR	1	UP046
1881.448	1.6	498409	ORIENT	n/a	n/a	n/a	-999.0	16	n/a	n/a	pyFR	1	UP046
1884.465	1.6	499163	WORD	n/a	wordpools/wordpool_EN.txt	SEA	1.0	16	n/a	n/a	pyFR	1	UP046
1887.081	1.6	499817	WORD	n/a	wordpools/wordpool_EN.txt	LEG	2.0	16	n/a	n/a	pyFR	1	UP046
1889.631	1.6	500455	WORD	n/a	wordpools/wordpool_EN.txt	TAPE	3.0	16	n/a	n/a	pyFR	1	UP046
1892.365	1.6	501138	WORD	n/a	wordpools/wordpool_EN.txt	SLIME	4.0	16	n/a	n/a	pyFR	1	UP046
1894.832	1.6	501755	WORD	n/a	wordpools/wordpool_EN.txt	BOOT	5.0	16	n/a	n/a	pyFR	1	UP046
1897.398	1.6	502397	WORD	n/a	wordpools/wordpool_EN.txt	BLOOM	6.0	16	n/a	n/a	pyFR	1	UP046
1900.048	1.6	503059	WORD	n/a	wordpools/wordpool_EN.txt	MAP	7.0	16	n/a	n/a	pyFR	1	UP046
1902.782	1.6	503743	WORD	n/a	wordpools/wordpool_EN.txt	LIP	8.0	16	n/a	n/a	pyFR	1	UP046
1905.432	1.6	504405	WORD	n/a	wordpools/wordpool_EN.txt	MOON	9.0	16	n/a	n/a	pyFR	1	UP046
1908.149	1.6	505084	WORD	n/a	wordpools/wordpool_EN.txt	EGG	10.0	16	n/a	n/a	pyFR	1	UP046
1910.899	1.6	505772	WORD	n/a	wordpools/wordpool_EN.txt	PEN	11.0	16	n/a	n/a	pyFR	1	UP046
1913.532	1.6	506430	WORD	n/a	wordpools/wordpool_EN.txt	SKI	12.0	16	n/a	n/a	pyFR	1	UP046
1916.299	1.6	507122	WORD	n/a	wordpools/wordpool_EN.txt	CLOCK	13.0	16	n/a	n/a	pyFR	1	UP046
1919.082	1.6	507818	WORD	n/a	wordpools/wordpool_EN.txt	SALT	14.0	16	n/a	n/a	pyFR	1	UP046
1921.866	1.6	508514	WORD	n/a	wordpools/wordpool_EN.txt	EEL	15.0	16	n/a	n/a	pyFR	1	UP046
1923.484	1.197	508918	START	n/a	n/a	n/a	n/a	16	[-999 -999 -999]	-999.0	pyFR	1	UP046
1924.681	9.267	509217	PROB	9.245	n/a	n/a	n/a	16	[4 3 6]	13.0	pyFR	1	UP046
1933.948	3.983	511534	PROB	3.955	n/a	n/a	n/a	16	[2 1 1]	4.0	pyFR	1	UP046
1937.931	7.579	512530	PROB	7.579	n/a	n/a	n/a	16	[2 6 1]	9.0	pyFR	1	UP046
1945.51	1.141	514425	STOP	n/a	n/a	n/a	n/a	16	[-999 -999 -999]	-999.0	pyFR	1	UP046
1946.651	2.449	514710	REC_START	n/a	n/a	n/a	-999.0	16	n/a	n/a	pyFR	1	UP046
1949.1	3.443	515322	REC_WORD	2.449	n/a	INK	-999.0	16	n/a	n/a	pyFR	1	UP046
1952.543	0.588	516183	REC_WORD_VV	5.892	n/a	<>	-999.0	16	n/a	n/a	pyFR	1	UP046
1953.131	8.024	516330	REC_WORD	6.48	n/a	LIP	-999.0	16	n/a	n/a	pyFR	1	UP046
1961.155	599.168	518336	REC_WORD	14.504	n/a	CHANGE	-999.0	16	n/a	n/a	pyFR	1	UP046
2560.323	0.1	668127	SESS_END	n/a	n/a	n/a	-999.0	16	n/a	n/a	pyFR	1	UP046
2560.423	0.0	668152	E	n/a	n/a	n/a	-999.0	16	n/a	n/a	pyFR	1	UP046
