onset	duration	sample	trial_type	response_time	stim_file	item_name	serialpos	list	test	answer	experiment	session	subject
0.0	0.0	259710	B	n/a	n/a	n/a	-999	-999	n/a	n/a	pyFR	0	UP019
0.0	81.9	259710	SESS_START	n/a	n/a	n/a	-999	-999	n/a	n/a	pyFR	0	UP019
81.9	0.042	301646	START	n/a	n/a	n/a	n/a	0	[-999 -999 -999]	-999	pyFR	0	UP019
81.942	7.477	301668	PROB	7.428	n/a	n/a	n/a	0	[9 2 7]	18	pyFR	0	UP019
89.419	3.462	305497	PROB	3.408	n/a	n/a	n/a	0	[2 4 4]	10	pyFR	0	UP019
92.881	2.275	307269	PROB	2.234	n/a	n/a	n/a	0	[4 1 5]	10	pyFR	0	UP019
95.156	2.241	308434	PROB	2.199	n/a	n/a	n/a	0	[5 6 2]	13	pyFR	0	UP019
97.397	2.425	309582	PROB	2.374	n/a	n/a	n/a	0	[1 4 2]	7	pyFR	0	UP019
99.822	2.861	310823	PROB	2.813	n/a	n/a	n/a	0	[1 9 6]	16	pyFR	0	UP019
102.683	2.391	312288	PROB	2.336	n/a	n/a	n/a	0	[1 4 9]	14	pyFR	0	UP019
105.074	2.008	313513	PROB	1.961	n/a	n/a	n/a	0	[4 1 9]	14	pyFR	0	UP019
107.082	2.224	314541	PROB	2.176	n/a	n/a	n/a	0	[4 1 7]	12	pyFR	0	UP019
109.306	2.761	315680	PROB	2.761	n/a	n/a	n/a	0	[8 1 7]	16	pyFR	0	UP019
112.067	80.319	317093	STOP	n/a	n/a	n/a	n/a	0	[-999 -999 -999]	-999	pyFR	0	UP019
192.386	0.016	358220	TRIAL	n/a	n/a	n/a	-999	-999	n/a	n/a	pyFR	0	UP019
192.402	2.894	358228	ORIENT	n/a	n/a	n/a	-999	-999	n/a	n/a	pyFR	0	UP019
195.296	2.525	359710	WORD	n/a	wordpools/wordpool_EN.txt	FLOOR	1	1	n/a	n/a	pyFR	0	UP019
197.821	2.626	361003	WORD	n/a	wordpools/wordpool_EN.txt	COIN	2	1	n/a	n/a	pyFR	0	UP019
200.447	2.626	362348	WORD	n/a	wordpools/wordpool_EN.txt	BEAK	3	1	n/a	n/a	pyFR	0	UP019
203.073	2.81	363692	WORD	n/a	wordpools/wordpool_EN.txt	TEETH	4	1	n/a	n/a	pyFR	0	UP019
205.883	2.526	365131	WORD	n/a	wordpools/wordpool_EN.txt	RIB	5	1	n/a	n/a	pyFR	0	UP019
208.409	2.693	366424	WORD	n/a	wordpools/wordpool_EN.txt	VINE	6	1	n/a	n/a	pyFR	0	UP019
211.102	2.443	367803	WORD	n/a	wordpools/wordpool_EN.txt	CART	7	1	n/a	n/a	pyFR	0	UP019
213.545	2.508	369054	WORD	n/a	wordpools/wordpool_EN.txt	ROPE	8	1	n/a	n/a	pyFR	0	UP019
216.053	2.443	370338	WORD	n/a	wordpools/wordpool_EN.txt	DITCH	9	1	n/a	n/a	pyFR	0	UP019
218.496	2.725	371589	WORD	n/a	wordpools/wordpool_EN.txt	LEAF	10	1	n/a	n/a	pyFR	0	UP019
221.221	2.526	372985	WORD	n/a	wordpools/wordpool_EN.txt	SQUARE	11	1	n/a	n/a	pyFR	0	UP019
223.747	2.459	374278	WORD	n/a	wordpools/wordpool_EN.txt	JAIL	12	1	n/a	n/a	pyFR	0	UP019
226.206	2.626	375537	WORD	n/a	wordpools/wordpool_EN.txt	FRUIT	13	1	n/a	n/a	pyFR	0	UP019
228.832	2.793	376882	WORD	n/a	wordpools/wordpool_EN.txt	STORE	14	1	n/a	n/a	pyFR	0	UP019
231.625	1.608	378312	WORD	n/a	wordpools/wordpool_EN.txt	CANE	15	1	n/a	n/a	pyFR	0	UP019
233.233	0.834	379135	START	n/a	n/a	n/a	n/a	1	[-999 -999 -999]	-999	pyFR	0	UP019
234.067	8.096	379562	PROB	8.053	n/a	n/a	n/a	1	[8 7 1]	15	pyFR	0	UP019
242.163	3.044	383708	PROB	2.989	n/a	n/a	n/a	1	[8 9 1]	18	pyFR	0	UP019
245.207	1.689	385266	PROB	1.633	n/a	n/a	n/a	1	[1 2 1]	4	pyFR	0	UP019
246.896	2.442	386131	PROB	2.392	n/a	n/a	n/a	1	[3 8 2]	13	pyFR	0	UP019
249.338	2.325	387382	PROB	2.27	n/a	n/a	n/a	1	[1 3 1]	5	pyFR	0	UP019
251.663	3.305	388572	PROB	3.305	n/a	n/a	n/a	1	[9 5 8]	22	pyFR	0	UP019
254.968	1.212	390265	STOP	n/a	n/a	n/a	n/a	1	[-999 -999 -999]	-999	pyFR	0	UP019
256.18	2.144	390885	REC_START	n/a	n/a	n/a	-999	-999	n/a	n/a	pyFR	0	UP019
258.324	1.0	391983	REC_WORD	2.144	n/a	<>	-999	1	n/a	n/a	pyFR	0	UP019
259.324	1.524	392495	REC_WORD	3.144	n/a	<>	-999	1	n/a	n/a	pyFR	0	UP019
260.848	1.0	393275	REC_WORD	4.668	n/a	<>	-999	1	n/a	n/a	pyFR	0	UP019
261.848	1.676	393787	REC_WORD	5.668	n/a	<>	-999	1	n/a	n/a	pyFR	0	UP019
263.524	1.0	394646	REC_WORD	7.344	n/a	<>	-999	1	n/a	n/a	pyFR	0	UP019
264.524	0.932	395158	REC_WORD	8.344	n/a	<>	-999	1	n/a	n/a	pyFR	0	UP019
265.456	2.867	395635	REC_WORD	9.276	n/a	FRUIT	-999	1	n/a	n/a	pyFR	0	UP019
268.323	8.54	397103	REC_WORD	12.143	n/a	RIB	-999	1	n/a	n/a	pyFR	0	UP019
276.863	17.671	401476	REC_WORD	20.683	n/a	LIVE	-999	1	n/a	n/a	pyFR	0	UP019
294.534	2.924	410524	REC_WORD	38.354	n/a	SHOW	-999	1	n/a	n/a	pyFR	0	UP019
297.458	0.919	412021	REC_WORD	41.278	n/a	STOP	-999	1	n/a	n/a	pyFR	0	UP019
298.377	12.866	412492	REC_WORD	42.197	n/a	MOVE	-999	1	n/a	n/a	pyFR	0	UP019
311.243	0.016	419080	TRIAL	n/a	n/a	n/a	-999	-999	n/a	n/a	pyFR	0	UP019
311.259	2.91	419088	ORIENT	n/a	n/a	n/a	-999	-999	n/a	n/a	pyFR	0	UP019
314.169	2.626	420578	WORD	n/a	wordpools/wordpool_EN.txt	FUDGE	1	2	n/a	n/a	pyFR	0	UP019
316.795	2.543	421923	WORD	n/a	wordpools/wordpool_EN.txt	GUARD	2	2	n/a	n/a	pyFR	0	UP019
319.338	2.492	423225	WORD	n/a	wordpools/wordpool_EN.txt	HAND	3	2	n/a	n/a	pyFR	0	UP019
321.83	2.609	424501	WORD	n/a	wordpools/wordpool_EN.txt	SMILE	4	2	n/a	n/a	pyFR	0	UP019
324.439	2.643	425837	WORD	n/a	wordpools/wordpool_EN.txt	POLE	5	2	n/a	n/a	pyFR	0	UP019
327.082	2.643	427190	WORD	n/a	wordpools/wordpool_EN.txt	HOSE	6	2	n/a	n/a	pyFR	0	UP019
329.725	2.81	428543	WORD	n/a	wordpools/wordpool_EN.txt	MAP	7	2	n/a	n/a	pyFR	0	UP019
332.535	2.609	429982	WORD	n/a	wordpools/wordpool_EN.txt	ROAD	8	2	n/a	n/a	pyFR	0	UP019
335.144	2.626	431318	WORD	n/a	wordpools/wordpool_EN.txt	CALF	9	2	n/a	n/a	pyFR	0	UP019
337.77	2.777	432663	WORD	n/a	wordpools/wordpool_EN.txt	BROOM	10	2	n/a	n/a	pyFR	0	UP019
340.547	2.659	434085	WORD	n/a	wordpools/wordpool_EN.txt	FARM	11	2	n/a	n/a	pyFR	0	UP019
343.206	2.659	435446	WORD	n/a	wordpools/wordpool_EN.txt	BRANCH	12	2	n/a	n/a	pyFR	0	UP019
345.865	2.71	436808	WORD	n/a	wordpools/wordpool_EN.txt	FACE	13	2	n/a	n/a	pyFR	0	UP019
348.575	2.726	438195	WORD	n/a	wordpools/wordpool_EN.txt	WORLD	14	2	n/a	n/a	pyFR	0	UP019
351.301	1.608	439591	WORD	n/a	wordpools/wordpool_EN.txt	MULE	15	2	n/a	n/a	pyFR	0	UP019
352.909	0.968	440414	START	n/a	n/a	n/a	n/a	2	[-999 -999 -999]	-999	pyFR	0	UP019
353.877	3.614	440910	PROB	3.569	n/a	n/a	n/a	2	[5 1 5]	11	pyFR	0	UP019
357.491	3.144	442761	PROB	3.091	n/a	n/a	n/a	2	[9 2 8]	19	pyFR	0	UP019
360.635	3.061	444370	PROB	3.02	n/a	n/a	n/a	2	[1 9 6]	16	pyFR	0	UP019
363.696	3.345	445938	PROB	3.302	n/a	n/a	n/a	2	[9 9 8]	26	pyFR	0	UP019
367.041	4.549	447651	PROB	4.494	n/a	n/a	n/a	2	[9 6 1]	16	pyFR	0	UP019
371.59	2.648	449980	PROB	2.648	n/a	n/a	n/a	2	[6 7 3]	16	pyFR	0	UP019
374.238	1.117	451336	STOP	n/a	n/a	n/a	n/a	2	[-999 -999 -999]	-999	pyFR	0	UP019
375.355	1.885	451908	REC_START	n/a	n/a	n/a	-999	-999	n/a	n/a	pyFR	0	UP019
377.24	1.831	452873	REC_WORD	1.885	n/a	CALF	-999	2	n/a	n/a	pyFR	0	UP019
379.071	0.817	453811	REC_WORD	3.716	n/a	FUDGE	-999	2	n/a	n/a	pyFR	0	UP019
379.888	1.678	454229	REC_WORD	4.533	n/a	HAND	-999	2	n/a	n/a	pyFR	0	UP019
381.566	1.0	455088	REC_WORD	6.211	n/a	WORLD	-999	2	n/a	n/a	pyFR	0	UP019
382.566	9.053	455600	REC_WORD	7.211	n/a	MULE	-999	2	n/a	n/a	pyFR	0	UP019
391.619	4.781	460236	REC_WORD	16.264	n/a	RUN	-999	2	n/a	n/a	pyFR	0	UP019
396.4	5.307	462684	REC_WORD	21.045	n/a	RIVER	-999	2	n/a	n/a	pyFR	0	UP019
401.707	1.0	465401	REC_WORD	26.352	n/a	<>	-999	2	n/a	n/a	pyFR	0	UP019
402.707	1.0	465913	REC_WORD	27.352	n/a	<>	-999	2	n/a	n/a	pyFR	0	UP019
403.707	1.0	466425	REC_WORD	28.352	n/a	<>	-999	2	n/a	n/a	pyFR	0	UP019
404.707	1.0	466937	REC_WORD	29.352	n/a	<>	-999	2	n/a	n/a	pyFR	0	UP019
405.707	1.0	467449	REC_WORD	30.352	n/a	<>	-999	2	n/a	n/a	pyFR	0	UP019
406.707	1.0	467961	REC_WORD	31.352	n/a	<>	-999	2	n/a	n/a	pyFR	0	UP019
407.707	2.016	468473	REC_WORD	32.352	n/a	<>	-999	2	n/a	n/a	pyFR	0	UP019
409.723	1.0	469506	REC_WORD	34.368	n/a	<>	-999	2	n/a	n/a	pyFR	0	UP019
410.723	1.0	470018	REC_WORD	35.368	n/a	<>	-999	2	n/a	n/a	pyFR	0	UP019
411.723	1.718	470530	REC_WORD	36.368	n/a	<>	-999	2	n/a	n/a	pyFR	0	UP019
413.441	1.0	471410	REC_WORD	38.086	n/a	<>	-999	2	n/a	n/a	pyFR	0	UP019
414.441	1.0	471922	REC_WORD	39.086	n/a	<>	-999	2	n/a	n/a	pyFR	0	UP019
415.441	1.552	472434	REC_WORD	40.086	n/a	<>	-999	2	n/a	n/a	pyFR	0	UP019
416.993	1.0	473228	REC_WORD	41.638	n/a	<>	-999	2	n/a	n/a	pyFR	0	UP019
417.993	15.284	473740	REC_WORD	42.638	n/a	<>	-999	2	n/a	n/a	pyFR	0	UP019
433.277	0.016	481566	TRIAL	n/a	n/a	n/a	-999	-999	n/a	n/a	pyFR	0	UP019
433.293	2.626	481575	ORIENT	n/a	n/a	n/a	-999	-999	n/a	n/a	pyFR	0	UP019
435.919	2.493	482919	WORD	n/a	wordpools/wordpool_EN.txt	CLOWN	1	3	n/a	n/a	pyFR	0	UP019
438.412	2.693	484196	WORD	n/a	wordpools/wordpool_EN.txt	FAN	2	3	n/a	n/a	pyFR	0	UP019
441.105	2.709	485575	WORD	n/a	wordpools/wordpool_EN.txt	TOAST	3	3	n/a	n/a	pyFR	0	UP019
443.814	2.744	486962	WORD	n/a	wordpools/wordpool_EN.txt	SLUSH	4	3	n/a	n/a	pyFR	0	UP019
446.558	2.492	488367	WORD	n/a	wordpools/wordpool_EN.txt	SLIME	5	3	n/a	n/a	pyFR	0	UP019
449.05	2.609	489643	WORD	n/a	wordpools/wordpool_EN.txt	YARD	6	3	n/a	n/a	pyFR	0	UP019
451.659	2.509	490979	WORD	n/a	wordpools/wordpool_EN.txt	TOY	7	3	n/a	n/a	pyFR	0	UP019
454.168	2.576	492263	WORD	n/a	wordpools/wordpool_EN.txt	NEST	8	3	n/a	n/a	pyFR	0	UP019
456.744	2.575	493583	WORD	n/a	wordpools/wordpool_EN.txt	DESK	9	3	n/a	n/a	pyFR	0	UP019
459.319	2.493	494901	WORD	n/a	wordpools/wordpool_EN.txt	WOLF	10	3	n/a	n/a	pyFR	0	UP019
461.812	2.559	496178	WORD	n/a	wordpools/wordpool_EN.txt	BOMB	11	3	n/a	n/a	pyFR	0	UP019
464.371	2.475	497488	WORD	n/a	wordpools/wordpool_EN.txt	SPOON	12	3	n/a	n/a	pyFR	0	UP019
466.846	2.743	498755	WORD	n/a	wordpools/wordpool_EN.txt	SKY	13	3	n/a	n/a	pyFR	0	UP019
469.589	2.509	500160	WORD	n/a	wordpools/wordpool_EN.txt	DOOR	14	3	n/a	n/a	pyFR	0	UP019
472.098	1.624	501444	WORD	n/a	wordpools/wordpool_EN.txt	TREE	15	3	n/a	n/a	pyFR	0	UP019
473.722	1.069	502276	START	n/a	n/a	n/a	n/a	3	[-999 -999 -999]	-999	pyFR	0	UP019
474.791	4.399	502823	PROB	4.354	n/a	n/a	n/a	3	[3 7 5]	15	pyFR	0	UP019
479.19	3.747	505076	PROB	3.691	n/a	n/a	n/a	3	[3 8 5]	16	pyFR	0	UP019
482.937	3.813	506994	PROB	3.759	n/a	n/a	n/a	3	[6 9 9]	24	pyFR	0	UP019
486.75	4.182	508947	PROB	4.131	n/a	n/a	n/a	3	[9 8 5]	22	pyFR	0	UP019
490.932	2.325	511088	PROB	2.277	n/a	n/a	n/a	3	[2 3 8]	13	pyFR	0	UP019
493.257	3.136	512278	PROB	3.136	n/a	n/a	n/a	3	[2 1 8]	11	pyFR	0	UP019
496.393	1.148	513884	STOP	n/a	n/a	n/a	n/a	3	[-999 -999 -999]	-999	pyFR	0	UP019
497.541	1.135	514472	REC_START	n/a	n/a	n/a	-999	-999	n/a	n/a	pyFR	0	UP019
498.676	5.743	515053	REC_WORD	1.135	n/a	CLOWN	-999	3	n/a	n/a	pyFR	0	UP019
504.419	1.228	517994	REC_WORD	6.878	n/a	SMILE	-999	3	n/a	n/a	pyFR	0	UP019
505.647	8.368	518623	REC_WORD	8.106	n/a	SLUSH	-999	3	n/a	n/a	pyFR	0	UP019
514.015	5.819	522908	REC_WORD	16.474	n/a	CRUSH	-999	3	n/a	n/a	pyFR	0	UP019
519.834	7.688	525887	REC_WORD	22.293	n/a	CLIFF	-999	3	n/a	n/a	pyFR	0	UP019
527.522	33.644	529824	REC_WORD	29.981	n/a	GLOBE	-999	3	n/a	n/a	pyFR	0	UP019
561.166	0.016	547051	TRIAL	n/a	n/a	n/a	-999	-999	n/a	n/a	pyFR	0	UP019
561.182	2.76	547059	ORIENT	n/a	n/a	n/a	-999	-999	n/a	n/a	pyFR	0	UP019
563.942	2.777	548472	WORD	n/a	wordpools/wordpool_EN.txt	BEAR	1	4	n/a	n/a	pyFR	0	UP019
566.719	2.425	549894	WORD	n/a	wordpools/wordpool_EN.txt	ARK	2	4	n/a	n/a	pyFR	0	UP019
569.144	2.676	551136	WORD	n/a	wordpools/wordpool_EN.txt	APE	3	4	n/a	n/a	pyFR	0	UP019
571.82	2.459	552506	WORD	n/a	wordpools/wordpool_EN.txt	HORN	4	4	n/a	n/a	pyFR	0	UP019
574.279	2.676	553765	WORD	n/a	wordpools/wordpool_EN.txt	SPARK	5	4	n/a	n/a	pyFR	0	UP019
576.955	2.527	555136	WORD	n/a	wordpools/wordpool_EN.txt	JAR	6	4	n/a	n/a	pyFR	0	UP019
579.482	2.508	556430	WORD	n/a	wordpools/wordpool_EN.txt	MOLE	7	4	n/a	n/a	pyFR	0	UP019
581.99	2.543	557714	WORD	n/a	wordpools/wordpool_EN.txt	DRUM	8	4	n/a	n/a	pyFR	0	UP019
584.533	2.575	559016	WORD	n/a	wordpools/wordpool_EN.txt	SEED	9	4	n/a	n/a	pyFR	0	UP019
587.108	2.526	560334	WORD	n/a	wordpools/wordpool_EN.txt	WORM	10	4	n/a	n/a	pyFR	0	UP019
589.634	2.592	561628	WORD	n/a	wordpools/wordpool_EN.txt	FOG	11	4	n/a	n/a	pyFR	0	UP019
592.226	2.643	562955	WORD	n/a	wordpools/wordpool_EN.txt	SOAP	12	4	n/a	n/a	pyFR	0	UP019
594.869	2.644	564308	WORD	n/a	wordpools/wordpool_EN.txt	MAZE	13	4	n/a	n/a	pyFR	0	UP019
597.513	2.708	565662	WORD	n/a	wordpools/wordpool_EN.txt	OWL	14	4	n/a	n/a	pyFR	0	UP019
600.221	1.608	567049	WORD	n/a	wordpools/wordpool_EN.txt	BREAD	15	4	n/a	n/a	pyFR	0	UP019
601.829	1.102	567872	START	n/a	n/a	n/a	n/a	4	[-999 -999 -999]	-999	pyFR	0	UP019
602.931	3.395	568436	PROB	3.338	n/a	n/a	n/a	4	[4 4 1]	9	pyFR	0	UP019
606.326	2.176	570174	PROB	2.119	n/a	n/a	n/a	4	[8 2 6]	16	pyFR	0	UP019
608.502	3.981	571289	PROB	3.935	n/a	n/a	n/a	4	[8 4 2]	14	pyFR	0	UP019
612.483	3.16	573327	PROB	3.114	n/a	n/a	n/a	4	[1 5 2]	8	pyFR	0	UP019
615.643	2.542	574945	PROB	2.498	n/a	n/a	n/a	4	[9 5 9]	23	pyFR	0	UP019
618.185	2.493	576247	PROB	2.452	n/a	n/a	n/a	4	[6 1 9]	16	pyFR	0	UP019
620.678	1.856	577523	PROB	1.856	n/a	n/a	n/a	4	[3 2 6]	11	pyFR	0	UP019
622.534	1.222	578474	STOP	n/a	n/a	n/a	n/a	4	[-999 -999 -999]	-999	pyFR	0	UP019
623.756	1.144	579100	REC_START	n/a	n/a	n/a	-999	-999	n/a	n/a	pyFR	0	UP019
624.9	0.391	579686	REC_WORD	1.144	n/a	<>	-999	4	n/a	n/a	pyFR	0	UP019
625.291	0.765	579886	REC_WORD	1.535	n/a	BEAR	-999	4	n/a	n/a	pyFR	0	UP019
626.056	1.471	580277	REC_WORD	2.3	n/a	ARK	-999	4	n/a	n/a	pyFR	0	UP019
627.527	2.104	581031	REC_WORD	3.771	n/a	APE	-999	4	n/a	n/a	pyFR	0	UP019
629.631	3.755	582108	REC_WORD	5.875	n/a	JAR	-999	4	n/a	n/a	pyFR	0	UP019
633.386	2.585	584031	REC_WORD	9.63	n/a	ROOF	-999	4	n/a	n/a	pyFR	0	UP019
635.971	4.517	585354	REC_WORD	12.215	n/a	BOAT	-999	4	n/a	n/a	pyFR	0	UP019
640.488	8.494	587667	REC_WORD	16.732	n/a	OAR	-999	4	n/a	n/a	pyFR	0	UP019
648.982	17.832	592017	REC_WORD	25.226	n/a	CRATE	-999	4	n/a	n/a	pyFR	0	UP019
666.814	19.883	601147	REC_WORD	43.058	n/a	WORM	-999	4	n/a	n/a	pyFR	0	UP019
686.697	0.016	611328	TRIAL	n/a	n/a	n/a	-999	-999	n/a	n/a	pyFR	0	UP019
686.713	2.893	611336	ORIENT	n/a	n/a	n/a	-999	-999	n/a	n/a	pyFR	0	UP019
689.606	2.643	612818	WORD	n/a	wordpools/wordpool_EN.txt	CHEEK	1	5	n/a	n/a	pyFR	0	UP019
692.249	2.71	614171	WORD	n/a	wordpools/wordpool_EN.txt	MUG	2	5	n/a	n/a	pyFR	0	UP019
694.959	2.526	615559	WORD	n/a	wordpools/wordpool_EN.txt	BAG	3	5	n/a	n/a	pyFR	0	UP019
697.485	2.609	616852	WORD	n/a	wordpools/wordpool_EN.txt	STEM	4	5	n/a	n/a	pyFR	0	UP019
700.094	2.492	618188	WORD	n/a	wordpools/wordpool_EN.txt	FROG	5	5	n/a	n/a	pyFR	0	UP019
702.586	2.709	619464	WORD	n/a	wordpools/wordpool_EN.txt	RICE	6	5	n/a	n/a	pyFR	0	UP019
705.295	2.811	620851	WORD	n/a	wordpools/wordpool_EN.txt	CAT	7	5	n/a	n/a	pyFR	0	UP019
708.106	2.542	622291	WORD	n/a	wordpools/wordpool_EN.txt	STRAW	8	5	n/a	n/a	pyFR	0	UP019
710.648	2.743	623592	WORD	n/a	wordpools/wordpool_EN.txt	GLASS	9	5	n/a	n/a	pyFR	0	UP019
713.391	2.693	624997	WORD	n/a	wordpools/wordpool_EN.txt	BEACH	10	5	n/a	n/a	pyFR	0	UP019
716.084	2.476	626376	WORD	n/a	wordpools/wordpool_EN.txt	LAKE	11	5	n/a	n/a	pyFR	0	UP019
718.56	2.676	627643	WORD	n/a	wordpools/wordpool_EN.txt	SUIT	12	5	n/a	n/a	pyFR	0	UP019
721.236	2.425	629014	WORD	n/a	wordpools/wordpool_EN.txt	VASE	13	5	n/a	n/a	pyFR	0	UP019
723.661	2.726	630255	WORD	n/a	wordpools/wordpool_EN.txt	BAND	14	5	n/a	n/a	pyFR	0	UP019
726.387	1.608	631651	WORD	n/a	wordpools/wordpool_EN.txt	TOE	15	5	n/a	n/a	pyFR	0	UP019
727.995	0.834	632474	START	n/a	n/a	n/a	n/a	5	[-999 -999 -999]	-999	pyFR	0	UP019
728.829	2.861	632901	PROB	2.808	n/a	n/a	n/a	5	[8 3 6]	17	pyFR	0	UP019
731.69	2.542	634366	PROB	2.499	n/a	n/a	n/a	5	[4 4 6]	14	pyFR	0	UP019
734.232	3.379	635668	PROB	3.326	n/a	n/a	n/a	5	[2 2 3]	7	pyFR	0	UP019
737.611	3.746	637398	PROB	3.698	n/a	n/a	n/a	5	[7 6 7]	20	pyFR	0	UP019
741.357	3.412	639316	PROB	3.368	n/a	n/a	n/a	5	[7 5 2]	14	pyFR	0	UP019
744.769	2.877	641063	PROB	2.836	n/a	n/a	n/a	5	[5 3 3]	11	pyFR	0	UP019
747.646	1.872	642536	PROB	1.872	n/a	n/a	n/a	5	[3 1 7]	11	pyFR	0	UP019
749.518	1.073	643495	STOP	n/a	n/a	n/a	n/a	5	[-999 -999 -999]	-999	pyFR	0	UP019
750.591	1.042	644045	REC_START	n/a	n/a	n/a	-999	-999	n/a	n/a	pyFR	0	UP019
751.633	0.785	644578	REC_WORD	1.042	n/a	<>	-999	5	n/a	n/a	pyFR	0	UP019
752.418	1.992	644980	REC_WORD	1.827	n/a	MUG	-999	5	n/a	n/a	pyFR	0	UP019
754.41	2.316	646000	REC_WORD	3.819	n/a	FACE	-999	5	n/a	n/a	pyFR	0	UP019
756.726	19.034	647186	REC_WORD	6.135	n/a	TOE	-999	5	n/a	n/a	pyFR	0	UP019
775.76	2.774	656932	REC_WORD	25.169	n/a	VASE	-999	5	n/a	n/a	pyFR	0	UP019
778.534	1.534	658353	REC_WORD	27.943	n/a	STEM	-999	5	n/a	n/a	pyFR	0	UP019
780.068	20.116	659138	REC_WORD	29.477	n/a	STRAW	-999	5	n/a	n/a	pyFR	0	UP019
800.184	0.016	669438	TRIAL	n/a	n/a	n/a	-999	-999	n/a	n/a	pyFR	0	UP019
800.2	2.71	669447	ORIENT	n/a	n/a	n/a	-999	-999	n/a	n/a	pyFR	0	UP019
802.91	2.776	670834	WORD	n/a	wordpools/wordpool_EN.txt	OAR	1	6	n/a	n/a	pyFR	0	UP019
805.686	2.526	672256	WORD	n/a	wordpools/wordpool_EN.txt	BARN	2	6	n/a	n/a	pyFR	0	UP019
808.212	2.526	673549	WORD	n/a	wordpools/wordpool_EN.txt	THREAD	3	6	n/a	n/a	pyFR	0	UP019
810.738	2.592	674843	WORD	n/a	wordpools/wordpool_EN.txt	INK	4	6	n/a	n/a	pyFR	0	UP019
813.33	2.426	676170	WORD	n/a	wordpools/wordpool_EN.txt	CAKE	5	6	n/a	n/a	pyFR	0	UP019
815.756	2.642	677412	WORD	n/a	wordpools/wordpool_EN.txt	STOVE	6	6	n/a	n/a	pyFR	0	UP019
818.398	2.727	678765	WORD	n/a	wordpools/wordpool_EN.txt	PEACH	7	6	n/a	n/a	pyFR	0	UP019
821.125	2.559	680161	WORD	n/a	wordpools/wordpool_EN.txt	ZOO	8	6	n/a	n/a	pyFR	0	UP019
823.684	2.609	681471	WORD	n/a	wordpools/wordpool_EN.txt	BENCH	9	6	n/a	n/a	pyFR	0	UP019
826.293	2.777	682807	WORD	n/a	wordpools/wordpool_EN.txt	PASTE	10	6	n/a	n/a	pyFR	0	UP019
829.07	2.559	684229	WORD	n/a	wordpools/wordpool_EN.txt	PIE	11	6	n/a	n/a	pyFR	0	UP019
831.629	2.81	685540	WORD	n/a	wordpools/wordpool_EN.txt	MOTH	12	6	n/a	n/a	pyFR	0	UP019
834.439	2.442	686978	WORD	n/a	wordpools/wordpool_EN.txt	FLAG	13	6	n/a	n/a	pyFR	0	UP019
836.881	2.76	688229	WORD	n/a	wordpools/wordpool_EN.txt	HEART	14	6	n/a	n/a	pyFR	0	UP019
839.641	1.607	689642	WORD	n/a	wordpools/wordpool_EN.txt	DOLL	15	6	n/a	n/a	pyFR	0	UP019
841.248	0.935	690464	START	n/a	n/a	n/a	n/a	6	[-999 -999 -999]	-999	pyFR	0	UP019
842.183	4.215	690943	PROB	4.166	n/a	n/a	n/a	6	[1 8 7]	16	pyFR	0	UP019
846.398	2.66	693101	PROB	2.615	n/a	n/a	n/a	6	[6 6 9]	21	pyFR	0	UP019
849.058	5.854	694463	PROB	5.803	n/a	n/a	n/a	6	[1 4 3]	8	pyFR	0	UP019
854.912	1.59	697461	PROB	1.548	n/a	n/a	n/a	6	[1 4 4]	9	pyFR	0	UP019
856.502	2.876	698275	PROB	2.831	n/a	n/a	n/a	6	[1 9 4]	14	pyFR	0	UP019
859.378	2.53	699748	PROB	2.53	n/a	n/a	n/a	6	[8 2 8]	28	pyFR	0	UP019
861.908	1.234	701043	STOP	n/a	n/a	n/a	n/a	6	[-999 -999 -999]	-999	pyFR	0	UP019
863.142	0.976	701676	REC_START	n/a	n/a	n/a	-999	-999	n/a	n/a	pyFR	0	UP019
864.118	0.419	702175	REC_WORD	0.976	n/a	MOTH	-999	6	n/a	n/a	pyFR	0	UP019
864.537	2.642	702390	REC_WORD	1.395	n/a	FLAG	-999	6	n/a	n/a	pyFR	0	UP019
867.179	2.563	703743	REC_WORD	4.037	n/a	DOLL	-999	6	n/a	n/a	pyFR	0	UP019
869.742	0.637	705055	REC_WORD	6.6	n/a	DART	-999	6	n/a	n/a	pyFR	0	UP019
870.379	2.175	705381	REC_WORD	7.237	n/a	OATS	-999	6	n/a	n/a	pyFR	0	UP019
872.554	10.202	706495	REC_WORD	9.412	n/a	OAR	-999	6	n/a	n/a	pyFR	0	UP019
882.756	14.729	711719	REC_WORD	19.614	n/a	BARN	-999	6	n/a	n/a	pyFR	0	UP019
897.485	9.151	719261	REC_WORD	34.343	n/a	MAP	-999	6	n/a	n/a	pyFR	0	UP019
906.636	5.363	723946	REC_WORD	43.494	n/a	CAT	-999	6	n/a	n/a	pyFR	0	UP019
911.999	0.016	726692	TRIAL	n/a	n/a	n/a	-999	-999	n/a	n/a	pyFR	0	UP019
912.015	2.71	726701	ORIENT	n/a	n/a	n/a	-999	-999	n/a	n/a	pyFR	0	UP019
914.725	2.709	728088	WORD	n/a	wordpools/wordpool_EN.txt	JUDGE	1	7	n/a	n/a	pyFR	0	UP019
917.434	2.643	729475	WORD	n/a	wordpools/wordpool_EN.txt	CAR	2	7	n/a	n/a	pyFR	0	UP019
920.077	2.626	730829	WORD	n/a	wordpools/wordpool_EN.txt	SPEAR	3	7	n/a	n/a	pyFR	0	UP019
922.703	2.76	732173	WORD	n/a	wordpools/wordpool_EN.txt	ROOT	4	7	n/a	n/a	pyFR	0	UP019
925.463	2.609	733587	WORD	n/a	wordpools/wordpool_EN.txt	ROCK	5	7	n/a	n/a	pyFR	0	UP019
928.072	2.609	734923	WORD	n/a	wordpools/wordpool_EN.txt	SHELL	6	7	n/a	n/a	pyFR	0	UP019
930.681	2.71	736258	WORD	n/a	wordpools/wordpool_EN.txt	PALM	7	7	n/a	n/a	pyFR	0	UP019
933.391	2.509	737646	WORD	n/a	wordpools/wordpool_EN.txt	HORSE	8	7	n/a	n/a	pyFR	0	UP019
935.9	2.526	738931	WORD	n/a	wordpools/wordpool_EN.txt	PARK	9	7	n/a	n/a	pyFR	0	UP019
938.426	2.576	740224	WORD	n/a	wordpools/wordpool_EN.txt	FLUTE	10	7	n/a	n/a	pyFR	0	UP019
941.002	2.826	741543	WORD	n/a	wordpools/wordpool_EN.txt	FOOT	11	7	n/a	n/a	pyFR	0	UP019
943.828	2.643	742990	WORD	n/a	wordpools/wordpool_EN.txt	SAIL	12	7	n/a	n/a	pyFR	0	UP019
946.471	2.81	744344	WORD	n/a	wordpools/wordpool_EN.txt	SIGN	13	7	n/a	n/a	pyFR	0	UP019
949.281	2.526	745782	WORD	n/a	wordpools/wordpool_EN.txt	HOOK	14	7	n/a	n/a	pyFR	0	UP019
951.807	1.607	747076	WORD	n/a	wordpools/wordpool_EN.txt	CUBE	15	7	n/a	n/a	pyFR	0	UP019
953.414	0.918	747898	START	n/a	n/a	n/a	n/a	7	[-999 -999 -999]	-999	pyFR	0	UP019
954.332	3.078	748368	PROB	3.024	n/a	n/a	n/a	7	[3 5 3]	11	pyFR	0	UP019
957.41	1.84	749944	PROB	1.794	n/a	n/a	n/a	7	[1 7 7]	15	pyFR	0	UP019
959.25	2.459	750886	PROB	2.418	n/a	n/a	n/a	7	[2 2 4]	8	pyFR	0	UP019
961.709	2.977	752145	PROB	2.927	n/a	n/a	n/a	7	[3 9 8]	20	pyFR	0	UP019
964.686	2.927	753670	PROB	2.879	n/a	n/a	n/a	7	[4 6 7]	17	pyFR	0	UP019
967.613	1.99	755168	PROB	1.936	n/a	n/a	n/a	7	[5 6 1]	12	pyFR	0	UP019
969.603	2.844	756187	PROB	2.793	n/a	n/a	n/a	7	[7 7 6]	20	pyFR	0	UP019
972.447	2.565	757644	PROB	2.565	n/a	n/a	n/a	7	[4 3 2]	9	pyFR	0	UP019
975.012	1.182	758957	STOP	n/a	n/a	n/a	n/a	7	[-999 -999 -999]	-999	pyFR	0	UP019
976.194	1.181	759563	REC_START	n/a	n/a	n/a	-999	-999	n/a	n/a	pyFR	0	UP019
977.375	0.247	760168	REC_WORD	1.181	n/a	<>	-999	7	n/a	n/a	pyFR	0	UP019
977.622	0.271	760294	REC_WORD	1.428	n/a	JUMP	-999	7	n/a	n/a	pyFR	0	UP019
977.893	2.811	760433	REC_WORD	1.699	n/a	HEART	-999	7	n/a	n/a	pyFR	0	UP019
980.704	1.443	761872	REC_WORD	4.51	n/a	<>	-999	7	n/a	n/a	pyFR	0	UP019
982.147	0.539	762611	REC_WORD	5.953	n/a	FLUTE	-999	7	n/a	n/a	pyFR	0	UP019
982.686	8.681	762887	REC_WORD	6.492	n/a	FLOW	-999	7	n/a	n/a	pyFR	0	UP019
991.367	5.794	767332	REC_WORD	15.173	n/a	STACK	-999	7	n/a	n/a	pyFR	0	UP019
997.161	0.7	770299	REC_WORD	20.967	n/a	TAKE	-999	7	n/a	n/a	pyFR	0	UP019
997.861	13.737	770657	REC_WORD	21.667	n/a	FLASH	-999	7	n/a	n/a	pyFR	0	UP019
1011.598	573.549	777691	REC_WORD	35.404	n/a	MOON	-999	7	n/a	n/a	pyFR	0	UP019
1585.147	0.016	1071373	TRIAL	n/a	n/a	n/a	-999	-999	n/a	n/a	pyFR	0	UP019
1585.163	2.826	1071381	ORIENT	n/a	n/a	n/a	-999	-999	n/a	n/a	pyFR	0	UP019
1587.989	2.743	1072828	WORD	n/a	wordpools/wordpool_EN.txt	GOAT	1	8	n/a	n/a	pyFR	0	UP019
1590.732	2.795	1074233	WORD	n/a	wordpools/wordpool_EN.txt	STOOL	2	8	n/a	n/a	pyFR	0	UP019
1593.527	2.742	1075664	WORD	n/a	wordpools/wordpool_EN.txt	SHIP	3	8	n/a	n/a	pyFR	0	UP019
1596.269	2.776	1077068	WORD	n/a	wordpools/wordpool_EN.txt	CRANE	4	8	n/a	n/a	pyFR	0	UP019
1599.045	2.477	1078489	WORD	n/a	wordpools/wordpool_EN.txt	FORK	5	8	n/a	n/a	pyFR	0	UP019
1601.522	2.642	1079758	WORD	n/a	wordpools/wordpool_EN.txt	HAWK	6	8	n/a	n/a	pyFR	0	UP019
1604.164	2.743	1081111	WORD	n/a	wordpools/wordpool_EN.txt	BOY	7	8	n/a	n/a	pyFR	0	UP019
1606.907	2.693	1082515	WORD	n/a	wordpools/wordpool_EN.txt	SOCK	8	8	n/a	n/a	pyFR	0	UP019
1609.6	2.759	1083894	WORD	n/a	wordpools/wordpool_EN.txt	SHIRT	9	8	n/a	n/a	pyFR	0	UP019
1612.359	2.56	1085307	WORD	n/a	wordpools/wordpool_EN.txt	BED	10	8	n/a	n/a	pyFR	0	UP019
1614.919	2.693	1086618	WORD	n/a	wordpools/wordpool_EN.txt	HAT	11	8	n/a	n/a	pyFR	0	UP019
1617.612	2.81	1087996	WORD	n/a	wordpools/wordpool_EN.txt	SALT	12	8	n/a	n/a	pyFR	0	UP019
1620.422	2.626	1089435	WORD	n/a	wordpools/wordpool_EN.txt	JEEP	13	8	n/a	n/a	pyFR	0	UP019
1623.048	2.425	1090780	WORD	n/a	wordpools/wordpool_EN.txt	RUG	14	8	n/a	n/a	pyFR	0	UP019
1625.473	1.608	1092022	WORD	n/a	wordpools/wordpool_EN.txt	FOOD	15	8	n/a	n/a	pyFR	0	UP019
1627.081	1.202	1092844	START	n/a	n/a	n/a	n/a	8	[-999 -999 -999]	-999	pyFR	0	UP019
1628.283	4.332	1093459	PROB	4.283	n/a	n/a	n/a	8	[5 5 8]	18	pyFR	0	UP019
1632.615	2.827	1095677	PROB	2.774	n/a	n/a	n/a	8	[2 3 4]	9	pyFR	0	UP019
1635.442	3.646	1097125	PROB	3.603	n/a	n/a	n/a	8	[8 3 7]	18	pyFR	0	UP019
1639.088	3.245	1098992	PROB	3.189	n/a	n/a	n/a	8	[2 4 7]	13	pyFR	0	UP019
1642.333	2.325	1100653	PROB	2.272	n/a	n/a	n/a	8	[6 7 5]	18	pyFR	0	UP019
1644.658	2.779	1101844	PROB	2.779	n/a	n/a	n/a	8	[2 3 5]	10	pyFR	0	UP019
1647.437	1.153	1103267	STOP	n/a	n/a	n/a	n/a	8	[-999 -999 -999]	-999	pyFR	0	UP019
1648.59	0.93	1103859	REC_START	n/a	n/a	n/a	-999	-999	n/a	n/a	pyFR	0	UP019
1649.52	0.39	1104335	REC_WORD	0.93	n/a	<>	-999	8	n/a	n/a	pyFR	0	UP019
1649.91	1.2	1104534	REC_WORD	1.32	n/a	GOAT	-999	8	n/a	n/a	pyFR	0	UP019
1651.11	0.459	1105149	REC_WORD	2.52	n/a	SHOE	-999	8	n/a	n/a	pyFR	0	UP019
1651.569	2.057	1105384	REC_WORD	2.979	n/a	SHIP	-999	8	n/a	n/a	pyFR	0	UP019
1653.626	2.638	1106437	REC_WORD	5.036	n/a	<>	-999	8	n/a	n/a	pyFR	0	UP019
1656.264	0.511	1107788	REC_WORD	7.674	n/a	<>	-999	8	n/a	n/a	pyFR	0	UP019
1656.775	1.114	1108050	REC_WORD	8.185	n/a	CRANE	-999	8	n/a	n/a	pyFR	0	UP019
1657.889	3.289	1108620	REC_WORD	9.299	n/a	BOAT	-999	8	n/a	n/a	pyFR	0	UP019
1661.178	1.13	1110304	REC_WORD	12.588	n/a	HAT	-999	8	n/a	n/a	pyFR	0	UP019
1662.308	4.983	1110883	REC_WORD	13.718	n/a	SNACK	-999	8	n/a	n/a	pyFR	0	UP019
1667.291	1.151	1113434	REC_WORD	18.701	n/a	<>	-999	8	n/a	n/a	pyFR	0	UP019
1668.442	6.179	1114024	REC_WORD	19.852	n/a	CRANE	-999	8	n/a	n/a	pyFR	0	UP019
1674.621	7.76	1117187	REC_WORD	26.031	n/a	SHOE	-999	8	n/a	n/a	pyFR	0	UP019
1682.381	14.346	1121161	REC_WORD	33.791	n/a	CRACK	-999	8	n/a	n/a	pyFR	0	UP019
1696.727	0.016	1128507	TRIAL	n/a	n/a	n/a	-999	-999	n/a	n/a	pyFR	0	UP019
1696.743	2.927	1128515	ORIENT	n/a	n/a	n/a	-999	-999	n/a	n/a	pyFR	0	UP019
1699.67	2.794	1130014	WORD	n/a	wordpools/wordpool_EN.txt	DEER	1	9	n/a	n/a	pyFR	0	UP019
1702.464	2.626	1131444	WORD	n/a	wordpools/wordpool_EN.txt	BRIDGE	2	9	n/a	n/a	pyFR	0	UP019
1705.09	2.743	1132789	WORD	n/a	wordpools/wordpool_EN.txt	FISH	3	9	n/a	n/a	pyFR	0	UP019
1707.833	2.66	1134193	WORD	n/a	wordpools/wordpool_EN.txt	STONE	4	9	n/a	n/a	pyFR	0	UP019
1710.493	2.743	1135555	WORD	n/a	wordpools/wordpool_EN.txt	MAIL	5	9	n/a	n/a	pyFR	0	UP019
1713.236	2.743	1136960	WORD	n/a	wordpools/wordpool_EN.txt	STRING	6	9	n/a	n/a	pyFR	0	UP019
1715.979	2.642	1138365	WORD	n/a	wordpools/wordpool_EN.txt	LEG	7	9	n/a	n/a	pyFR	0	UP019
1718.621	2.777	1139717	WORD	n/a	wordpools/wordpool_EN.txt	SHOE	8	9	n/a	n/a	pyFR	0	UP019
1721.398	2.726	1141139	WORD	n/a	wordpools/wordpool_EN.txt	SEAT	9	9	n/a	n/a	pyFR	0	UP019
1724.124	2.727	1142535	WORD	n/a	wordpools/wordpool_EN.txt	WAND	10	9	n/a	n/a	pyFR	0	UP019
1726.851	2.442	1143931	WORD	n/a	wordpools/wordpool_EN.txt	BRUSH	11	9	n/a	n/a	pyFR	0	UP019
1729.293	2.475	1145182	WORD	n/a	wordpools/wordpool_EN.txt	PEN	12	9	n/a	n/a	pyFR	0	UP019
1731.768	2.761	1146449	WORD	n/a	wordpools/wordpool_EN.txt	CAVE	13	9	n/a	n/a	pyFR	0	UP019
1734.529	2.776	1147863	WORD	n/a	wordpools/wordpool_EN.txt	CAGE	14	9	n/a	n/a	pyFR	0	UP019
1737.305	1.607	1149284	WORD	n/a	wordpools/wordpool_EN.txt	POND	15	9	n/a	n/a	pyFR	0	UP019
1738.912	1.186	1150106	START	n/a	n/a	n/a	n/a	9	[-999 -999 -999]	-999	pyFR	0	UP019
1740.098	6.356	1150713	PROB	6.304	n/a	n/a	n/a	9	[9 2 3]	14	pyFR	0	UP019
1746.454	2.092	1153967	PROB	2.045	n/a	n/a	n/a	9	[1 6 7]	14	pyFR	0	UP019
1748.546	3.812	1155039	PROB	3.768	n/a	n/a	n/a	9	[3 1 6]	10	pyFR	0	UP019
1752.358	2.526	1156991	PROB	2.476	n/a	n/a	n/a	9	[8 9 1]	18	pyFR	0	UP019
1754.884	2.258	1158284	PROB	2.206	n/a	n/a	n/a	9	[1 6 4]	11	pyFR	0	UP019
1757.142	3.748	1159440	PROB	3.748	n/a	n/a	n/a	9	[6 3 8]	17	pyFR	0	UP019
1760.89	1.154	1161359	STOP	n/a	n/a	n/a	n/a	9	[-999 -999 -999]	-999	pyFR	0	UP019
1762.044	2.319	1161952	REC_START	n/a	n/a	n/a	-999	-999	n/a	n/a	pyFR	0	UP019
1764.363	2.361	1163139	REC_WORD	2.319	n/a	<>	-999	9	n/a	n/a	pyFR	0	UP019
1766.724	0.215	1164348	REC_WORD	4.68	n/a	<>	-999	9	n/a	n/a	pyFR	0	UP019
1766.939	0.771	1164458	REC_WORD	4.895	n/a	SEAT	-999	9	n/a	n/a	pyFR	0	UP019
1767.71	0.667	1164853	REC_WORD	5.666	n/a	LEG	-999	9	n/a	n/a	pyFR	0	UP019
1768.377	2.422	1165195	REC_WORD	6.333	n/a	SHOE	-999	9	n/a	n/a	pyFR	0	UP019
1770.799	0.322	1166435	REC_WORD	8.755	n/a	WAVE	-999	9	n/a	n/a	pyFR	0	UP019
1771.121	2.464	1166600	REC_WORD	9.077	n/a	SHAPE	-999	9	n/a	n/a	pyFR	0	UP019
1773.585	9.867	1167861	REC_WORD	11.541	n/a	CAVE	-999	9	n/a	n/a	pyFR	0	UP019
1783.452	31.145	1172914	REC_WORD	21.408	n/a	CROW	-999	9	n/a	n/a	pyFR	0	UP019
1814.597	0.016	1188861	TRIAL	n/a	n/a	n/a	-999	-999	n/a	n/a	pyFR	0	UP019
1814.613	2.693	1188869	ORIENT	n/a	n/a	n/a	-999	-999	n/a	n/a	pyFR	0	UP019
1817.306	2.526	1190248	WORD	n/a	wordpools/wordpool_EN.txt	GRASS	1	10	n/a	n/a	pyFR	0	UP019
1819.832	2.492	1191542	WORD	n/a	wordpools/wordpool_EN.txt	WEED	2	10	n/a	n/a	pyFR	0	UP019
1822.324	2.626	1192818	WORD	n/a	wordpools/wordpool_EN.txt	MOUTH	3	10	n/a	n/a	pyFR	0	UP019
1824.95	2.492	1194162	WORD	n/a	wordpools/wordpool_EN.txt	BELL	4	10	n/a	n/a	pyFR	0	UP019
1827.442	2.777	1195438	WORD	n/a	wordpools/wordpool_EN.txt	TEA	5	10	n/a	n/a	pyFR	0	UP019
1830.219	2.442	1196860	WORD	n/a	wordpools/wordpool_EN.txt	TIE	6	10	n/a	n/a	pyFR	0	UP019
1832.661	2.693	1198111	WORD	n/a	wordpools/wordpool_EN.txt	DRESS	7	10	n/a	n/a	pyFR	0	UP019
1835.354	2.81	1199490	WORD	n/a	wordpools/wordpool_EN.txt	JET	8	10	n/a	n/a	pyFR	0	UP019
1838.164	2.626	1200928	WORD	n/a	wordpools/wordpool_EN.txt	DOCK	9	10	n/a	n/a	pyFR	0	UP019
1840.79	2.643	1202273	WORD	n/a	wordpools/wordpool_EN.txt	LOCK	10	10	n/a	n/a	pyFR	0	UP019
1843.433	2.475	1203626	WORD	n/a	wordpools/wordpool_EN.txt	STEAK	11	10	n/a	n/a	pyFR	0	UP019
1845.908	2.676	1204894	WORD	n/a	wordpools/wordpool_EN.txt	SWORD	12	10	n/a	n/a	pyFR	0	UP019
1848.584	2.76	1206264	WORD	n/a	wordpools/wordpool_EN.txt	HOUSE	13	10	n/a	n/a	pyFR	0	UP019
1851.344	2.726	1207677	WORD	n/a	wordpools/wordpool_EN.txt	CARD	14	10	n/a	n/a	pyFR	0	UP019
1854.07	1.608	1209073	WORD	n/a	wordpools/wordpool_EN.txt	HILL	15	10	n/a	n/a	pyFR	0	UP019
1855.678	0.935	1209895	START	n/a	n/a	n/a	n/a	10	[-999 -999 -999]	-999	pyFR	0	UP019
1856.613	5.152	1210373	PROB	5.099	n/a	n/a	n/a	10	[3 9 6]	18	pyFR	0	UP019
1861.765	3.244	1213011	PROB	3.195	n/a	n/a	n/a	10	[1 8 5]	14	pyFR	0	UP019
1865.009	14.367	1214673	PROB	14.367	n/a	n/a	n/a	10	[9 7 9]	25	pyFR	0	UP019
1879.376	1.124	1222029	STOP	n/a	n/a	n/a	n/a	10	[-999 -999 -999]	-999	pyFR	0	UP019
1880.5	2.348	1222606	REC_START	n/a	n/a	n/a	-999	-999	n/a	n/a	pyFR	0	UP019
1882.848	0.373	1223809	REC_WORD	2.348	n/a	<>	-999	10	n/a	n/a	pyFR	0	UP019
1883.221	0.37	1224000	REC_WORD	2.721	n/a	GRASS	-999	10	n/a	n/a	pyFR	0	UP019
1883.591	0.754	1224189	REC_WORD	3.091	n/a	WEED	-999	10	n/a	n/a	pyFR	0	UP019
1884.345	2.628	1224575	REC_WORD	3.845	n/a	HOUSE	-999	10	n/a	n/a	pyFR	0	UP019
1886.973	2.142	1225921	REC_WORD	6.473	n/a	<>	-999	10	n/a	n/a	pyFR	0	UP019
1889.115	2.513	1227018	REC_WORD	8.615	n/a	<>	-999	10	n/a	n/a	pyFR	0	UP019
1891.628	2.346	1228304	REC_WORD	11.128	n/a	SHORE	-999	10	n/a	n/a	pyFR	0	UP019
1893.974	5.173	1229506	REC_WORD	13.474	n/a	LIMP	-999	10	n/a	n/a	pyFR	0	UP019
1899.147	17.127	1232154	REC_WORD	18.647	n/a	STOVE	-999	10	n/a	n/a	pyFR	0	UP019
1916.274	13.751	1240924	REC_WORD	35.774	n/a	FORK	-999	10	n/a	n/a	pyFR	0	UP019
1930.025	0.016	1247965	TRIAL	n/a	n/a	n/a	-999	-999	n/a	n/a	pyFR	0	UP019
1930.041	2.693	1247973	ORIENT	n/a	n/a	n/a	-999	-999	n/a	n/a	pyFR	0	UP019
1932.734	2.475	1249352	WORD	n/a	wordpools/wordpool_EN.txt	TOAD	1	11	n/a	n/a	pyFR	0	UP019
1935.209	2.61	1250620	WORD	n/a	wordpools/wordpool_EN.txt	SCHOOL	2	11	n/a	n/a	pyFR	0	UP019
1937.819	2.626	1251956	WORD	n/a	wordpools/wordpool_EN.txt	STEAM	3	11	n/a	n/a	pyFR	0	UP019
1940.445	2.559	1253301	WORD	n/a	wordpools/wordpool_EN.txt	NET	4	11	n/a	n/a	pyFR	0	UP019
1943.004	2.76	1254611	WORD	n/a	wordpools/wordpool_EN.txt	DOG	5	11	n/a	n/a	pyFR	0	UP019
1945.764	2.709	1256024	WORD	n/a	wordpools/wordpool_EN.txt	HOLE	6	11	n/a	n/a	pyFR	0	UP019
1948.473	2.61	1257411	WORD	n/a	wordpools/wordpool_EN.txt	EAR	7	11	n/a	n/a	pyFR	0	UP019
1951.083	2.626	1258748	WORD	n/a	wordpools/wordpool_EN.txt	OAK	8	11	n/a	n/a	pyFR	0	UP019
1953.709	2.726	1260092	WORD	n/a	wordpools/wordpool_EN.txt	FLAME	9	11	n/a	n/a	pyFR	0	UP019
1956.435	2.777	1261488	WORD	n/a	wordpools/wordpool_EN.txt	PLANT	10	11	n/a	n/a	pyFR	0	UP019
1959.212	2.626	1262910	WORD	n/a	wordpools/wordpool_EN.txt	BIRD	11	11	n/a	n/a	pyFR	0	UP019
1961.838	2.626	1264255	WORD	n/a	wordpools/wordpool_EN.txt	THUMB	12	11	n/a	n/a	pyFR	0	UP019
1964.464	2.542	1265599	WORD	n/a	wordpools/wordpool_EN.txt	EEL	13	11	n/a	n/a	pyFR	0	UP019
1967.006	2.459	1266901	WORD	n/a	wordpools/wordpool_EN.txt	CHIN	14	11	n/a	n/a	pyFR	0	UP019
1969.465	1.607	1268160	WORD	n/a	wordpools/wordpool_EN.txt	CLOUD	15	11	n/a	n/a	pyFR	0	UP019
1971.072	0.985	1268981	START	n/a	n/a	n/a	n/a	11	[-999 -999 -999]	-999	pyFR	0	UP019
1972.057	3.061	1269486	PROB	3.017	n/a	n/a	n/a	11	[4 8 5]	17	pyFR	0	UP019
1975.118	2.626	1271053	PROB	2.58	n/a	n/a	n/a	11	[5 5 4]	14	pyFR	0	UP019
1977.744	3.028	1272398	PROB	2.978	n/a	n/a	n/a	11	[1 2 4]	7	pyFR	0	UP019
1980.772	3.01	1273948	PROB	2.958	n/a	n/a	n/a	11	[5 5 9]	19	pyFR	0	UP019
1983.782	9.164	1275489	PROB	9.164	n/a	n/a	n/a	11	[4 9 7]	20	pyFR	0	UP019
1992.946	1.207	1280182	STOP	n/a	n/a	n/a	n/a	11	[-999 -999 -999]	-999	pyFR	0	UP019
1994.153	0.74	1280802	REC_START	n/a	n/a	n/a	-999	-999	n/a	n/a	pyFR	0	UP019
1994.893	0.412	1281180	REC_WORD	0.74	n/a	<>	-999	11	n/a	n/a	pyFR	0	UP019
1995.305	0.37	1281391	REC_WORD	1.152	n/a	EEL	-999	11	n/a	n/a	pyFR	0	UP019
1995.675	0.399	1281581	REC_WORD	1.522	n/a	CHIN	-999	11	n/a	n/a	pyFR	0	UP019
1996.074	3.562	1281785	REC_WORD	1.921	n/a	CLOUD	-999	11	n/a	n/a	pyFR	0	UP019
1999.636	1.812	1283609	REC_WORD	5.483	n/a	SCHOOL	-999	11	n/a	n/a	pyFR	0	UP019
2001.448	1.614	1284537	REC_WORD	7.295	n/a	STROKE	-999	11	n/a	n/a	pyFR	0	UP019
2003.062	6.246	1285363	REC_WORD	8.909	n/a	HILL	-999	11	n/a	n/a	pyFR	0	UP019
2009.308	2.826	1288562	REC_WORD	15.155	n/a	FEEL	-999	11	n/a	n/a	pyFR	0	UP019
2012.134	7.7	1290009	REC_WORD	17.981	n/a	HOLE	-999	11	n/a	n/a	pyFR	0	UP019
2019.834	17.322	1293951	REC_WORD	25.681	n/a	SEAT	-999	11	n/a	n/a	pyFR	0	UP019
2037.156	4.634	1302821	REC_WORD	43.003	n/a	HAND	-999	11	n/a	n/a	pyFR	0	UP019
2041.79	0.016	1305194	TRIAL	n/a	n/a	n/a	-999	-999	n/a	n/a	pyFR	0	UP019
2041.806	2.793	1305202	ORIENT	n/a	n/a	n/a	-999	-999	n/a	n/a	pyFR	0	UP019
2044.599	2.66	1306632	WORD	n/a	wordpools/wordpool_EN.txt	ICE	1	12	n/a	n/a	pyFR	0	UP019
2047.259	2.692	1307994	WORD	n/a	wordpools/wordpool_EN.txt	PIG	2	12	n/a	n/a	pyFR	0	UP019
2049.951	2.426	1309372	WORD	n/a	wordpools/wordpool_EN.txt	MAT	3	12	n/a	n/a	pyFR	0	UP019
2052.377	2.793	1310615	WORD	n/a	wordpools/wordpool_EN.txt	SHEET	4	12	n/a	n/a	pyFR	0	UP019
2055.17	2.76	1312045	WORD	n/a	wordpools/wordpool_EN.txt	BOOT	5	12	n/a	n/a	pyFR	0	UP019
2057.93	2.81	1313458	WORD	n/a	wordpools/wordpool_EN.txt	SNAIL	6	12	n/a	n/a	pyFR	0	UP019
2060.74	2.475	1314897	WORD	n/a	wordpools/wordpool_EN.txt	GRAPE	7	12	n/a	n/a	pyFR	0	UP019
2063.215	2.743	1316164	WORD	n/a	wordpools/wordpool_EN.txt	BOOK	8	12	n/a	n/a	pyFR	0	UP019
2065.958	2.509	1317569	WORD	n/a	wordpools/wordpool_EN.txt	GIRL	9	12	n/a	n/a	pyFR	0	UP019
2068.467	2.459	1318853	WORD	n/a	wordpools/wordpool_EN.txt	TRASH	10	12	n/a	n/a	pyFR	0	UP019
2070.926	2.676	1320113	WORD	n/a	wordpools/wordpool_EN.txt	BANK	11	12	n/a	n/a	pyFR	0	UP019
2073.602	2.693	1321483	WORD	n/a	wordpools/wordpool_EN.txt	STAR	12	12	n/a	n/a	pyFR	0	UP019
2076.295	2.509	1322862	WORD	n/a	wordpools/wordpool_EN.txt	ANT	13	12	n/a	n/a	pyFR	0	UP019
2078.804	2.61	1324146	WORD	n/a	wordpools/wordpool_EN.txt	KITE	14	12	n/a	n/a	pyFR	0	UP019
2081.414	1.607	1325483	WORD	n/a	wordpools/wordpool_EN.txt	PIT	15	12	n/a	n/a	pyFR	0	UP019
2083.021	0.918	1326304	START	n/a	n/a	n/a	n/a	12	[-999 -999 -999]	-999	pyFR	0	UP019
2083.939	3.496	1326774	PROB	3.451	n/a	n/a	n/a	12	[9 9 9]	27	pyFR	0	UP019
2087.435	6.123	1328564	PROB	6.076	n/a	n/a	n/a	12	[7 3 6]	15	pyFR	0	UP019
2093.558	5.585	1331699	PROB	5.536	n/a	n/a	n/a	12	[1 6 8]	15	pyFR	0	UP019
2099.143	2.777	1334559	PROB	2.735	n/a	n/a	n/a	12	[5 9 2]	16	pyFR	0	UP019
2101.92	2.549	1335981	PROB	2.549	n/a	n/a	n/a	12	[7 9 8]	24	pyFR	0	UP019
2104.469	1.115	1337286	STOP	n/a	n/a	n/a	n/a	12	[-999 -999 -999]	-999	pyFR	0	UP019
2105.584	0.931	1337859	REC_START	n/a	n/a	n/a	-999	-999	n/a	n/a	pyFR	0	UP019
2106.515	0.45	1338336	REC_WORD	0.931	n/a	<>	-999	12	n/a	n/a	pyFR	0	UP019
2106.965	0.817	1338566	REC_WORD	1.381	n/a	EARTH	-999	12	n/a	n/a	pyFR	0	UP019
2107.782	0.842	1338984	REC_WORD	2.198	n/a	TRASH	-999	12	n/a	n/a	pyFR	0	UP019
2108.624	1.309	1339416	REC_WORD	3.04	n/a	BANK	-999	12	n/a	n/a	pyFR	0	UP019
2109.933	6.771	1340086	REC_WORD	4.349	n/a	STAR	-999	12	n/a	n/a	pyFR	0	UP019
2116.704	6.038	1343553	REC_WORD	11.12	n/a	ICE	-999	12	n/a	n/a	pyFR	0	UP019
2122.742	9.782	1346645	REC_WORD	17.158	n/a	BED	-999	12	n/a	n/a	pyFR	0	UP019
2132.524	20.278	1351653	REC_WORD	26.94	n/a	TABLE	-999	12	n/a	n/a	pyFR	0	UP019
2152.802	0.016	1362037	TRIAL	n/a	n/a	n/a	-999	-999	n/a	n/a	pyFR	0	UP019
2152.818	2.944	1362045	ORIENT	n/a	n/a	n/a	-999	-999	n/a	n/a	pyFR	0	UP019
2155.762	2.642	1363552	WORD	n/a	wordpools/wordpool_EN.txt	CLIFF	1	13	n/a	n/a	pyFR	0	UP019
2158.404	2.61	1364905	WORD	n/a	wordpools/wordpool_EN.txt	MOOSE	2	13	n/a	n/a	pyFR	0	UP019
2161.014	2.709	1366241	WORD	n/a	wordpools/wordpool_EN.txt	NOSE	3	13	n/a	n/a	pyFR	0	UP019
2163.723	2.509	1367629	WORD	n/a	wordpools/wordpool_EN.txt	LAWN	4	13	n/a	n/a	pyFR	0	UP019
2166.232	2.543	1368913	WORD	n/a	wordpools/wordpool_EN.txt	SOUP	5	13	n/a	n/a	pyFR	0	UP019
2168.775	2.71	1370215	WORD	n/a	wordpools/wordpool_EN.txt	ROOM	6	13	n/a	n/a	pyFR	0	UP019
2171.485	2.441	1371603	WORD	n/a	wordpools/wordpool_EN.txt	LAMP	7	13	n/a	n/a	pyFR	0	UP019
2173.926	2.476	1372853	WORD	n/a	wordpools/wordpool_EN.txt	CHALK	8	13	n/a	n/a	pyFR	0	UP019
2176.402	2.525	1374121	WORD	n/a	wordpools/wordpool_EN.txt	COUCH	9	13	n/a	n/a	pyFR	0	UP019
2178.927	2.727	1375414	WORD	n/a	wordpools/wordpool_EN.txt	STICK	10	13	n/a	n/a	pyFR	0	UP019
2181.654	2.425	1376810	WORD	n/a	wordpools/wordpool_EN.txt	MOUSE	11	13	n/a	n/a	pyFR	0	UP019
2184.079	2.76	1378052	WORD	n/a	wordpools/wordpool_EN.txt	BALL	12	13	n/a	n/a	pyFR	0	UP019
2186.839	2.442	1379465	WORD	n/a	wordpools/wordpool_EN.txt	SHEEP	13	13	n/a	n/a	pyFR	0	UP019
2189.281	2.659	1380715	WORD	n/a	wordpools/wordpool_EN.txt	STREET	14	13	n/a	n/a	pyFR	0	UP019
2191.94	1.609	1382077	WORD	n/a	wordpools/wordpool_EN.txt	CHAIR	15	13	n/a	n/a	pyFR	0	UP019
2193.549	1.034	1382899	START	n/a	n/a	n/a	n/a	13	[-999 -999 -999]	-999	pyFR	0	UP019
2194.583	3.73	1383428	PROB	3.689	n/a	n/a	n/a	13	[9 6 1]	16	pyFR	0	UP019
2198.313	4.399	1385338	PROB	4.359	n/a	n/a	n/a	13	[5 5 5]	15	pyFR	0	UP019
2202.712	3.446	1387591	PROB	3.392	n/a	n/a	n/a	13	[4 7 9]	20	pyFR	0	UP019
2206.158	2.241	1389355	PROB	2.194	n/a	n/a	n/a	13	[6 2 7]	15	pyFR	0	UP019
2208.399	1.99	1390503	PROB	1.937	n/a	n/a	n/a	13	[3 8 4]	15	pyFR	0	UP019
2210.389	3.419	1391522	PROB	3.419	n/a	n/a	n/a	13	[7 9 6]	22	pyFR	0	UP019
2213.808	1.065	1393272	STOP	n/a	n/a	n/a	n/a	13	[-999 -999 -999]	-999	pyFR	0	UP019
2214.873	3.415	1393820	REC_START	n/a	n/a	n/a	-999	-999	n/a	n/a	pyFR	0	UP019
2218.288	1.0	1395568	REC_WORD	3.415	n/a	<>	-999	13	n/a	n/a	pyFR	0	UP019
2219.288	8.151	1396080	REC_WORD	4.415	n/a	<>	-999	13	n/a	n/a	pyFR	0	UP019
2227.439	0.995	1400254	REC_WORD	12.566	n/a	<>	-999	13	n/a	n/a	pyFR	0	UP019
2228.434	4.641	1400763	REC_WORD	13.561	n/a	TRASH	-999	13	n/a	n/a	pyFR	0	UP019
2233.075	3.881	1403140	REC_WORD	18.202	n/a	TEAM	-999	13	n/a	n/a	pyFR	0	UP019
2236.956	2.47	1405127	REC_WORD	22.083	n/a	STREAM	-999	13	n/a	n/a	pyFR	0	UP019
2239.426	3.245	1406392	REC_WORD	24.553	n/a	STAIR	-999	13	n/a	n/a	pyFR	0	UP019
2242.671	11.275	1408053	REC_WORD	27.798	n/a	MOON	-999	13	n/a	n/a	pyFR	0	UP019
2253.946	2.601	1413827	REC_WORD	39.073	n/a	HIGH	-999	13	n/a	n/a	pyFR	0	UP019
2256.547	8.873	1415158	REC_WORD	41.674	n/a	GO	-999	13	n/a	n/a	pyFR	0	UP019
2265.42	0.016	1419702	TRIAL	n/a	n/a	n/a	-999	-999	n/a	n/a	pyFR	0	UP019
2265.436	2.96	1419710	ORIENT	n/a	n/a	n/a	-999	-999	n/a	n/a	pyFR	0	UP019
2268.396	2.659	1421226	WORD	n/a	wordpools/wordpool_EN.txt	CASH	1	14	n/a	n/a	pyFR	0	UP019
2271.055	2.576	1422587	WORD	n/a	wordpools/wordpool_EN.txt	SEAL	2	14	n/a	n/a	pyFR	0	UP019
2273.631	2.593	1423906	WORD	n/a	wordpools/wordpool_EN.txt	BADGE	3	14	n/a	n/a	pyFR	0	UP019
2276.224	2.542	1425234	WORD	n/a	wordpools/wordpool_EN.txt	FOX	4	14	n/a	n/a	pyFR	0	UP019
2278.766	2.543	1426536	WORD	n/a	wordpools/wordpool_EN.txt	COW	5	14	n/a	n/a	pyFR	0	UP019
2281.309	2.492	1427838	WORD	n/a	wordpools/wordpool_EN.txt	AXE	6	14	n/a	n/a	pyFR	0	UP019
2283.801	2.659	1429114	WORD	n/a	wordpools/wordpool_EN.txt	CLOCK	7	14	n/a	n/a	pyFR	0	UP019
2286.46	2.526	1430475	WORD	n/a	wordpools/wordpool_EN.txt	VEST	8	14	n/a	n/a	pyFR	0	UP019
2288.986	2.676	1431769	WORD	n/a	wordpools/wordpool_EN.txt	WAVE	9	14	n/a	n/a	pyFR	0	UP019
2291.662	2.71	1433139	WORD	n/a	wordpools/wordpool_EN.txt	BOAT	10	14	n/a	n/a	pyFR	0	UP019
2294.372	2.609	1434526	WORD	n/a	wordpools/wordpool_EN.txt	WHALE	11	14	n/a	n/a	pyFR	0	UP019
2296.981	2.609	1435862	WORD	n/a	wordpools/wordpool_EN.txt	BATH	12	14	n/a	n/a	pyFR	0	UP019
2299.59	2.71	1437198	WORD	n/a	wordpools/wordpool_EN.txt	HEN	13	14	n/a	n/a	pyFR	0	UP019
2302.3	2.66	1438586	WORD	n/a	wordpools/wordpool_EN.txt	TOOL	14	14	n/a	n/a	pyFR	0	UP019
2304.96	1.608	1439948	WORD	n/a	wordpools/wordpool_EN.txt	SHRIMP	15	14	n/a	n/a	pyFR	0	UP019
2306.568	0.834	1440769	START	n/a	n/a	n/a	n/a	14	[-999 -999 -999]	-999	pyFR	0	UP019
2307.402	4.215	1441196	PROB	4.159	n/a	n/a	n/a	14	[9 5 4]	18	pyFR	0	UP019
2311.617	3.362	1443354	PROB	3.311	n/a	n/a	n/a	14	[6 2 3]	11	pyFR	0	UP019
2314.979	3.679	1445076	PROB	3.629	n/a	n/a	n/a	14	[8 7 5]	20	pyFR	0	UP019
2318.658	3.479	1446960	PROB	3.43	n/a	n/a	n/a	14	[7 7 7]	21	pyFR	0	UP019
2322.137	4.664	1448741	PROB	4.664	n/a	n/a	n/a	14	[7 5 7]	19	pyFR	0	UP019
2326.801	1.074	1451129	STOP	n/a	n/a	n/a	n/a	14	[-999 -999 -999]	-999	pyFR	0	UP019
2327.875	3.521	1451681	REC_START	n/a	n/a	n/a	-999	-999	n/a	n/a	pyFR	0	UP019
2331.396	0.288	1453484	REC_WORD	3.521	n/a	<>	-999	14	n/a	n/a	pyFR	0	UP019
2331.684	2.77	1453632	REC_WORD	3.809	n/a	CASH	-999	14	n/a	n/a	pyFR	0	UP019
2334.454	0.468	1455050	REC_WORD	6.579	n/a	<>	-999	14	n/a	n/a	pyFR	0	UP019
2334.922	3.602	1455290	REC_WORD	7.047	n/a	BEAN	-999	14	n/a	n/a	pyFR	0	UP019
2338.524	0.318	1457134	REC_WORD	10.649	n/a	<>	-999	14	n/a	n/a	pyFR	0	UP019
2338.842	6.917	1457297	REC_WORD	10.967	n/a	SHRIMP	-999	14	n/a	n/a	pyFR	0	UP019
2345.759	18.721	1460839	REC_WORD	17.884	n/a	BOAT	-999	14	n/a	n/a	pyFR	0	UP019
2364.48	5.655	1470425	REC_WORD	36.605	n/a	WHALE	-999	14	n/a	n/a	pyFR	0	UP019
2370.135	6.18	1473320	REC_WORD	42.26	n/a	MILE	-999	14	n/a	n/a	pyFR	0	UP019
2376.315	0.016	1476485	TRIAL	n/a	n/a	n/a	-999	-999	n/a	n/a	pyFR	0	UP019
2376.331	2.642	1476493	ORIENT	n/a	n/a	n/a	-999	-999	n/a	n/a	pyFR	0	UP019
2378.973	2.777	1477846	WORD	n/a	wordpools/wordpool_EN.txt	CLOTH	1	15	n/a	n/a	pyFR	0	UP019
2381.75	2.626	1479268	WORD	n/a	wordpools/wordpool_EN.txt	SKI	2	15	n/a	n/a	pyFR	0	UP019
2384.376	2.609	1480612	WORD	n/a	wordpools/wordpool_EN.txt	JUICE	3	15	n/a	n/a	pyFR	0	UP019
2386.985	2.777	1481948	WORD	n/a	wordpools/wordpool_EN.txt	HOOF	4	15	n/a	n/a	pyFR	0	UP019
2389.762	2.709	1483370	WORD	n/a	wordpools/wordpool_EN.txt	SNAKE	5	15	n/a	n/a	pyFR	0	UP019
2392.471	2.61	1484757	WORD	n/a	wordpools/wordpool_EN.txt	CROWN	6	15	n/a	n/a	pyFR	0	UP019
2395.081	2.525	1486094	WORD	n/a	wordpools/wordpool_EN.txt	TAIL	7	15	n/a	n/a	pyFR	0	UP019
2397.606	2.727	1487387	WORD	n/a	wordpools/wordpool_EN.txt	GEESE	8	15	n/a	n/a	pyFR	0	UP019
2400.333	2.81	1488783	WORD	n/a	wordpools/wordpool_EN.txt	TENT	9	15	n/a	n/a	pyFR	0	UP019
2403.143	2.709	1490222	WORD	n/a	wordpools/wordpool_EN.txt	TANK	10	15	n/a	n/a	pyFR	0	UP019
2405.852	2.694	1491609	WORD	n/a	wordpools/wordpool_EN.txt	POOL	11	15	n/a	n/a	pyFR	0	UP019
2408.546	2.776	1492988	WORD	n/a	wordpools/wordpool_EN.txt	WALL	12	15	n/a	n/a	pyFR	0	UP019
2411.322	2.743	1494410	WORD	n/a	wordpools/wordpool_EN.txt	TRUCK	13	15	n/a	n/a	pyFR	0	UP019
2414.065	2.743	1495814	WORD	n/a	wordpools/wordpool_EN.txt	RAIN	14	15	n/a	n/a	pyFR	0	UP019
2416.808	1.608	1497219	WORD	n/a	wordpools/wordpool_EN.txt	WHEEL	15	15	n/a	n/a	pyFR	0	UP019
2418.416	1.001	1498040	START	n/a	n/a	n/a	n/a	15	[-999 -999 -999]	-999	pyFR	0	UP019
2419.417	2.559	1498553	PROB	2.517	n/a	n/a	n/a	15	[1 1 3]	5	pyFR	0	UP019
2421.976	2.877	1499863	PROB	2.822	n/a	n/a	n/a	15	[6 8 8]	22	pyFR	0	UP019
2424.853	2.375	1501336	PROB	2.321	n/a	n/a	n/a	15	[8 4 6]	18	pyFR	0	UP019
2427.228	2.576	1502552	PROB	2.522	n/a	n/a	n/a	15	[9 1 9]	19	pyFR	0	UP019
2429.804	1.924	1503871	PROB	1.882	n/a	n/a	n/a	15	[6 1 4]	11	pyFR	0	UP019
2431.728	3.445	1504856	PROB	3.39	n/a	n/a	n/a	15	[9 2 5]	16	pyFR	0	UP019
2435.173	2.108	1506620	PROB	2.057	n/a	n/a	n/a	15	[1 6 1]	8	pyFR	0	UP019
2437.281	2.23	1507700	PROB	2.23	n/a	n/a	n/a	15	[1 9 3]	13	pyFR	0	UP019
2439.511	1.083	1508842	STOP	n/a	n/a	n/a	n/a	15	[-999 -999 -999]	-999	pyFR	0	UP019
2440.594	2.896	1509398	REC_START	n/a	n/a	n/a	-999	-999	n/a	n/a	pyFR	0	UP019
2443.49	0.881	1510881	REC_WORD	2.896	n/a	<>	-999	15	n/a	n/a	pyFR	0	UP019
2444.371	0.844	1511332	REC_WORD	3.777	n/a	<>	-999	15	n/a	n/a	pyFR	0	UP019
2445.215	0.598	1511764	REC_WORD	4.621	n/a	CLOTH	-999	15	n/a	n/a	pyFR	0	UP019
2445.813	2.12	1512071	REC_WORD	5.219	n/a	SKI	-999	15	n/a	n/a	pyFR	0	UP019
2447.933	5.601	1513156	REC_WORD	7.339	n/a	<>	-999	15	n/a	n/a	pyFR	0	UP019
2453.534	1.795	1516024	REC_WORD	12.94	n/a	TABLE	-999	15	n/a	n/a	pyFR	0	UP019
2455.329	16.936	1516943	REC_WORD	14.735	n/a	<>	-999	15	n/a	n/a	pyFR	0	UP019
2472.265	4.863	1525615	REC_WORD	31.671	n/a	BAG	-999	15	n/a	n/a	pyFR	0	UP019
2477.128	4.714	1528105	REC_WORD	36.534	n/a	JUMP	-999	15	n/a	n/a	pyFR	0	UP019
2481.842	6.254	1530519	REC_WORD	41.248	n/a	COURSE	-999	15	n/a	n/a	pyFR	0	UP019
2488.096	0.016	1533721	TRIAL	n/a	n/a	n/a	-999	-999	n/a	n/a	pyFR	0	UP019
2488.112	2.827	1533730	ORIENT	n/a	n/a	n/a	-999	-999	n/a	n/a	pyFR	0	UP019
2490.939	2.61	1535177	WORD	n/a	wordpools/wordpool_EN.txt	ROSE	1	16	n/a	n/a	pyFR	0	UP019
2493.549	2.475	1536514	WORD	n/a	wordpools/wordpool_EN.txt	RAKE	2	16	n/a	n/a	pyFR	0	UP019
2496.024	2.642	1537781	WORD	n/a	wordpools/wordpool_EN.txt	PRINCE	3	16	n/a	n/a	pyFR	0	UP019
2498.666	2.727	1539134	WORD	n/a	wordpools/wordpool_EN.txt	LIP	4	16	n/a	n/a	pyFR	0	UP019
2501.393	2.642	1540530	WORD	n/a	wordpools/wordpool_EN.txt	QUEEN	5	16	n/a	n/a	pyFR	0	UP019
2504.035	2.56	1541883	WORD	n/a	wordpools/wordpool_EN.txt	ELF	6	16	n/a	n/a	pyFR	0	UP019
2506.595	2.609	1543194	WORD	n/a	wordpools/wordpool_EN.txt	GOLD	7	16	n/a	n/a	pyFR	0	UP019
2509.204	2.676	1544530	WORD	n/a	wordpools/wordpool_EN.txt	CONE	8	16	n/a	n/a	pyFR	0	UP019
2511.88	2.677	1545900	WORD	n/a	wordpools/wordpool_EN.txt	WOOD	9	16	n/a	n/a	pyFR	0	UP019
2514.557	2.659	1547271	WORD	n/a	wordpools/wordpool_EN.txt	PIN	10	16	n/a	n/a	pyFR	0	UP019
2517.216	2.609	1548632	WORD	n/a	wordpools/wordpool_EN.txt	SMOKE	11	16	n/a	n/a	pyFR	0	UP019
2519.825	2.776	1549968	WORD	n/a	wordpools/wordpool_EN.txt	SWAMP	12	16	n/a	n/a	pyFR	0	UP019
2522.601	2.526	1551389	WORD	n/a	wordpools/wordpool_EN.txt	PEARL	13	16	n/a	n/a	pyFR	0	UP019
2525.127	2.693	1552683	WORD	n/a	wordpools/wordpool_EN.txt	PIPE	14	16	n/a	n/a	pyFR	0	UP019
2527.82	1.608	1554062	WORD	n/a	wordpools/wordpool_EN.txt	MILK	15	16	n/a	n/a	pyFR	0	UP019
2529.428	1.103	1554883	START	n/a	n/a	n/a	n/a	16	[-999 -999 -999]	-999	pyFR	0	UP019
2530.531	3.327	1555448	PROB	3.284	n/a	n/a	n/a	16	[4 1 9]	14	pyFR	0	UP019
2533.858	2.292	1557151	PROB	2.245	n/a	n/a	n/a	16	[1 8 9]	18	pyFR	0	UP019
2536.15	3.847	1558325	PROB	3.793	n/a	n/a	n/a	16	[9 5 8]	22	pyFR	0	UP019
2539.997	3.194	1560295	PROB	3.138	n/a	n/a	n/a	16	[8 7 4]	19	pyFR	0	UP019
2543.191	2.36	1561930	PROB	2.305	n/a	n/a	n/a	16	[5 9 9]	23	pyFR	0	UP019
2545.551	2.34	1563138	PROB	2.288	n/a	n/a	n/a	16	[6 5 8]	19	pyFR	0	UP019
2547.891	2.084	1564337	PROB	2.084	n/a	n/a	n/a	16	[9 4 1]	14	pyFR	0	UP019
2549.975	1.112	1565404	STOP	n/a	n/a	n/a	n/a	16	[-999 -999 -999]	-999	pyFR	0	UP019
2551.087	0.658	1565975	REC_START	n/a	n/a	n/a	-999	-999	n/a	n/a	pyFR	0	UP019
2551.745	0.411	1566312	REC_WORD	0.658	n/a	<>	-999	16	n/a	n/a	pyFR	0	UP019
2552.156	0.36	1566523	REC_WORD	1.069	n/a	PIN	-999	16	n/a	n/a	pyFR	0	UP019
2552.516	0.444	1566707	REC_WORD	1.429	n/a	SMOKE	-999	16	n/a	n/a	pyFR	0	UP019
2552.96	2.373	1566935	REC_WORD	1.873	n/a	SWAMP	-999	16	n/a	n/a	pyFR	0	UP019
2555.333	2.092	1568150	REC_WORD	4.246	n/a	<>	-999	16	n/a	n/a	pyFR	0	UP019
2557.425	5.471	1569221	REC_WORD	6.338	n/a	HILL	-999	16	n/a	n/a	pyFR	0	UP019
2562.896	1.0	1572022	REC_WORD	11.809	n/a	<>	-999	16	n/a	n/a	pyFR	0	UP019
2563.896	1.152	1572534	REC_WORD	12.809	n/a	<>	-999	16	n/a	n/a	pyFR	0	UP019
2565.048	13.278	1573124	REC_WORD	13.961	n/a	<>	-999	16	n/a	n/a	pyFR	0	UP019
2578.326	579.121	1579923	REC_WORD	27.239	n/a	ICE	-999	16	n/a	n/a	pyFR	0	UP019
3157.447	0.131	1876458	SESS_END	n/a	n/a	n/a	-999	-999	n/a	n/a	pyFR	0	UP019
3157.578	0.0	1876525	E	n/a	n/a	n/a	-999	-999	n/a	n/a	pyFR	0	UP019
