onset	duration	sample	trial_type	response_time	stim_file	item_name	serialpos	list	test	answer	experiment	session	subject
0.0	0.0	259710	B	n/a	n/a	n/a	-999.0	-999	n/a	n/a	pyFR	0	UP019
0.0	81.9	259710	SESS_START	n/a	n/a	n/a	-999.0	-999	n/a	n/a	pyFR	0	UP019
81.9	0.042	301646	START	n/a	n/a	n/a	n/a	0	[-999 -999 -999]	-999.0	pyFR	0	UP019
81.942	7.477	301668	PROB	7.428	n/a	n/a	n/a	0	[9 2 7]	18.0	pyFR	0	UP019
89.419	3.462	305497	PROB	3.408	n/a	n/a	n/a	0	[2 4 4]	10.0	pyFR	0	UP019
92.881	2.275	307269	PROB	2.234	n/a	n/a	n/a	0	[4 1 5]	10.0	pyFR	0	UP019
95.156	2.241	308434	PROB	2.199	n/a	n/a	n/a	0	[5 6 2]	13.0	pyFR	0	UP019
97.397	2.425	309582	PROB	2.374	n/a	n/a	n/a	0	[1 4 2]	7.0	pyFR	0	UP019
99.822	2.861	310823	PROB	2.813	n/a	n/a	n/a	0	[1 9 6]	16.0	pyFR	0	UP019
102.683	2.391	312288	PROB	2.336	n/a	n/a	n/a	0	[1 4 9]	14.0	pyFR	0	UP019
105.074	2.008	313513	PROB	1.961	n/a	n/a	n/a	0	[4 1 9]	14.0	pyFR	0	UP019
107.082	2.224	314541	PROB	2.176	n/a	n/a	n/a	0	[4 1 7]	12.0	pyFR	0	UP019
109.306	2.761	315680	PROB	2.761	n/a	n/a	n/a	0	[8 1 7]	16.0	pyFR	0	UP019
112.067	80.319	317093	STOP	n/a	n/a	n/a	n/a	0	[-999 -999 -999]	-999.0	pyFR	0	UP019
192.386	0.016	358220	TRIAL	n/a	n/a	n/a	-999.0	-999	n/a	n/a	pyFR	0	UP019
192.402	1.6	358228	ORIENT	n/a	n/a	n/a	-999.0	-999	n/a	n/a	pyFR	0	UP019
195.296	1.6	359710	WORD	n/a	wordpools/wordpool_EN.txt	FLOOR	1.0	1	n/a	n/a	pyFR	0	UP019
197.821	1.6	361003	WORD	n/a	wordpools/wordpool_EN.txt	COIN	2.0	1	n/a	n/a	pyFR	0	UP019
200.447	1.6	362348	WORD	n/a	wordpools/wordpool_EN.txt	BEAK	3.0	1	n/a	n/a	pyFR	0	UP019
203.073	1.6	363692	WORD	n/a	wordpools/wordpool_EN.txt	TEETH	4.0	1	n/a	n/a	pyFR	0	UP019
205.883	1.6	365131	WORD	n/a	wordpools/wordpool_EN.txt	RIB	5.0	1	n/a	n/a	pyFR	0	UP019
208.409	1.6	366424	WORD	n/a	wordpools/wordpool_EN.txt	VINE	6.0	1	n/a	n/a	pyFR	0	UP019
211.102	1.6	367803	WORD	n/a	wordpools/wordpool_EN.txt	CART	7.0	1	n/a	n/a	pyFR	0	UP019
213.545	1.6	369054	WORD	n/a	wordpools/wordpool_EN.txt	ROPE	8.0	1	n/a	n/a	pyFR	0	UP019
216.053	1.6	370338	WORD	n/a	wordpools/wordpool_EN.txt	DITCH	9.0	1	n/a	n/a	pyFR	0	UP019
218.496	1.6	371589	WORD	n/a	wordpools/wordpool_EN.txt	LEAF	10.0	1	n/a	n/a	pyFR	0	UP019
221.221	1.6	372985	WORD	n/a	wordpools/wordpool_EN.txt	SQUARE	11.0	1	n/a	n/a	pyFR	0	UP019
223.747	1.6	374278	WORD	n/a	wordpools/wordpool_EN.txt	JAIL	12.0	1	n/a	n/a	pyFR	0	UP019
226.206	1.6	375537	WORD	n/a	wordpools/wordpool_EN.txt	FRUIT	13.0	1	n/a	n/a	pyFR	0	UP019
228.832	1.6	376882	WORD	n/a	wordpools/wordpool_EN.txt	STORE	14.0	1	n/a	n/a	pyFR	0	UP019
231.625	1.6	378312	WORD	n/a	wordpools/wordpool_EN.txt	CANE	15.0	1	n/a	n/a	pyFR	0	UP019
233.233	0.834	379135	START	n/a	n/a	n/a	n/a	1	[-999 -999 -999]	-999.0	pyFR	0	UP019
234.067	8.096	379562	PROB	8.053	n/a	n/a	n/a	1	[8 7 1]	15.0	pyFR	0	UP019
242.163	3.044	383708	PROB	2.989	n/a	n/a	n/a	1	[8 9 1]	18.0	pyFR	0	UP019
245.207	1.689	385266	PROB	1.633	n/a	n/a	n/a	1	[1 2 1]	4.0	pyFR	0	UP019
246.896	2.442	386131	PROB	2.392	n/a	n/a	n/a	1	[3 8 2]	13.0	pyFR	0	UP019
249.338	2.325	387382	PROB	2.27	n/a	n/a	n/a	1	[1 3 1]	5.0	pyFR	0	UP019
251.663	3.305	388572	PROB	3.305	n/a	n/a	n/a	1	[9 5 8]	22.0	pyFR	0	UP019
254.968	1.212	390265	STOP	n/a	n/a	n/a	n/a	1	[-999 -999 -999]	-999.0	pyFR	0	UP019
256.18	2.144	390885	REC_START	n/a	n/a	n/a	-999.0	-999	n/a	n/a	pyFR	0	UP019
258.324	1.0	391983	REC_WORD	2.144	n/a	<>	-999.0	1	n/a	n/a	pyFR	0	UP019
259.324	1.524	392495	REC_WORD	3.144	n/a	<>	-999.0	1	n/a	n/a	pyFR	0	UP019
260.848	1.0	393275	REC_WORD	4.668	n/a	<>	-999.0	1	n/a	n/a	pyFR	0	UP019
261.848	1.676	393787	REC_WORD	5.668	n/a	<>	-999.0	1	n/a	n/a	pyFR	0	UP019
263.524	1.0	394646	REC_WORD	7.344	n/a	<>	-999.0	1	n/a	n/a	pyFR	0	UP019
264.524	0.932	395158	REC_WORD	8.344	n/a	<>	-999.0	1	n/a	n/a	pyFR	0	UP019
265.456	2.867	395635	REC_WORD	9.276	n/a	FRUIT	-999.0	1	n/a	n/a	pyFR	0	UP019
268.323	8.54	397103	REC_WORD	12.143	n/a	RIB	-999.0	1	n/a	n/a	pyFR	0	UP019
276.863	17.671	401476	REC_WORD	20.683	n/a	LIVE	-999.0	1	n/a	n/a	pyFR	0	UP019
294.534	2.924	410524	REC_WORD	38.354	n/a	SHOW	-999.0	1	n/a	n/a	pyFR	0	UP019
297.458	0.919	412021	REC_WORD	41.278	n/a	STOP	-999.0	1	n/a	n/a	pyFR	0	UP019
298.377	12.866	412492	REC_WORD	42.197	n/a	MOVE	-999.0	1	n/a	n/a	pyFR	0	UP019
311.243	0.016	419080	TRIAL	n/a	n/a	n/a	-999.0	-999	n/a	n/a	pyFR	0	UP019
311.259	1.6	419088	ORIENT	n/a	n/a	n/a	-999.0	-999	n/a	n/a	pyFR	0	UP019
314.169	1.6	420578	WORD	n/a	wordpools/wordpool_EN.txt	FUDGE	1.0	2	n/a	n/a	pyFR	0	UP019
316.795	1.6	421923	WORD	n/a	wordpools/wordpool_EN.txt	GUARD	2.0	2	n/a	n/a	pyFR	0	UP019
319.338	1.6	423225	WORD	n/a	wordpools/wordpool_EN.txt	HAND	3.0	2	n/a	n/a	pyFR	0	UP019
321.83	1.6	424501	WORD	n/a	wordpools/wordpool_EN.txt	SMILE	4.0	2	n/a	n/a	pyFR	0	UP019
324.439	1.6	425837	WORD	n/a	wordpools/wordpool_EN.txt	POLE	5.0	2	n/a	n/a	pyFR	0	UP019
327.082	1.6	427190	WORD	n/a	wordpools/wordpool_EN.txt	HOSE	6.0	2	n/a	n/a	pyFR	0	UP019
329.725	1.6	428543	WORD	n/a	wordpools/wordpool_EN.txt	MAP	7.0	2	n/a	n/a	pyFR	0	UP019
332.535	1.6	429982	WORD	n/a	wordpools/wordpool_EN.txt	ROAD	8.0	2	n/a	n/a	pyFR	0	UP019
335.144	1.6	431318	WORD	n/a	wordpools/wordpool_EN.txt	CALF	9.0	2	n/a	n/a	pyFR	0	UP019
337.77	1.6	432663	WORD	n/a	wordpools/wordpool_EN.txt	BROOM	10.0	2	n/a	n/a	pyFR	0	UP019
340.547	1.6	434085	WORD	n/a	wordpools/wordpool_EN.txt	FARM	11.0	2	n/a	n/a	pyFR	0	UP019
343.206	1.6	435446	WORD	n/a	wordpools/wordpool_EN.txt	BRANCH	12.0	2	n/a	n/a	pyFR	0	UP019
345.865	1.6	436808	WORD	n/a	wordpools/wordpool_EN.txt	FACE	13.0	2	n/a	n/a	pyFR	0	UP019
348.575	1.6	438195	WORD	n/a	wordpools/wordpool_EN.txt	WORLD	14.0	2	n/a	n/a	pyFR	0	UP019
351.301	1.6	439591	WORD	n/a	wordpools/wordpool_EN.txt	MULE	15.0	2	n/a	n/a	pyFR	0	UP019
352.909	0.968	440414	START	n/a	n/a	n/a	n/a	2	[-999 -999 -999]	-999.0	pyFR	0	UP019
353.877	3.614	440910	PROB	3.569	n/a	n/a	n/a	2	[5 1 5]	11.0	pyFR	0	UP019
357.491	3.144	442761	PROB	3.091	n/a	n/a	n/a	2	[9 2 8]	19.0	pyFR	0	UP019
360.635	3.061	444370	PROB	3.02	n/a	n/a	n/a	2	[1 9 6]	16.0	pyFR	0	UP019
363.696	3.345	445938	PROB	3.302	n/a	n/a	n/a	2	[9 9 8]	26.0	pyFR	0	UP019
367.041	4.549	447651	PROB	4.494	n/a	n/a	n/a	2	[9 6 1]	16.0	pyFR	0	UP019
371.59	2.648	449980	PROB	2.648	n/a	n/a	n/a	2	[6 7 3]	16.0	pyFR	0	UP019
374.238	1.117	451336	STOP	n/a	n/a	n/a	n/a	2	[-999 -999 -999]	-999.0	pyFR	0	UP019
375.355	1.885	451908	REC_START	n/a	n/a	n/a	-999.0	-999	n/a	n/a	pyFR	0	UP019
377.24	1.831	452873	REC_WORD	1.885	n/a	CALF	-999.0	2	n/a	n/a	pyFR	0	UP019
379.071	0.817	453811	REC_WORD	3.716	n/a	FUDGE	-999.0	2	n/a	n/a	pyFR	0	UP019
379.888	1.678	454229	REC_WORD	4.533	n/a	HAND	-999.0	2	n/a	n/a	pyFR	0	UP019
381.566	1.0	455088	REC_WORD	6.211	n/a	WORLD	-999.0	2	n/a	n/a	pyFR	0	UP019
382.566	9.053	455600	REC_WORD	7.211	n/a	MULE	-999.0	2	n/a	n/a	pyFR	0	UP019
391.619	4.781	460236	REC_WORD	16.264	n/a	RUN	-999.0	2	n/a	n/a	pyFR	0	UP019
396.4	5.307	462684	REC_WORD	21.045	n/a	RIVER	-999.0	2	n/a	n/a	pyFR	0	UP019
401.707	1.0	465401	REC_WORD	26.352	n/a	<>	-999.0	2	n/a	n/a	pyFR	0	UP019
402.707	1.0	465913	REC_WORD	27.352	n/a	<>	-999.0	2	n/a	n/a	pyFR	0	UP019
403.707	1.0	466425	REC_WORD	28.352	n/a	<>	-999.0	2	n/a	n/a	pyFR	0	UP019
404.707	1.0	466937	REC_WORD	29.352	n/a	<>	-999.0	2	n/a	n/a	pyFR	0	UP019
405.707	1.0	467449	REC_WORD	30.352	n/a	<>	-999.0	2	n/a	n/a	pyFR	0	UP019
406.707	1.0	467961	REC_WORD	31.352	n/a	<>	-999.0	2	n/a	n/a	pyFR	0	UP019
407.707	2.016	468473	REC_WORD	32.352	n/a	<>	-999.0	2	n/a	n/a	pyFR	0	UP019
409.723	1.0	469506	REC_WORD	34.368	n/a	<>	-999.0	2	n/a	n/a	pyFR	0	UP019
410.723	1.0	470018	REC_WORD	35.368	n/a	<>	-999.0	2	n/a	n/a	pyFR	0	UP019
411.723	1.718	470530	REC_WORD	36.368	n/a	<>	-999.0	2	n/a	n/a	pyFR	0	UP019
413.441	1.0	471410	REC_WORD	38.086	n/a	<>	-999.0	2	n/a	n/a	pyFR	0	UP019
414.441	1.0	471922	REC_WORD	39.086	n/a	<>	-999.0	2	n/a	n/a	pyFR	0	UP019
415.441	1.552	472434	REC_WORD	40.086	n/a	<>	-999.0	2	n/a	n/a	pyFR	0	UP019
416.993	1.0	473228	REC_WORD	41.638	n/a	<>	-999.0	2	n/a	n/a	pyFR	0	UP019
417.993	15.284	473740	REC_WORD	42.638	n/a	<>	-999.0	2	n/a	n/a	pyFR	0	UP019
433.277	0.016	481566	TRIAL	n/a	n/a	n/a	-999.0	-999	n/a	n/a	pyFR	0	UP019
433.293	1.6	481575	ORIENT	n/a	n/a	n/a	-999.0	-999	n/a	n/a	pyFR	0	UP019
435.919	1.6	482919	WORD	n/a	wordpools/wordpool_EN.txt	CLOWN	1.0	3	n/a	n/a	pyFR	0	UP019
438.412	1.6	484196	WORD	n/a	wordpools/wordpool_EN.txt	FAN	2.0	3	n/a	n/a	pyFR	0	UP019
441.105	1.6	485575	WORD	n/a	wordpools/wordpool_EN.txt	TOAST	3.0	3	n/a	n/a	pyFR	0	UP019
443.814	1.6	486962	WORD	n/a	wordpools/wordpool_EN.txt	SLUSH	4.0	3	n/a	n/a	pyFR	0	UP019
446.558	1.6	488367	WORD	n/a	wordpools/wordpool_EN.txt	SLIME	5.0	3	n/a	n/a	pyFR	0	UP019
449.05	1.6	489643	WORD	n/a	wordpools/wordpool_EN.txt	YARD	6.0	3	n/a	n/a	pyFR	0	UP019
451.659	1.6	490979	WORD	n/a	wordpools/wordpool_EN.txt	TOY	7.0	3	n/a	n/a	pyFR	0	UP019
454.168	1.6	492263	WORD	n/a	wordpools/wordpool_EN.txt	NEST	8.0	3	n/a	n/a	pyFR	0	UP019
456.744	1.6	493583	WORD	n/a	wordpools/wordpool_EN.txt	DESK	9.0	3	n/a	n/a	pyFR	0	UP019
459.319	1.6	494901	WORD	n/a	wordpools/wordpool_EN.txt	WOLF	10.0	3	n/a	n/a	pyFR	0	UP019
461.812	1.6	496178	WORD	n/a	wordpools/wordpool_EN.txt	BOMB	11.0	3	n/a	n/a	pyFR	0	UP019
464.371	1.6	497488	WORD	n/a	wordpools/wordpool_EN.txt	SPOON	12.0	3	n/a	n/a	pyFR	0	UP019
466.846	1.6	498755	WORD	n/a	wordpools/wordpool_EN.txt	SKY	13.0	3	n/a	n/a	pyFR	0	UP019
469.589	1.6	500160	WORD	n/a	wordpools/wordpool_EN.txt	DOOR	14.0	3	n/a	n/a	pyFR	0	UP019
472.098	1.6	501444	WORD	n/a	wordpools/wordpool_EN.txt	TREE	15.0	3	n/a	n/a	pyFR	0	UP019
473.722	1.069	502276	START	n/a	n/a	n/a	n/a	3	[-999 -999 -999]	-999.0	pyFR	0	UP019
474.791	4.399	502823	PROB	4.354	n/a	n/a	n/a	3	[3 7 5]	15.0	pyFR	0	UP019
479.19	3.747	505076	PROB	3.691	n/a	n/a	n/a	3	[3 8 5]	16.0	pyFR	0	UP019
482.937	3.813	506994	PROB	3.759	n/a	n/a	n/a	3	[6 9 9]	24.0	pyFR	0	UP019
486.75	4.182	508947	PROB	4.131	n/a	n/a	n/a	3	[9 8 5]	22.0	pyFR	0	UP019
490.932	2.325	511088	PROB	2.277	n/a	n/a	n/a	3	[2 3 8]	13.0	pyFR	0	UP019
493.257	3.136	512278	PROB	3.136	n/a	n/a	n/a	3	[2 1 8]	11.0	pyFR	0	UP019
496.393	1.148	513884	STOP	n/a	n/a	n/a	n/a	3	[-999 -999 -999]	-999.0	pyFR	0	UP019
497.541	1.135	514472	REC_START	n/a	n/a	n/a	-999.0	-999	n/a	n/a	pyFR	0	UP019
498.676	5.743	515053	REC_WORD	1.135	n/a	CLOWN	-999.0	3	n/a	n/a	pyFR	0	UP019
504.419	1.228	517994	REC_WORD	6.878	n/a	SMILE	-999.0	3	n/a	n/a	pyFR	0	UP019
505.647	8.368	518623	REC_WORD	8.106	n/a	SLUSH	-999.0	3	n/a	n/a	pyFR	0	UP019
514.015	5.819	522908	REC_WORD	16.474	n/a	CRUSH	-999.0	3	n/a	n/a	pyFR	0	UP019
519.834	7.688	525887	REC_WORD	22.293	n/a	CLIFF	-999.0	3	n/a	n/a	pyFR	0	UP019
527.522	33.644	529824	REC_WORD	29.981	n/a	GLOBE	-999.0	3	n/a	n/a	pyFR	0	UP019
561.166	0.016	547051	TRIAL	n/a	n/a	n/a	-999.0	-999	n/a	n/a	pyFR	0	UP019
561.182	1.6	547059	ORIENT	n/a	n/a	n/a	-999.0	-999	n/a	n/a	pyFR	0	UP019
563.942	1.6	548472	WORD	n/a	wordpools/wordpool_EN.txt	BEAR	1.0	4	n/a	n/a	pyFR	0	UP019
566.719	1.6	549894	WORD	n/a	wordpools/wordpool_EN.txt	ARK	2.0	4	n/a	n/a	pyFR	0	UP019
569.144	1.6	551136	WORD	n/a	wordpools/wordpool_EN.txt	APE	3.0	4	n/a	n/a	pyFR	0	UP019
571.82	1.6	552506	WORD	n/a	wordpools/wordpool_EN.txt	HORN	4.0	4	n/a	n/a	pyFR	0	UP019
574.279	1.6	553765	WORD	n/a	wordpools/wordpool_EN.txt	SPARK	5.0	4	n/a	n/a	pyFR	0	UP019
576.955	1.6	555136	WORD	n/a	wordpools/wordpool_EN.txt	JAR	6.0	4	n/a	n/a	pyFR	0	UP019
579.482	1.6	556430	WORD	n/a	wordpools/wordpool_EN.txt	MOLE	7.0	4	n/a	n/a	pyFR	0	UP019
581.99	1.6	557714	WORD	n/a	wordpools/wordpool_EN.txt	DRUM	8.0	4	n/a	n/a	pyFR	0	UP019
584.533	1.6	559016	WORD	n/a	wordpools/wordpool_EN.txt	SEED	9.0	4	n/a	n/a	pyFR	0	UP019
587.108	1.6	560334	WORD	n/a	wordpools/wordpool_EN.txt	WORM	10.0	4	n/a	n/a	pyFR	0	UP019
589.634	1.6	561628	WORD	n/a	wordpools/wordpool_EN.txt	FOG	11.0	4	n/a	n/a	pyFR	0	UP019
592.226	1.6	562955	WORD	n/a	wordpools/wordpool_EN.txt	SOAP	12.0	4	n/a	n/a	pyFR	0	UP019
594.869	1.6	564308	WORD	n/a	wordpools/wordpool_EN.txt	MAZE	13.0	4	n/a	n/a	pyFR	0	UP019
597.513	1.6	565662	WORD	n/a	wordpools/wordpool_EN.txt	OWL	14.0	4	n/a	n/a	pyFR	0	UP019
600.221	1.6	567049	WORD	n/a	wordpools/wordpool_EN.txt	BREAD	15.0	4	n/a	n/a	pyFR	0	UP019
601.829	1.102	567872	START	n/a	n/a	n/a	n/a	4	[-999 -999 -999]	-999.0	pyFR	0	UP019
602.931	3.395	568436	PROB	3.338	n/a	n/a	n/a	4	[4 4 1]	9.0	pyFR	0	UP019
606.326	2.176	570174	PROB	2.119	n/a	n/a	n/a	4	[8 2 6]	16.0	pyFR	0	UP019
608.502	3.981	571289	PROB	3.935	n/a	n/a	n/a	4	[8 4 2]	14.0	pyFR	0	UP019
612.483	3.16	573327	PROB	3.114	n/a	n/a	n/a	4	[1 5 2]	8.0	pyFR	0	UP019
615.643	2.542	574945	PROB	2.498	n/a	n/a	n/a	4	[9 5 9]	23.0	pyFR	0	UP019
618.185	2.493	576247	PROB	2.452	n/a	n/a	n/a	4	[6 1 9]	16.0	pyFR	0	UP019
620.678	1.856	577523	PROB	1.856	n/a	n/a	n/a	4	[3 2 6]	11.0	pyFR	0	UP019
622.534	1.222	578474	STOP	n/a	n/a	n/a	n/a	4	[-999 -999 -999]	-999.0	pyFR	0	UP019
623.756	1.144	579100	REC_START	n/a	n/a	n/a	-999.0	-999	n/a	n/a	pyFR	0	UP019
624.9	0.391	579686	REC_WORD	1.144	n/a	<>	-999.0	4	n/a	n/a	pyFR	0	UP019
625.291	0.765	579886	REC_WORD	1.535	n/a	BEAR	-999.0	4	n/a	n/a	pyFR	0	UP019
626.056	1.471	580277	REC_WORD	2.3	n/a	ARK	-999.0	4	n/a	n/a	pyFR	0	UP019
627.527	2.104	581031	REC_WORD	3.771	n/a	APE	-999.0	4	n/a	n/a	pyFR	0	UP019
629.631	3.755	582108	REC_WORD	5.875	n/a	JAR	-999.0	4	n/a	n/a	pyFR	0	UP019
633.386	2.585	584031	REC_WORD	9.63	n/a	ROOF	-999.0	4	n/a	n/a	pyFR	0	UP019
635.971	4.517	585354	REC_WORD	12.215	n/a	BOAT	-999.0	4	n/a	n/a	pyFR	0	UP019
640.488	8.494	587667	REC_WORD	16.732	n/a	OAR	-999.0	4	n/a	n/a	pyFR	0	UP019
648.982	17.832	592017	REC_WORD	25.226	n/a	CRATE	-999.0	4	n/a	n/a	pyFR	0	UP019
666.814	19.883	601147	REC_WORD	43.058	n/a	WORM	-999.0	4	n/a	n/a	pyFR	0	UP019
686.697	0.016	611328	TRIAL	n/a	n/a	n/a	-999.0	-999	n/a	n/a	pyFR	0	UP019
686.713	1.6	611336	ORIENT	n/a	n/a	n/a	-999.0	-999	n/a	n/a	pyFR	0	UP019
689.606	1.6	612818	WORD	n/a	wordpools/wordpool_EN.txt	CHEEK	1.0	5	n/a	n/a	pyFR	0	UP019
692.249	1.6	614171	WORD	n/a	wordpools/wordpool_EN.txt	MUG	2.0	5	n/a	n/a	pyFR	0	UP019
694.959	1.6	615559	WORD	n/a	wordpools/wordpool_EN.txt	BAG	3.0	5	n/a	n/a	pyFR	0	UP019
697.485	1.6	616852	WORD	n/a	wordpools/wordpool_EN.txt	STEM	4.0	5	n/a	n/a	pyFR	0	UP019
700.094	1.6	618188	WORD	n/a	wordpools/wordpool_EN.txt	FROG	5.0	5	n/a	n/a	pyFR	0	UP019
702.586	1.6	619464	WORD	n/a	wordpools/wordpool_EN.txt	RICE	6.0	5	n/a	n/a	pyFR	0	UP019
705.295	1.6	620851	WORD	n/a	wordpools/wordpool_EN.txt	CAT	7.0	5	n/a	n/a	pyFR	0	UP019
708.106	1.6	622291	WORD	n/a	wordpools/wordpool_EN.txt	STRAW	8.0	5	n/a	n/a	pyFR	0	UP019
710.648	1.6	623592	WORD	n/a	wordpools/wordpool_EN.txt	GLASS	9.0	5	n/a	n/a	pyFR	0	UP019
713.391	1.6	624997	WORD	n/a	wordpools/wordpool_EN.txt	BEACH	10.0	5	n/a	n/a	pyFR	0	UP019
716.084	1.6	626376	WORD	n/a	wordpools/wordpool_EN.txt	LAKE	11.0	5	n/a	n/a	pyFR	0	UP019
718.56	1.6	627643	WORD	n/a	wordpools/wordpool_EN.txt	SUIT	12.0	5	n/a	n/a	pyFR	0	UP019
721.236	1.6	629014	WORD	n/a	wordpools/wordpool_EN.txt	VASE	13.0	5	n/a	n/a	pyFR	0	UP019
723.661	1.6	630255	WORD	n/a	wordpools/wordpool_EN.txt	BAND	14.0	5	n/a	n/a	pyFR	0	UP019
726.387	1.6	631651	WORD	n/a	wordpools/wordpool_EN.txt	TOE	15.0	5	n/a	n/a	pyFR	0	UP019
727.995	0.834	632474	START	n/a	n/a	n/a	n/a	5	[-999 -999 -999]	-999.0	pyFR	0	UP019
728.829	2.861	632901	PROB	2.808	n/a	n/a	n/a	5	[8 3 6]	17.0	pyFR	0	UP019
731.69	2.542	634366	PROB	2.499	n/a	n/a	n/a	5	[4 4 6]	14.0	pyFR	0	UP019
734.232	3.379	635668	PROB	3.326	n/a	n/a	n/a	5	[2 2 3]	7.0	pyFR	0	UP019
737.611	3.746	637398	PROB	3.698	n/a	n/a	n/a	5	[7 6 7]	20.0	pyFR	0	UP019
741.357	3.412	639316	PROB	3.368	n/a	n/a	n/a	5	[7 5 2]	14.0	pyFR	0	UP019
744.769	2.877	641063	PROB	2.836	n/a	n/a	n/a	5	[5 3 3]	11.0	pyFR	0	UP019
747.646	1.872	642536	PROB	1.872	n/a	n/a	n/a	5	[3 1 7]	11.0	pyFR	0	UP019
749.518	1.073	643495	STOP	n/a	n/a	n/a	n/a	5	[-999 -999 -999]	-999.0	pyFR	0	UP019
750.591	1.042	644045	REC_START	n/a	n/a	n/a	-999.0	-999	n/a	n/a	pyFR	0	UP019
751.633	0.785	644578	REC_WORD	1.042	n/a	<>	-999.0	5	n/a	n/a	pyFR	0	UP019
752.418	1.992	644980	REC_WORD	1.827	n/a	MUG	-999.0	5	n/a	n/a	pyFR	0	UP019
754.41	2.316	646000	REC_WORD	3.819	n/a	FACE	-999.0	5	n/a	n/a	pyFR	0	UP019
756.726	19.034	647186	REC_WORD	6.135	n/a	TOE	-999.0	5	n/a	n/a	pyFR	0	UP019
775.76	2.774	656932	REC_WORD	25.169	n/a	VASE	-999.0	5	n/a	n/a	pyFR	0	UP019
778.534	1.534	658353	REC_WORD	27.943	n/a	STEM	-999.0	5	n/a	n/a	pyFR	0	UP019
780.068	20.116	659138	REC_WORD	29.477	n/a	STRAW	-999.0	5	n/a	n/a	pyFR	0	UP019
800.184	0.016	669438	TRIAL	n/a	n/a	n/a	-999.0	-999	n/a	n/a	pyFR	0	UP019
800.2	1.6	669447	ORIENT	n/a	n/a	n/a	-999.0	-999	n/a	n/a	pyFR	0	UP019
802.91	1.6	670834	WORD	n/a	wordpools/wordpool_EN.txt	OAR	1.0	6	n/a	n/a	pyFR	0	UP019
805.686	1.6	672256	WORD	n/a	wordpools/wordpool_EN.txt	BARN	2.0	6	n/a	n/a	pyFR	0	UP019
808.212	1.6	673549	WORD	n/a	wordpools/wordpool_EN.txt	THREAD	3.0	6	n/a	n/a	pyFR	0	UP019
810.738	1.6	674843	WORD	n/a	wordpools/wordpool_EN.txt	INK	4.0	6	n/a	n/a	pyFR	0	UP019
813.33	1.6	676170	WORD	n/a	wordpools/wordpool_EN.txt	CAKE	5.0	6	n/a	n/a	pyFR	0	UP019
815.756	1.6	677412	WORD	n/a	wordpools/wordpool_EN.txt	STOVE	6.0	6	n/a	n/a	pyFR	0	UP019
818.398	1.6	678765	WORD	n/a	wordpools/wordpool_EN.txt	PEACH	7.0	6	n/a	n/a	pyFR	0	UP019
821.125	1.6	680161	WORD	n/a	wordpools/wordpool_EN.txt	ZOO	8.0	6	n/a	n/a	pyFR	0	UP019
823.684	1.6	681471	WORD	n/a	wordpools/wordpool_EN.txt	BENCH	9.0	6	n/a	n/a	pyFR	0	UP019
826.293	1.6	682807	WORD	n/a	wordpools/wordpool_EN.txt	PASTE	10.0	6	n/a	n/a	pyFR	0	UP019
829.07	1.6	684229	WORD	n/a	wordpools/wordpool_EN.txt	PIE	11.0	6	n/a	n/a	pyFR	0	UP019
831.629	1.6	685540	WORD	n/a	wordpools/wordpool_EN.txt	MOTH	12.0	6	n/a	n/a	pyFR	0	UP019
834.439	1.6	686978	WORD	n/a	wordpools/wordpool_EN.txt	FLAG	13.0	6	n/a	n/a	pyFR	0	UP019
836.881	1.6	688229	WORD	n/a	wordpools/wordpool_EN.txt	HEART	14.0	6	n/a	n/a	pyFR	0	UP019
839.641	1.6	689642	WORD	n/a	wordpools/wordpool_EN.txt	DOLL	15.0	6	n/a	n/a	pyFR	0	UP019
841.248	0.935	690464	START	n/a	n/a	n/a	n/a	6	[-999 -999 -999]	-999.0	pyFR	0	UP019
842.183	4.215	690943	PROB	4.166	n/a	n/a	n/a	6	[1 8 7]	16.0	pyFR	0	UP019
846.398	2.66	693101	PROB	2.615	n/a	n/a	n/a	6	[6 6 9]	21.0	pyFR	0	UP019
849.058	5.854	694463	PROB	5.803	n/a	n/a	n/a	6	[1 4 3]	8.0	pyFR	0	UP019
854.912	1.59	697461	PROB	1.548	n/a	n/a	n/a	6	[1 4 4]	9.0	pyFR	0	UP019
856.502	2.876	698275	PROB	2.831	n/a	n/a	n/a	6	[1 9 4]	14.0	pyFR	0	UP019
859.378	2.53	699748	PROB	2.53	n/a	n/a	n/a	6	[8 2 8]	28.0	pyFR	0	UP019
861.908	1.234	701043	STOP	n/a	n/a	n/a	n/a	6	[-999 -999 -999]	-999.0	pyFR	0	UP019
863.142	0.976	701676	REC_START	n/a	n/a	n/a	-999.0	-999	n/a	n/a	pyFR	0	UP019
864.118	0.419	702175	REC_WORD	0.976	n/a	MOTH	-999.0	6	n/a	n/a	pyFR	0	UP019
864.537	2.642	702390	REC_WORD	1.395	n/a	FLAG	-999.0	6	n/a	n/a	pyFR	0	UP019
867.179	2.563	703743	REC_WORD	4.037	n/a	DOLL	-999.0	6	n/a	n/a	pyFR	0	UP019
869.742	0.637	705055	REC_WORD	6.6	n/a	DART	-999.0	6	n/a	n/a	pyFR	0	UP019
870.379	2.175	705381	REC_WORD	7.237	n/a	OATS	-999.0	6	n/a	n/a	pyFR	0	UP019
872.554	10.202	706495	REC_WORD	9.412	n/a	OAR	-999.0	6	n/a	n/a	pyFR	0	UP019
882.756	14.729	711719	REC_WORD	19.614	n/a	BARN	-999.0	6	n/a	n/a	pyFR	0	UP019
897.485	9.151	719261	REC_WORD	34.343	n/a	MAP	-999.0	6	n/a	n/a	pyFR	0	UP019
906.636	5.363	723946	REC_WORD	43.494	n/a	CAT	-999.0	6	n/a	n/a	pyFR	0	UP019
911.999	0.016	726692	TRIAL	n/a	n/a	n/a	-999.0	-999	n/a	n/a	pyFR	0	UP019
912.015	1.6	726701	ORIENT	n/a	n/a	n/a	-999.0	-999	n/a	n/a	pyFR	0	UP019
914.725	1.6	728088	WORD	n/a	wordpools/wordpool_EN.txt	JUDGE	1.0	7	n/a	n/a	pyFR	0	UP019
917.434	1.6	729475	WORD	n/a	wordpools/wordpool_EN.txt	CAR	2.0	7	n/a	n/a	pyFR	0	UP019
920.077	1.6	730829	WORD	n/a	wordpools/wordpool_EN.txt	SPEAR	3.0	7	n/a	n/a	pyFR	0	UP019
922.703	1.6	732173	WORD	n/a	wordpools/wordpool_EN.txt	ROOT	4.0	7	n/a	n/a	pyFR	0	UP019
925.463	1.6	733587	WORD	n/a	wordpools/wordpool_EN.txt	ROCK	5.0	7	n/a	n/a	pyFR	0	UP019
928.072	1.6	734923	WORD	n/a	wordpools/wordpool_EN.txt	SHELL	6.0	7	n/a	n/a	pyFR	0	UP019
930.681	1.6	736258	WORD	n/a	wordpools/wordpool_EN.txt	PALM	7.0	7	n/a	n/a	pyFR	0	UP019
933.391	1.6	737646	WORD	n/a	wordpools/wordpool_EN.txt	HORSE	8.0	7	n/a	n/a	pyFR	0	UP019
935.9	1.6	738931	WORD	n/a	wordpools/wordpool_EN.txt	PARK	9.0	7	n/a	n/a	pyFR	0	UP019
938.426	1.6	740224	WORD	n/a	wordpools/wordpool_EN.txt	FLUTE	10.0	7	n/a	n/a	pyFR	0	UP019
941.002	1.6	741543	WORD	n/a	wordpools/wordpool_EN.txt	FOOT	11.0	7	n/a	n/a	pyFR	0	UP019
943.828	1.6	742990	WORD	n/a	wordpools/wordpool_EN.txt	SAIL	12.0	7	n/a	n/a	pyFR	0	UP019
946.471	1.6	744344	WORD	n/a	wordpools/wordpool_EN.txt	SIGN	13.0	7	n/a	n/a	pyFR	0	UP019
949.281	1.6	745782	WORD	n/a	wordpools/wordpool_EN.txt	HOOK	14.0	7	n/a	n/a	pyFR	0	UP019
951.807	1.6	747076	WORD	n/a	wordpools/wordpool_EN.txt	CUBE	15.0	7	n/a	n/a	pyFR	0	UP019
953.414	0.918	747898	START	n/a	n/a	n/a	n/a	7	[-999 -999 -999]	-999.0	pyFR	0	UP019
954.332	3.078	748368	PROB	3.024	n/a	n/a	n/a	7	[3 5 3]	11.0	pyFR	0	UP019
957.41	1.84	749944	PROB	1.794	n/a	n/a	n/a	7	[1 7 7]	15.0	pyFR	0	UP019
959.25	2.459	750886	PROB	2.418	n/a	n/a	n/a	7	[2 2 4]	8.0	pyFR	0	UP019
961.709	2.977	752145	PROB	2.927	n/a	n/a	n/a	7	[3 9 8]	20.0	pyFR	0	UP019
964.686	2.927	753670	PROB	2.879	n/a	n/a	n/a	7	[4 6 7]	17.0	pyFR	0	UP019
967.613	1.99	755168	PROB	1.936	n/a	n/a	n/a	7	[5 6 1]	12.0	pyFR	0	UP019
969.603	2.844	756187	PROB	2.793	n/a	n/a	n/a	7	[7 7 6]	20.0	pyFR	0	UP019
972.447	2.565	757644	PROB	2.565	n/a	n/a	n/a	7	[4 3 2]	9.0	pyFR	0	UP019
975.012	1.182	758957	STOP	n/a	n/a	n/a	n/a	7	[-999 -999 -999]	-999.0	pyFR	0	UP019
976.194	1.181	759563	REC_START	n/a	n/a	n/a	-999.0	-999	n/a	n/a	pyFR	0	UP019
977.375	0.247	760168	REC_WORD	1.181	n/a	<>	-999.0	7	n/a	n/a	pyFR	0	UP019
977.622	0.271	760294	REC_WORD	1.428	n/a	JUMP	-999.0	7	n/a	n/a	pyFR	0	UP019
977.893	2.811	760433	REC_WORD	1.699	n/a	HEART	-999.0	7	n/a	n/a	pyFR	0	UP019
980.704	1.443	761872	REC_WORD	4.51	n/a	<>	-999.0	7	n/a	n/a	pyFR	0	UP019
982.147	0.539	762611	REC_WORD	5.953	n/a	FLUTE	-999.0	7	n/a	n/a	pyFR	0	UP019
982.686	8.681	762887	REC_WORD	6.492	n/a	FLOW	-999.0	7	n/a	n/a	pyFR	0	UP019
991.367	5.794	767332	REC_WORD	15.173	n/a	STACK	-999.0	7	n/a	n/a	pyFR	0	UP019
997.161	0.7	770299	REC_WORD	20.967	n/a	TAKE	-999.0	7	n/a	n/a	pyFR	0	UP019
997.861	13.737	770657	REC_WORD	21.667	n/a	FLASH	-999.0	7	n/a	n/a	pyFR	0	UP019
1011.598	573.549	777691	REC_WORD	35.404	n/a	MOON	-999.0	7	n/a	n/a	pyFR	0	UP019
1585.147	0.016	1071373	TRIAL	n/a	n/a	n/a	-999.0	-999	n/a	n/a	pyFR	0	UP019
1585.163	1.6	1071381	ORIENT	n/a	n/a	n/a	-999.0	-999	n/a	n/a	pyFR	0	UP019
1587.989	1.6	1072828	WORD	n/a	wordpools/wordpool_EN.txt	GOAT	1.0	8	n/a	n/a	pyFR	0	UP019
1590.732	1.6	1074233	WORD	n/a	wordpools/wordpool_EN.txt	STOOL	2.0	8	n/a	n/a	pyFR	0	UP019
1593.527	1.6	1075664	WORD	n/a	wordpools/wordpool_EN.txt	SHIP	3.0	8	n/a	n/a	pyFR	0	UP019
1596.269	1.6	1077068	WORD	n/a	wordpools/wordpool_EN.txt	CRANE	4.0	8	n/a	n/a	pyFR	0	UP019
1599.045	1.6	1078489	WORD	n/a	wordpools/wordpool_EN.txt	FORK	5.0	8	n/a	n/a	pyFR	0	UP019
1601.522	1.6	1079758	WORD	n/a	wordpools/wordpool_EN.txt	HAWK	6.0	8	n/a	n/a	pyFR	0	UP019
1604.164	1.6	1081111	WORD	n/a	wordpools/wordpool_EN.txt	BOY	7.0	8	n/a	n/a	pyFR	0	UP019
1606.907	1.6	1082515	WORD	n/a	wordpools/wordpool_EN.txt	SOCK	8.0	8	n/a	n/a	pyFR	0	UP019
1609.6	1.6	1083894	WORD	n/a	wordpools/wordpool_EN.txt	SHIRT	9.0	8	n/a	n/a	pyFR	0	UP019
1612.359	1.6	1085307	WORD	n/a	wordpools/wordpool_EN.txt	BED	10.0	8	n/a	n/a	pyFR	0	UP019
1614.919	1.6	1086618	WORD	n/a	wordpools/wordpool_EN.txt	HAT	11.0	8	n/a	n/a	pyFR	0	UP019
1617.612	1.6	1087996	WORD	n/a	wordpools/wordpool_EN.txt	SALT	12.0	8	n/a	n/a	pyFR	0	UP019
1620.422	1.6	1089435	WORD	n/a	wordpools/wordpool_EN.txt	JEEP	13.0	8	n/a	n/a	pyFR	0	UP019
1623.048	1.6	1090780	WORD	n/a	wordpools/wordpool_EN.txt	RUG	14.0	8	n/a	n/a	pyFR	0	UP019
1625.473	1.6	1092022	WORD	n/a	wordpools/wordpool_EN.txt	FOOD	15.0	8	n/a	n/a	pyFR	0	UP019
1627.081	1.202	1092844	START	n/a	n/a	n/a	n/a	8	[-999 -999 -999]	-999.0	pyFR	0	UP019
1628.283	4.332	1093459	PROB	4.283	n/a	n/a	n/a	8	[5 5 8]	18.0	pyFR	0	UP019
1632.615	2.827	1095677	PROB	2.774	n/a	n/a	n/a	8	[2 3 4]	9.0	pyFR	0	UP019
1635.442	3.646	1097125	PROB	3.603	n/a	n/a	n/a	8	[8 3 7]	18.0	pyFR	0	UP019
1639.088	3.245	1098992	PROB	3.189	n/a	n/a	n/a	8	[2 4 7]	13.0	pyFR	0	UP019
1642.333	2.325	1100653	PROB	2.272	n/a	n/a	n/a	8	[6 7 5]	18.0	pyFR	0	UP019
1644.658	2.779	1101844	PROB	2.779	n/a	n/a	n/a	8	[2 3 5]	10.0	pyFR	0	UP019
1647.437	1.153	1103267	STOP	n/a	n/a	n/a	n/a	8	[-999 -999 -999]	-999.0	pyFR	0	UP019
1648.59	0.93	1103859	REC_START	n/a	n/a	n/a	-999.0	-999	n/a	n/a	pyFR	0	UP019
1649.52	0.39	1104335	REC_WORD	0.93	n/a	<>	-999.0	8	n/a	n/a	pyFR	0	UP019
1649.91	1.2	1104534	REC_WORD	1.32	n/a	GOAT	-999.0	8	n/a	n/a	pyFR	0	UP019
1651.11	0.459	1105149	REC_WORD	2.52	n/a	SHOE	-999.0	8	n/a	n/a	pyFR	0	UP019
1651.569	2.057	1105384	REC_WORD	2.979	n/a	SHIP	-999.0	8	n/a	n/a	pyFR	0	UP019
1653.626	2.638	1106437	REC_WORD	5.036	n/a	<>	-999.0	8	n/a	n/a	pyFR	0	UP019
1656.264	0.511	1107788	REC_WORD	7.674	n/a	<>	-999.0	8	n/a	n/a	pyFR	0	UP019
1656.775	1.114	1108050	REC_WORD	8.185	n/a	CRANE	-999.0	8	n/a	n/a	pyFR	0	UP019
1657.889	3.289	1108620	REC_WORD	9.299	n/a	BOAT	-999.0	8	n/a	n/a	pyFR	0	UP019
1661.178	1.13	1110304	REC_WORD	12.588	n/a	HAT	-999.0	8	n/a	n/a	pyFR	0	UP019
1662.308	4.983	1110883	REC_WORD	13.718	n/a	SNACK	-999.0	8	n/a	n/a	pyFR	0	UP019
1667.291	1.151	1113434	REC_WORD	18.701	n/a	<>	-999.0	8	n/a	n/a	pyFR	0	UP019
1668.442	6.179	1114024	REC_WORD	19.852	n/a	CRANE	-999.0	8	n/a	n/a	pyFR	0	UP019
1674.621	7.76	1117187	REC_WORD	26.031	n/a	SHOE	-999.0	8	n/a	n/a	pyFR	0	UP019
1682.381	14.346	1121161	REC_WORD	33.791	n/a	CRACK	-999.0	8	n/a	n/a	pyFR	0	UP019
1696.727	0.016	1128507	TRIAL	n/a	n/a	n/a	-999.0	-999	n/a	n/a	pyFR	0	UP019
1696.743	1.6	1128515	ORIENT	n/a	n/a	n/a	-999.0	-999	n/a	n/a	pyFR	0	UP019
1699.67	1.6	1130014	WORD	n/a	wordpools/wordpool_EN.txt	DEER	1.0	9	n/a	n/a	pyFR	0	UP019
1702.464	1.6	1131444	WORD	n/a	wordpools/wordpool_EN.txt	BRIDGE	2.0	9	n/a	n/a	pyFR	0	UP019
1705.09	1.6	1132789	WORD	n/a	wordpools/wordpool_EN.txt	FISH	3.0	9	n/a	n/a	pyFR	0	UP019
1707.833	1.6	1134193	WORD	n/a	wordpools/wordpool_EN.txt	STONE	4.0	9	n/a	n/a	pyFR	0	UP019
1710.493	1.6	1135555	WORD	n/a	wordpools/wordpool_EN.txt	MAIL	5.0	9	n/a	n/a	pyFR	0	UP019
1713.236	1.6	1136960	WORD	n/a	wordpools/wordpool_EN.txt	STRING	6.0	9	n/a	n/a	pyFR	0	UP019
1715.979	1.6	1138365	WORD	n/a	wordpools/wordpool_EN.txt	LEG	7.0	9	n/a	n/a	pyFR	0	UP019
1718.621	1.6	1139717	WORD	n/a	wordpools/wordpool_EN.txt	SHOE	8.0	9	n/a	n/a	pyFR	0	UP019
1721.398	1.6	1141139	WORD	n/a	wordpools/wordpool_EN.txt	SEAT	9.0	9	n/a	n/a	pyFR	0	UP019
1724.124	1.6	1142535	WORD	n/a	wordpools/wordpool_EN.txt	WAND	10.0	9	n/a	n/a	pyFR	0	UP019
1726.851	1.6	1143931	WORD	n/a	wordpools/wordpool_EN.txt	BRUSH	11.0	9	n/a	n/a	pyFR	0	UP019
1729.293	1.6	1145182	WORD	n/a	wordpools/wordpool_EN.txt	PEN	12.0	9	n/a	n/a	pyFR	0	UP019
1731.768	1.6	1146449	WORD	n/a	wordpools/wordpool_EN.txt	CAVE	13.0	9	n/a	n/a	pyFR	0	UP019
1734.529	1.6	1147863	WORD	n/a	wordpools/wordpool_EN.txt	CAGE	14.0	9	n/a	n/a	pyFR	0	UP019
1737.305	1.6	1149284	WORD	n/a	wordpools/wordpool_EN.txt	POND	15.0	9	n/a	n/a	pyFR	0	UP019
1738.912	1.186	1150106	START	n/a	n/a	n/a	n/a	9	[-999 -999 -999]	-999.0	pyFR	0	UP019
1740.098	6.356	1150713	PROB	6.304	n/a	n/a	n/a	9	[9 2 3]	14.0	pyFR	0	UP019
1746.454	2.092	1153967	PROB	2.045	n/a	n/a	n/a	9	[1 6 7]	14.0	pyFR	0	UP019
1748.546	3.812	1155039	PROB	3.768	n/a	n/a	n/a	9	[3 1 6]	10.0	pyFR	0	UP019
1752.358	2.526	1156991	PROB	2.476	n/a	n/a	n/a	9	[8 9 1]	18.0	pyFR	0	UP019
1754.884	2.258	1158284	PROB	2.206	n/a	n/a	n/a	9	[1 6 4]	11.0	pyFR	0	UP019
1757.142	3.748	1159440	PROB	3.748	n/a	n/a	n/a	9	[6 3 8]	17.0	pyFR	0	UP019
1760.89	1.154	1161359	STOP	n/a	n/a	n/a	n/a	9	[-999 -999 -999]	-999.0	pyFR	0	UP019
1762.044	2.319	1161952	REC_START	n/a	n/a	n/a	-999.0	-999	n/a	n/a	pyFR	0	UP019
1764.363	2.361	1163139	REC_WORD	2.319	n/a	<>	-999.0	9	n/a	n/a	pyFR	0	UP019
1766.724	0.215	1164348	REC_WORD	4.68	n/a	<>	-999.0	9	n/a	n/a	pyFR	0	UP019
1766.939	0.771	1164458	REC_WORD	4.895	n/a	SEAT	-999.0	9	n/a	n/a	pyFR	0	UP019
1767.71	0.667	1164853	REC_WORD	5.666	n/a	LEG	-999.0	9	n/a	n/a	pyFR	0	UP019
1768.377	2.422	1165195	REC_WORD	6.333	n/a	SHOE	-999.0	9	n/a	n/a	pyFR	0	UP019
1770.799	0.322	1166435	REC_WORD	8.755	n/a	WAVE	-999.0	9	n/a	n/a	pyFR	0	UP019
1771.121	2.464	1166600	REC_WORD	9.077	n/a	SHAPE	-999.0	9	n/a	n/a	pyFR	0	UP019
1773.585	9.867	1167861	REC_WORD	11.541	n/a	CAVE	-999.0	9	n/a	n/a	pyFR	0	UP019
1783.452	31.145	1172914	REC_WORD	21.408	n/a	CROW	-999.0	9	n/a	n/a	pyFR	0	UP019
1814.597	0.016	1188861	TRIAL	n/a	n/a	n/a	-999.0	-999	n/a	n/a	pyFR	0	UP019
1814.613	1.6	1188869	ORIENT	n/a	n/a	n/a	-999.0	-999	n/a	n/a	pyFR	0	UP019
1817.306	1.6	1190248	WORD	n/a	wordpools/wordpool_EN.txt	GRASS	1.0	10	n/a	n/a	pyFR	0	UP019
1819.832	1.6	1191542	WORD	n/a	wordpools/wordpool_EN.txt	WEED	2.0	10	n/a	n/a	pyFR	0	UP019
1822.324	1.6	1192818	WORD	n/a	wordpools/wordpool_EN.txt	MOUTH	3.0	10	n/a	n/a	pyFR	0	UP019
1824.95	1.6	1194162	WORD	n/a	wordpools/wordpool_EN.txt	BELL	4.0	10	n/a	n/a	pyFR	0	UP019
1827.442	1.6	1195438	WORD	n/a	wordpools/wordpool_EN.txt	TEA	5.0	10	n/a	n/a	pyFR	0	UP019
1830.219	1.6	1196860	WORD	n/a	wordpools/wordpool_EN.txt	TIE	6.0	10	n/a	n/a	pyFR	0	UP019
1832.661	1.6	1198111	WORD	n/a	wordpools/wordpool_EN.txt	DRESS	7.0	10	n/a	n/a	pyFR	0	UP019
1835.354	1.6	1199490	WORD	n/a	wordpools/wordpool_EN.txt	JET	8.0	10	n/a	n/a	pyFR	0	UP019
1838.164	1.6	1200928	WORD	n/a	wordpools/wordpool_EN.txt	DOCK	9.0	10	n/a	n/a	pyFR	0	UP019
1840.79	1.6	1202273	WORD	n/a	wordpools/wordpool_EN.txt	LOCK	10.0	10	n/a	n/a	pyFR	0	UP019
1843.433	1.6	1203626	WORD	n/a	wordpools/wordpool_EN.txt	STEAK	11.0	10	n/a	n/a	pyFR	0	UP019
1845.908	1.6	1204894	WORD	n/a	wordpools/wordpool_EN.txt	SWORD	12.0	10	n/a	n/a	pyFR	0	UP019
1848.584	1.6	1206264	WORD	n/a	wordpools/wordpool_EN.txt	HOUSE	13.0	10	n/a	n/a	pyFR	0	UP019
1851.344	1.6	1207677	WORD	n/a	wordpools/wordpool_EN.txt	CARD	14.0	10	n/a	n/a	pyFR	0	UP019
1854.07	1.6	1209073	WORD	n/a	wordpools/wordpool_EN.txt	HILL	15.0	10	n/a	n/a	pyFR	0	UP019
1855.678	0.935	1209895	START	n/a	n/a	n/a	n/a	10	[-999 -999 -999]	-999.0	pyFR	0	UP019
1856.613	5.152	1210373	PROB	5.099	n/a	n/a	n/a	10	[3 9 6]	18.0	pyFR	0	UP019
1861.765	3.244	1213011	PROB	3.195	n/a	n/a	n/a	10	[1 8 5]	14.0	pyFR	0	UP019
1865.009	14.367	1214673	PROB	14.367	n/a	n/a	n/a	10	[9 7 9]	25.0	pyFR	0	UP019
1879.376	1.124	1222029	STOP	n/a	n/a	n/a	n/a	10	[-999 -999 -999]	-999.0	pyFR	0	UP019
1880.5	2.348	1222606	REC_START	n/a	n/a	n/a	-999.0	-999	n/a	n/a	pyFR	0	UP019
1882.848	0.373	1223809	REC_WORD	2.348	n/a	<>	-999.0	10	n/a	n/a	pyFR	0	UP019
1883.221	0.37	1224000	REC_WORD	2.721	n/a	GRASS	-999.0	10	n/a	n/a	pyFR	0	UP019
1883.591	0.754	1224189	REC_WORD	3.091	n/a	WEED	-999.0	10	n/a	n/a	pyFR	0	UP019
1884.345	2.628	1224575	REC_WORD	3.845	n/a	HOUSE	-999.0	10	n/a	n/a	pyFR	0	UP019
1886.973	2.142	1225921	REC_WORD	6.473	n/a	<>	-999.0	10	n/a	n/a	pyFR	0	UP019
1889.115	2.513	1227018	REC_WORD	8.615	n/a	<>	-999.0	10	n/a	n/a	pyFR	0	UP019
1891.628	2.346	1228304	REC_WORD	11.128	n/a	SHORE	-999.0	10	n/a	n/a	pyFR	0	UP019
1893.974	5.173	1229506	REC_WORD	13.474	n/a	LIMP	-999.0	10	n/a	n/a	pyFR	0	UP019
1899.147	17.127	1232154	REC_WORD	18.647	n/a	STOVE	-999.0	10	n/a	n/a	pyFR	0	UP019
1916.274	13.751	1240924	REC_WORD	35.774	n/a	FORK	-999.0	10	n/a	n/a	pyFR	0	UP019
1930.025	0.016	1247965	TRIAL	n/a	n/a	n/a	-999.0	-999	n/a	n/a	pyFR	0	UP019
1930.041	1.6	1247973	ORIENT	n/a	n/a	n/a	-999.0	-999	n/a	n/a	pyFR	0	UP019
1932.734	1.6	1249352	WORD	n/a	wordpools/wordpool_EN.txt	TOAD	1.0	11	n/a	n/a	pyFR	0	UP019
1935.209	1.6	1250620	WORD	n/a	wordpools/wordpool_EN.txt	SCHOOL	2.0	11	n/a	n/a	pyFR	0	UP019
1937.819	1.6	1251956	WORD	n/a	wordpools/wordpool_EN.txt	STEAM	3.0	11	n/a	n/a	pyFR	0	UP019
1940.445	1.6	1253301	WORD	n/a	wordpools/wordpool_EN.txt	NET	4.0	11	n/a	n/a	pyFR	0	UP019
1943.004	1.6	1254611	WORD	n/a	wordpools/wordpool_EN.txt	DOG	5.0	11	n/a	n/a	pyFR	0	UP019
1945.764	1.6	1256024	WORD	n/a	wordpools/wordpool_EN.txt	HOLE	6.0	11	n/a	n/a	pyFR	0	UP019
1948.473	1.6	1257411	WORD	n/a	wordpools/wordpool_EN.txt	EAR	7.0	11	n/a	n/a	pyFR	0	UP019
1951.083	1.6	1258748	WORD	n/a	wordpools/wordpool_EN.txt	OAK	8.0	11	n/a	n/a	pyFR	0	UP019
1953.709	1.6	1260092	WORD	n/a	wordpools/wordpool_EN.txt	FLAME	9.0	11	n/a	n/a	pyFR	0	UP019
1956.435	1.6	1261488	WORD	n/a	wordpools/wordpool_EN.txt	PLANT	10.0	11	n/a	n/a	pyFR	0	UP019
1959.212	1.6	1262910	WORD	n/a	wordpools/wordpool_EN.txt	BIRD	11.0	11	n/a	n/a	pyFR	0	UP019
1961.838	1.6	1264255	WORD	n/a	wordpools/wordpool_EN.txt	THUMB	12.0	11	n/a	n/a	pyFR	0	UP019
1964.464	1.6	1265599	WORD	n/a	wordpools/wordpool_EN.txt	EEL	13.0	11	n/a	n/a	pyFR	0	UP019
1967.006	1.6	1266901	WORD	n/a	wordpools/wordpool_EN.txt	CHIN	14.0	11	n/a	n/a	pyFR	0	UP019
1969.465	1.6	1268160	WORD	n/a	wordpools/wordpool_EN.txt	CLOUD	15.0	11	n/a	n/a	pyFR	0	UP019
1971.072	0.985	1268981	START	n/a	n/a	n/a	n/a	11	[-999 -999 -999]	-999.0	pyFR	0	UP019
1972.057	3.061	1269486	PROB	3.017	n/a	n/a	n/a	11	[4 8 5]	17.0	pyFR	0	UP019
1975.118	2.626	1271053	PROB	2.58	n/a	n/a	n/a	11	[5 5 4]	14.0	pyFR	0	UP019
1977.744	3.028	1272398	PROB	2.978	n/a	n/a	n/a	11	[1 2 4]	7.0	pyFR	0	UP019
1980.772	3.01	1273948	PROB	2.958	n/a	n/a	n/a	11	[5 5 9]	19.0	pyFR	0	UP019
1983.782	9.164	1275489	PROB	9.164	n/a	n/a	n/a	11	[4 9 7]	20.0	pyFR	0	UP019
1992.946	1.207	1280182	STOP	n/a	n/a	n/a	n/a	11	[-999 -999 -999]	-999.0	pyFR	0	UP019
1994.153	0.74	1280802	REC_START	n/a	n/a	n/a	-999.0	-999	n/a	n/a	pyFR	0	UP019
1994.893	0.412	1281180	REC_WORD	0.74	n/a	<>	-999.0	11	n/a	n/a	pyFR	0	UP019
1995.305	0.37	1281391	REC_WORD	1.152	n/a	EEL	-999.0	11	n/a	n/a	pyFR	0	UP019
1995.675	0.399	1281581	REC_WORD	1.522	n/a	CHIN	-999.0	11	n/a	n/a	pyFR	0	UP019
1996.074	3.562	1281785	REC_WORD	1.921	n/a	CLOUD	-999.0	11	n/a	n/a	pyFR	0	UP019
1999.636	1.812	1283609	REC_WORD	5.483	n/a	SCHOOL	-999.0	11	n/a	n/a	pyFR	0	UP019
2001.448	1.614	1284537	REC_WORD	7.295	n/a	STROKE	-999.0	11	n/a	n/a	pyFR	0	UP019
2003.062	6.246	1285363	REC_WORD	8.909	n/a	HILL	-999.0	11	n/a	n/a	pyFR	0	UP019
2009.308	2.826	1288562	REC_WORD	15.155	n/a	FEEL	-999.0	11	n/a	n/a	pyFR	0	UP019
2012.134	7.7	1290009	REC_WORD	17.981	n/a	HOLE	-999.0	11	n/a	n/a	pyFR	0	UP019
2019.834	17.322	1293951	REC_WORD	25.681	n/a	SEAT	-999.0	11	n/a	n/a	pyFR	0	UP019
2037.156	4.634	1302821	REC_WORD	43.003	n/a	HAND	-999.0	11	n/a	n/a	pyFR	0	UP019
2041.79	0.016	1305194	TRIAL	n/a	n/a	n/a	-999.0	-999	n/a	n/a	pyFR	0	UP019
2041.806	1.6	1305202	ORIENT	n/a	n/a	n/a	-999.0	-999	n/a	n/a	pyFR	0	UP019
2044.599	1.6	1306632	WORD	n/a	wordpools/wordpool_EN.txt	ICE	1.0	12	n/a	n/a	pyFR	0	UP019
2047.259	1.6	1307994	WORD	n/a	wordpools/wordpool_EN.txt	PIG	2.0	12	n/a	n/a	pyFR	0	UP019
2049.951	1.6	1309372	WORD	n/a	wordpools/wordpool_EN.txt	MAT	3.0	12	n/a	n/a	pyFR	0	UP019
2052.377	1.6	1310615	WORD	n/a	wordpools/wordpool_EN.txt	SHEET	4.0	12	n/a	n/a	pyFR	0	UP019
2055.17	1.6	1312045	WORD	n/a	wordpools/wordpool_EN.txt	BOOT	5.0	12	n/a	n/a	pyFR	0	UP019
2057.93	1.6	1313458	WORD	n/a	wordpools/wordpool_EN.txt	SNAIL	6.0	12	n/a	n/a	pyFR	0	UP019
2060.74	1.6	1314897	WORD	n/a	wordpools/wordpool_EN.txt	GRAPE	7.0	12	n/a	n/a	pyFR	0	UP019
2063.215	1.6	1316164	WORD	n/a	wordpools/wordpool_EN.txt	BOOK	8.0	12	n/a	n/a	pyFR	0	UP019
2065.958	1.6	1317569	WORD	n/a	wordpools/wordpool_EN.txt	GIRL	9.0	12	n/a	n/a	pyFR	0	UP019
2068.467	1.6	1318853	WORD	n/a	wordpools/wordpool_EN.txt	TRASH	10.0	12	n/a	n/a	pyFR	0	UP019
2070.926	1.6	1320113	WORD	n/a	wordpools/wordpool_EN.txt	BANK	11.0	12	n/a	n/a	pyFR	0	UP019
2073.602	1.6	1321483	WORD	n/a	wordpools/wordpool_EN.txt	STAR	12.0	12	n/a	n/a	pyFR	0	UP019
2076.295	1.6	1322862	WORD	n/a	wordpools/wordpool_EN.txt	ANT	13.0	12	n/a	n/a	pyFR	0	UP019
2078.804	1.6	1324146	WORD	n/a	wordpools/wordpool_EN.txt	KITE	14.0	12	n/a	n/a	pyFR	0	UP019
2081.414	1.6	1325483	WORD	n/a	wordpools/wordpool_EN.txt	PIT	15.0	12	n/a	n/a	pyFR	0	UP019
2083.021	0.918	1326304	START	n/a	n/a	n/a	n/a	12	[-999 -999 -999]	-999.0	pyFR	0	UP019
2083.939	3.496	1326774	PROB	3.451	n/a	n/a	n/a	12	[9 9 9]	27.0	pyFR	0	UP019
2087.435	6.123	1328564	PROB	6.076	n/a	n/a	n/a	12	[7 3 6]	15.0	pyFR	0	UP019
2093.558	5.585	1331699	PROB	5.536	n/a	n/a	n/a	12	[1 6 8]	15.0	pyFR	0	UP019
2099.143	2.777	1334559	PROB	2.735	n/a	n/a	n/a	12	[5 9 2]	16.0	pyFR	0	UP019
2101.92	2.549	1335981	PROB	2.549	n/a	n/a	n/a	12	[7 9 8]	24.0	pyFR	0	UP019
2104.469	1.115	1337286	STOP	n/a	n/a	n/a	n/a	12	[-999 -999 -999]	-999.0	pyFR	0	UP019
2105.584	0.931	1337859	REC_START	n/a	n/a	n/a	-999.0	-999	n/a	n/a	pyFR	0	UP019
2106.515	0.45	1338336	REC_WORD	0.931	n/a	<>	-999.0	12	n/a	n/a	pyFR	0	UP019
2106.965	0.817	1338566	REC_WORD	1.381	n/a	EARTH	-999.0	12	n/a	n/a	pyFR	0	UP019
2107.782	0.842	1338984	REC_WORD	2.198	n/a	TRASH	-999.0	12	n/a	n/a	pyFR	0	UP019
2108.624	1.309	1339416	REC_WORD	3.04	n/a	BANK	-999.0	12	n/a	n/a	pyFR	0	UP019
2109.933	6.771	1340086	REC_WORD	4.349	n/a	STAR	-999.0	12	n/a	n/a	pyFR	0	UP019
2116.704	6.038	1343553	REC_WORD	11.12	n/a	ICE	-999.0	12	n/a	n/a	pyFR	0	UP019
2122.742	9.782	1346645	REC_WORD	17.158	n/a	BED	-999.0	12	n/a	n/a	pyFR	0	UP019
2132.524	20.278	1351653	REC_WORD	26.94	n/a	TABLE	-999.0	12	n/a	n/a	pyFR	0	UP019
2152.802	0.016	1362037	TRIAL	n/a	n/a	n/a	-999.0	-999	n/a	n/a	pyFR	0	UP019
2152.818	1.6	1362045	ORIENT	n/a	n/a	n/a	-999.0	-999	n/a	n/a	pyFR	0	UP019
2155.762	1.6	1363552	WORD	n/a	wordpools/wordpool_EN.txt	CLIFF	1.0	13	n/a	n/a	pyFR	0	UP019
2158.404	1.6	1364905	WORD	n/a	wordpools/wordpool_EN.txt	MOOSE	2.0	13	n/a	n/a	pyFR	0	UP019
2161.014	1.6	1366241	WORD	n/a	wordpools/wordpool_EN.txt	NOSE	3.0	13	n/a	n/a	pyFR	0	UP019
2163.723	1.6	1367629	WORD	n/a	wordpools/wordpool_EN.txt	LAWN	4.0	13	n/a	n/a	pyFR	0	UP019
2166.232	1.6	1368913	WORD	n/a	wordpools/wordpool_EN.txt	SOUP	5.0	13	n/a	n/a	pyFR	0	UP019
2168.775	1.6	1370215	WORD	n/a	wordpools/wordpool_EN.txt	ROOM	6.0	13	n/a	n/a	pyFR	0	UP019
2171.485	1.6	1371603	WORD	n/a	wordpools/wordpool_EN.txt	LAMP	7.0	13	n/a	n/a	pyFR	0	UP019
2173.926	1.6	1372853	WORD	n/a	wordpools/wordpool_EN.txt	CHALK	8.0	13	n/a	n/a	pyFR	0	UP019
2176.402	1.6	1374121	WORD	n/a	wordpools/wordpool_EN.txt	COUCH	9.0	13	n/a	n/a	pyFR	0	UP019
2178.927	1.6	1375414	WORD	n/a	wordpools/wordpool_EN.txt	STICK	10.0	13	n/a	n/a	pyFR	0	UP019
2181.654	1.6	1376810	WORD	n/a	wordpools/wordpool_EN.txt	MOUSE	11.0	13	n/a	n/a	pyFR	0	UP019
2184.079	1.6	1378052	WORD	n/a	wordpools/wordpool_EN.txt	BALL	12.0	13	n/a	n/a	pyFR	0	UP019
2186.839	1.6	1379465	WORD	n/a	wordpools/wordpool_EN.txt	SHEEP	13.0	13	n/a	n/a	pyFR	0	UP019
2189.281	1.6	1380715	WORD	n/a	wordpools/wordpool_EN.txt	STREET	14.0	13	n/a	n/a	pyFR	0	UP019
2191.94	1.6	1382077	WORD	n/a	wordpools/wordpool_EN.txt	CHAIR	15.0	13	n/a	n/a	pyFR	0	UP019
2193.549	1.034	1382899	START	n/a	n/a	n/a	n/a	13	[-999 -999 -999]	-999.0	pyFR	0	UP019
2194.583	3.73	1383428	PROB	3.689	n/a	n/a	n/a	13	[9 6 1]	16.0	pyFR	0	UP019
2198.313	4.399	1385338	PROB	4.359	n/a	n/a	n/a	13	[5 5 5]	15.0	pyFR	0	UP019
2202.712	3.446	1387591	PROB	3.392	n/a	n/a	n/a	13	[4 7 9]	20.0	pyFR	0	UP019
2206.158	2.241	1389355	PROB	2.194	n/a	n/a	n/a	13	[6 2 7]	15.0	pyFR	0	UP019
2208.399	1.99	1390503	PROB	1.937	n/a	n/a	n/a	13	[3 8 4]	15.0	pyFR	0	UP019
2210.389	3.419	1391522	PROB	3.419	n/a	n/a	n/a	13	[7 9 6]	22.0	pyFR	0	UP019
2213.808	1.065	1393272	STOP	n/a	n/a	n/a	n/a	13	[-999 -999 -999]	-999.0	pyFR	0	UP019
2214.873	3.415	1393820	REC_START	n/a	n/a	n/a	-999.0	-999	n/a	n/a	pyFR	0	UP019
2218.288	1.0	1395568	REC_WORD	3.415	n/a	<>	-999.0	13	n/a	n/a	pyFR	0	UP019
2219.288	8.151	1396080	REC_WORD	4.415	n/a	<>	-999.0	13	n/a	n/a	pyFR	0	UP019
2227.439	0.995	1400254	REC_WORD	12.566	n/a	<>	-999.0	13	n/a	n/a	pyFR	0	UP019
2228.434	4.641	1400763	REC_WORD	13.561	n/a	TRASH	-999.0	13	n/a	n/a	pyFR	0	UP019
2233.075	3.881	1403140	REC_WORD	18.202	n/a	TEAM	-999.0	13	n/a	n/a	pyFR	0	UP019
2236.956	2.47	1405127	REC_WORD	22.083	n/a	STREAM	-999.0	13	n/a	n/a	pyFR	0	UP019
2239.426	3.245	1406392	REC_WORD	24.553	n/a	STAIR	-999.0	13	n/a	n/a	pyFR	0	UP019
2242.671	11.275	1408053	REC_WORD	27.798	n/a	MOON	-999.0	13	n/a	n/a	pyFR	0	UP019
2253.946	2.601	1413827	REC_WORD	39.073	n/a	HIGH	-999.0	13	n/a	n/a	pyFR	0	UP019
2256.547	8.873	1415158	REC_WORD	41.674	n/a	GO	-999.0	13	n/a	n/a	pyFR	0	UP019
2265.42	0.016	1419702	TRIAL	n/a	n/a	n/a	-999.0	-999	n/a	n/a	pyFR	0	UP019
2265.436	1.6	1419710	ORIENT	n/a	n/a	n/a	-999.0	-999	n/a	n/a	pyFR	0	UP019
2268.396	1.6	1421226	WORD	n/a	wordpools/wordpool_EN.txt	CASH	1.0	14	n/a	n/a	pyFR	0	UP019
2271.055	1.6	1422587	WORD	n/a	wordpools/wordpool_EN.txt	SEAL	2.0	14	n/a	n/a	pyFR	0	UP019
2273.631	1.6	1423906	WORD	n/a	wordpools/wordpool_EN.txt	BADGE	3.0	14	n/a	n/a	pyFR	0	UP019
2276.224	1.6	1425234	WORD	n/a	wordpools/wordpool_EN.txt	FOX	4.0	14	n/a	n/a	pyFR	0	UP019
2278.766	1.6	1426536	WORD	n/a	wordpools/wordpool_EN.txt	COW	5.0	14	n/a	n/a	pyFR	0	UP019
2281.309	1.6	1427838	WORD	n/a	wordpools/wordpool_EN.txt	AXE	6.0	14	n/a	n/a	pyFR	0	UP019
2283.801	1.6	1429114	WORD	n/a	wordpools/wordpool_EN.txt	CLOCK	7.0	14	n/a	n/a	pyFR	0	UP019
2286.46	1.6	1430475	WORD	n/a	wordpools/wordpool_EN.txt	VEST	8.0	14	n/a	n/a	pyFR	0	UP019
2288.986	1.6	1431769	WORD	n/a	wordpools/wordpool_EN.txt	WAVE	9.0	14	n/a	n/a	pyFR	0	UP019
2291.662	1.6	1433139	WORD	n/a	wordpools/wordpool_EN.txt	BOAT	10.0	14	n/a	n/a	pyFR	0	UP019
2294.372	1.6	1434526	WORD	n/a	wordpools/wordpool_EN.txt	WHALE	11.0	14	n/a	n/a	pyFR	0	UP019
2296.981	1.6	1435862	WORD	n/a	wordpools/wordpool_EN.txt	BATH	12.0	14	n/a	n/a	pyFR	0	UP019
2299.59	1.6	1437198	WORD	n/a	wordpools/wordpool_EN.txt	HEN	13.0	14	n/a	n/a	pyFR	0	UP019
2302.3	1.6	1438586	WORD	n/a	wordpools/wordpool_EN.txt	TOOL	14.0	14	n/a	n/a	pyFR	0	UP019
2304.96	1.6	1439948	WORD	n/a	wordpools/wordpool_EN.txt	SHRIMP	15.0	14	n/a	n/a	pyFR	0	UP019
2306.568	0.834	1440769	START	n/a	n/a	n/a	n/a	14	[-999 -999 -999]	-999.0	pyFR	0	UP019
2307.402	4.215	1441196	PROB	4.159	n/a	n/a	n/a	14	[9 5 4]	18.0	pyFR	0	UP019
2311.617	3.362	1443354	PROB	3.311	n/a	n/a	n/a	14	[6 2 3]	11.0	pyFR	0	UP019
2314.979	3.679	1445076	PROB	3.629	n/a	n/a	n/a	14	[8 7 5]	20.0	pyFR	0	UP019
2318.658	3.479	1446960	PROB	3.43	n/a	n/a	n/a	14	[7 7 7]	21.0	pyFR	0	UP019
2322.137	4.664	1448741	PROB	4.664	n/a	n/a	n/a	14	[7 5 7]	19.0	pyFR	0	UP019
2326.801	1.074	1451129	STOP	n/a	n/a	n/a	n/a	14	[-999 -999 -999]	-999.0	pyFR	0	UP019
2327.875	3.521	1451681	REC_START	n/a	n/a	n/a	-999.0	-999	n/a	n/a	pyFR	0	UP019
2331.396	0.288	1453484	REC_WORD	3.521	n/a	<>	-999.0	14	n/a	n/a	pyFR	0	UP019
2331.684	2.77	1453632	REC_WORD	3.809	n/a	CASH	-999.0	14	n/a	n/a	pyFR	0	UP019
2334.454	0.468	1455050	REC_WORD	6.579	n/a	<>	-999.0	14	n/a	n/a	pyFR	0	UP019
2334.922	3.602	1455290	REC_WORD	7.047	n/a	BEAN	-999.0	14	n/a	n/a	pyFR	0	UP019
2338.524	0.318	1457134	REC_WORD	10.649	n/a	<>	-999.0	14	n/a	n/a	pyFR	0	UP019
2338.842	6.917	1457297	REC_WORD	10.967	n/a	SHRIMP	-999.0	14	n/a	n/a	pyFR	0	UP019
2345.759	18.721	1460839	REC_WORD	17.884	n/a	BOAT	-999.0	14	n/a	n/a	pyFR	0	UP019
2364.48	5.655	1470425	REC_WORD	36.605	n/a	WHALE	-999.0	14	n/a	n/a	pyFR	0	UP019
2370.135	6.18	1473320	REC_WORD	42.26	n/a	MILE	-999.0	14	n/a	n/a	pyFR	0	UP019
2376.315	0.016	1476485	TRIAL	n/a	n/a	n/a	-999.0	-999	n/a	n/a	pyFR	0	UP019
2376.331	1.6	1476493	ORIENT	n/a	n/a	n/a	-999.0	-999	n/a	n/a	pyFR	0	UP019
2378.973	1.6	1477846	WORD	n/a	wordpools/wordpool_EN.txt	CLOTH	1.0	15	n/a	n/a	pyFR	0	UP019
2381.75	1.6	1479268	WORD	n/a	wordpools/wordpool_EN.txt	SKI	2.0	15	n/a	n/a	pyFR	0	UP019
2384.376	1.6	1480612	WORD	n/a	wordpools/wordpool_EN.txt	JUICE	3.0	15	n/a	n/a	pyFR	0	UP019
2386.985	1.6	1481948	WORD	n/a	wordpools/wordpool_EN.txt	HOOF	4.0	15	n/a	n/a	pyFR	0	UP019
2389.762	1.6	1483370	WORD	n/a	wordpools/wordpool_EN.txt	SNAKE	5.0	15	n/a	n/a	pyFR	0	UP019
2392.471	1.6	1484757	WORD	n/a	wordpools/wordpool_EN.txt	CROWN	6.0	15	n/a	n/a	pyFR	0	UP019
2395.081	1.6	1486094	WORD	n/a	wordpools/wordpool_EN.txt	TAIL	7.0	15	n/a	n/a	pyFR	0	UP019
2397.606	1.6	1487387	WORD	n/a	wordpools/wordpool_EN.txt	GEESE	8.0	15	n/a	n/a	pyFR	0	UP019
2400.333	1.6	1488783	WORD	n/a	wordpools/wordpool_EN.txt	TENT	9.0	15	n/a	n/a	pyFR	0	UP019
2403.143	1.6	1490222	WORD	n/a	wordpools/wordpool_EN.txt	TANK	10.0	15	n/a	n/a	pyFR	0	UP019
2405.852	1.6	1491609	WORD	n/a	wordpools/wordpool_EN.txt	POOL	11.0	15	n/a	n/a	pyFR	0	UP019
2408.546	1.6	1492988	WORD	n/a	wordpools/wordpool_EN.txt	WALL	12.0	15	n/a	n/a	pyFR	0	UP019
2411.322	1.6	1494410	WORD	n/a	wordpools/wordpool_EN.txt	TRUCK	13.0	15	n/a	n/a	pyFR	0	UP019
2414.065	1.6	1495814	WORD	n/a	wordpools/wordpool_EN.txt	RAIN	14.0	15	n/a	n/a	pyFR	0	UP019
2416.808	1.6	1497219	WORD	n/a	wordpools/wordpool_EN.txt	WHEEL	15.0	15	n/a	n/a	pyFR	0	UP019
2418.416	1.001	1498040	START	n/a	n/a	n/a	n/a	15	[-999 -999 -999]	-999.0	pyFR	0	UP019
2419.417	2.559	1498553	PROB	2.517	n/a	n/a	n/a	15	[1 1 3]	5.0	pyFR	0	UP019
2421.976	2.877	1499863	PROB	2.822	n/a	n/a	n/a	15	[6 8 8]	22.0	pyFR	0	UP019
2424.853	2.375	1501336	PROB	2.321	n/a	n/a	n/a	15	[8 4 6]	18.0	pyFR	0	UP019
2427.228	2.576	1502552	PROB	2.522	n/a	n/a	n/a	15	[9 1 9]	19.0	pyFR	0	UP019
2429.804	1.924	1503871	PROB	1.882	n/a	n/a	n/a	15	[6 1 4]	11.0	pyFR	0	UP019
2431.728	3.445	1504856	PROB	3.39	n/a	n/a	n/a	15	[9 2 5]	16.0	pyFR	0	UP019
2435.173	2.108	1506620	PROB	2.057	n/a	n/a	n/a	15	[1 6 1]	8.0	pyFR	0	UP019
2437.281	2.23	1507700	PROB	2.23	n/a	n/a	n/a	15	[1 9 3]	13.0	pyFR	0	UP019
2439.511	1.083	1508842	STOP	n/a	n/a	n/a	n/a	15	[-999 -999 -999]	-999.0	pyFR	0	UP019
2440.594	2.896	1509398	REC_START	n/a	n/a	n/a	-999.0	-999	n/a	n/a	pyFR	0	UP019
2443.49	0.881	1510881	REC_WORD	2.896	n/a	<>	-999.0	15	n/a	n/a	pyFR	0	UP019
2444.371	0.844	1511332	REC_WORD	3.777	n/a	<>	-999.0	15	n/a	n/a	pyFR	0	UP019
2445.215	0.598	1511764	REC_WORD	4.621	n/a	CLOTH	-999.0	15	n/a	n/a	pyFR	0	UP019
2445.813	2.12	1512071	REC_WORD	5.219	n/a	SKI	-999.0	15	n/a	n/a	pyFR	0	UP019
2447.933	5.601	1513156	REC_WORD	7.339	n/a	<>	-999.0	15	n/a	n/a	pyFR	0	UP019
2453.534	1.795	1516024	REC_WORD	12.94	n/a	TABLE	-999.0	15	n/a	n/a	pyFR	0	UP019
2455.329	16.936	1516943	REC_WORD	14.735	n/a	<>	-999.0	15	n/a	n/a	pyFR	0	UP019
2472.265	4.863	1525615	REC_WORD	31.671	n/a	BAG	-999.0	15	n/a	n/a	pyFR	0	UP019
2477.128	4.714	1528105	REC_WORD	36.534	n/a	JUMP	-999.0	15	n/a	n/a	pyFR	0	UP019
2481.842	6.254	1530519	REC_WORD	41.248	n/a	COURSE	-999.0	15	n/a	n/a	pyFR	0	UP019
2488.096	0.016	1533721	TRIAL	n/a	n/a	n/a	-999.0	-999	n/a	n/a	pyFR	0	UP019
2488.112	1.6	1533730	ORIENT	n/a	n/a	n/a	-999.0	-999	n/a	n/a	pyFR	0	UP019
2490.939	1.6	1535177	WORD	n/a	wordpools/wordpool_EN.txt	ROSE	1.0	16	n/a	n/a	pyFR	0	UP019
2493.549	1.6	1536514	WORD	n/a	wordpools/wordpool_EN.txt	RAKE	2.0	16	n/a	n/a	pyFR	0	UP019
2496.024	1.6	1537781	WORD	n/a	wordpools/wordpool_EN.txt	PRINCE	3.0	16	n/a	n/a	pyFR	0	UP019
2498.666	1.6	1539134	WORD	n/a	wordpools/wordpool_EN.txt	LIP	4.0	16	n/a	n/a	pyFR	0	UP019
2501.393	1.6	1540530	WORD	n/a	wordpools/wordpool_EN.txt	QUEEN	5.0	16	n/a	n/a	pyFR	0	UP019
2504.035	1.6	1541883	WORD	n/a	wordpools/wordpool_EN.txt	ELF	6.0	16	n/a	n/a	pyFR	0	UP019
2506.595	1.6	1543194	WORD	n/a	wordpools/wordpool_EN.txt	GOLD	7.0	16	n/a	n/a	pyFR	0	UP019
2509.204	1.6	1544530	WORD	n/a	wordpools/wordpool_EN.txt	CONE	8.0	16	n/a	n/a	pyFR	0	UP019
2511.88	1.6	1545900	WORD	n/a	wordpools/wordpool_EN.txt	WOOD	9.0	16	n/a	n/a	pyFR	0	UP019
2514.557	1.6	1547271	WORD	n/a	wordpools/wordpool_EN.txt	PIN	10.0	16	n/a	n/a	pyFR	0	UP019
2517.216	1.6	1548632	WORD	n/a	wordpools/wordpool_EN.txt	SMOKE	11.0	16	n/a	n/a	pyFR	0	UP019
2519.825	1.6	1549968	WORD	n/a	wordpools/wordpool_EN.txt	SWAMP	12.0	16	n/a	n/a	pyFR	0	UP019
2522.601	1.6	1551389	WORD	n/a	wordpools/wordpool_EN.txt	PEARL	13.0	16	n/a	n/a	pyFR	0	UP019
2525.127	1.6	1552683	WORD	n/a	wordpools/wordpool_EN.txt	PIPE	14.0	16	n/a	n/a	pyFR	0	UP019
2527.82	1.6	1554062	WORD	n/a	wordpools/wordpool_EN.txt	MILK	15.0	16	n/a	n/a	pyFR	0	UP019
2529.428	1.103	1554883	START	n/a	n/a	n/a	n/a	16	[-999 -999 -999]	-999.0	pyFR	0	UP019
2530.531	3.327	1555448	PROB	3.284	n/a	n/a	n/a	16	[4 1 9]	14.0	pyFR	0	UP019
2533.858	2.292	1557151	PROB	2.245	n/a	n/a	n/a	16	[1 8 9]	18.0	pyFR	0	UP019
2536.15	3.847	1558325	PROB	3.793	n/a	n/a	n/a	16	[9 5 8]	22.0	pyFR	0	UP019
2539.997	3.194	1560295	PROB	3.138	n/a	n/a	n/a	16	[8 7 4]	19.0	pyFR	0	UP019
2543.191	2.36	1561930	PROB	2.305	n/a	n/a	n/a	16	[5 9 9]	23.0	pyFR	0	UP019
2545.551	2.34	1563138	PROB	2.288	n/a	n/a	n/a	16	[6 5 8]	19.0	pyFR	0	UP019
2547.891	2.084	1564337	PROB	2.084	n/a	n/a	n/a	16	[9 4 1]	14.0	pyFR	0	UP019
2549.975	1.112	1565404	STOP	n/a	n/a	n/a	n/a	16	[-999 -999 -999]	-999.0	pyFR	0	UP019
2551.087	0.658	1565975	REC_START	n/a	n/a	n/a	-999.0	-999	n/a	n/a	pyFR	0	UP019
2551.745	0.411	1566312	REC_WORD	0.658	n/a	<>	-999.0	16	n/a	n/a	pyFR	0	UP019
2552.156	0.36	1566523	REC_WORD	1.069	n/a	PIN	-999.0	16	n/a	n/a	pyFR	0	UP019
2552.516	0.444	1566707	REC_WORD	1.429	n/a	SMOKE	-999.0	16	n/a	n/a	pyFR	0	UP019
2552.96	2.373	1566935	REC_WORD	1.873	n/a	SWAMP	-999.0	16	n/a	n/a	pyFR	0	UP019
2555.333	2.092	1568150	REC_WORD	4.246	n/a	<>	-999.0	16	n/a	n/a	pyFR	0	UP019
2557.425	5.471	1569221	REC_WORD	6.338	n/a	HILL	-999.0	16	n/a	n/a	pyFR	0	UP019
2562.896	1.0	1572022	REC_WORD	11.809	n/a	<>	-999.0	16	n/a	n/a	pyFR	0	UP019
2563.896	1.152	1572534	REC_WORD	12.809	n/a	<>	-999.0	16	n/a	n/a	pyFR	0	UP019
2565.048	13.278	1573124	REC_WORD	13.961	n/a	<>	-999.0	16	n/a	n/a	pyFR	0	UP019
2578.326	579.121	1579923	REC_WORD	27.239	n/a	ICE	-999.0	16	n/a	n/a	pyFR	0	UP019
3157.447	0.131	1876458	SESS_END	n/a	n/a	n/a	-999.0	-999	n/a	n/a	pyFR	0	UP019
3157.578	0.0	1876525	E	n/a	n/a	n/a	-999.0	-999	n/a	n/a	pyFR	0	UP019
