onset	duration	sample	trial_type	response_time	stim_file	item_name	serialpos	list	test	answer	experiment	session	subject
0.0	4.48	187655	E	n/a	n/a	n/a	-999	9	n/a	n/a	pyFR	2	TJ054
4.48	0.0	192135	SESS_START	n/a	n/a	n/a	-999	-999	n/a	n/a	pyFR	2	TJ054
4.48	10.32	192135	B	n/a	n/a	n/a	-999	-999	n/a	n/a	pyFR	2	TJ054
14.8	0.023	202455	START	n/a	n/a	n/a	n/a	0	[-999 -999 -999]	-999	pyFR	2	TJ054
14.823	21.003	202478	PROB	20.976	n/a	n/a	n/a	0	[1 4 2]	7	pyFR	2	TJ054
35.826	20.334	223480	PROB	20.334	n/a	n/a	n/a	0	[1 9 6]	16	pyFR	2	TJ054
56.16	24.458	243813	STOP	n/a	n/a	n/a	n/a	0	[-999 -999 -999]	-999	pyFR	2	TJ054
80.618	0.016	268270	TRIAL	n/a	n/a	n/a	-999	1	n/a	n/a	pyFR	2	TJ054
80.634	2.687	268286	ORIENT	n/a	n/a	n/a	-999	1	n/a	n/a	pyFR	2	TJ054
83.321	2.422	270973	WORD	n/a	wordpools/wordpool_EN.txt	SPOON	1	1	n/a	n/a	pyFR	2	TJ054
85.743	2.586	273395	WORD	n/a	wordpools/wordpool_EN.txt	PLATE	2	1	n/a	n/a	pyFR	2	TJ054
88.329	2.805	275981	WORD	n/a	wordpools/wordpool_EN.txt	STORE	3	1	n/a	n/a	pyFR	2	TJ054
91.134	2.706	278786	WORD	n/a	wordpools/wordpool_EN.txt	SHIELD	4	1	n/a	n/a	pyFR	2	TJ054
93.84	2.454	281492	WORD	n/a	wordpools/wordpool_EN.txt	STEAK	5	1	n/a	n/a	pyFR	2	TJ054
96.294	2.437	283946	WORD	n/a	wordpools/wordpool_EN.txt	CAVE	6	1	n/a	n/a	pyFR	2	TJ054
98.731	2.788	286383	WORD	n/a	wordpools/wordpool_EN.txt	COAT	7	1	n/a	n/a	pyFR	2	TJ054
101.519	2.57	289171	WORD	n/a	wordpools/wordpool_EN.txt	TRAIN	8	1	n/a	n/a	pyFR	2	TJ054
104.089	2.556	291740	WORD	n/a	wordpools/wordpool_EN.txt	STRAW	9	1	n/a	n/a	pyFR	2	TJ054
106.645	2.636	294296	WORD	n/a	wordpools/wordpool_EN.txt	PASTE	10	1	n/a	n/a	pyFR	2	TJ054
109.281	2.539	296932	WORD	n/a	wordpools/wordpool_EN.txt	GLOVE	11	1	n/a	n/a	pyFR	2	TJ054
111.82	2.788	299471	WORD	n/a	wordpools/wordpool_EN.txt	YARD	12	1	n/a	n/a	pyFR	2	TJ054
114.608	2.62	302259	WORD	n/a	wordpools/wordpool_EN.txt	BEACH	13	1	n/a	n/a	pyFR	2	TJ054
117.228	2.572	304879	WORD	n/a	wordpools/wordpool_EN.txt	WOOD	14	1	n/a	n/a	pyFR	2	TJ054
119.8	1.62	307451	WORD	n/a	wordpools/wordpool_EN.txt	RUG	15	1	n/a	n/a	pyFR	2	TJ054
121.42	1.034	309071	START	n/a	n/a	n/a	n/a	1	[-999 -999 -999]	-999	pyFR	2	TJ054
122.454	40.336	310105	PROB	40.336	n/a	n/a	n/a	1	[9 7 9]	25	pyFR	2	TJ054
162.79	1.135	350439	STOP	n/a	n/a	n/a	n/a	1	[-999 -999 -999]	-999	pyFR	2	TJ054
163.925	1.41	351574	REC_START	n/a	n/a	n/a	-999	1	n/a	n/a	pyFR	2	TJ054
165.335	1.006	352984	REC_WORD	1.41	n/a	SPOON	-999	1	n/a	n/a	pyFR	2	TJ054
166.341	1.014	353990	REC_WORD	2.416	n/a	PLATE	-999	1	n/a	n/a	pyFR	2	TJ054
167.355	1.058	355004	REC_WORD	3.43	n/a	RUG	-999	1	n/a	n/a	pyFR	2	TJ054
168.413	0.848	356062	REC_WORD	4.488	n/a	BEACH	-999	1	n/a	n/a	pyFR	2	TJ054
169.261	1.377	356910	REC_WORD	5.336	n/a	WOOD	-999	1	n/a	n/a	pyFR	2	TJ054
170.638	44.605	358287	REC_WORD	6.713	n/a	CAVE	-999	1	n/a	n/a	pyFR	2	TJ054
215.243	0.016	402890	TRIAL	n/a	n/a	n/a	-999	2	n/a	n/a	pyFR	2	TJ054
215.259	2.723	402906	ORIENT	n/a	n/a	n/a	-999	2	n/a	n/a	pyFR	2	TJ054
217.982	2.453	405629	WORD	n/a	wordpools/wordpool_EN.txt	GUARD	1	2	n/a	n/a	pyFR	2	TJ054
220.435	2.655	408082	WORD	n/a	wordpools/wordpool_EN.txt	SIGN	2	2	n/a	n/a	pyFR	2	TJ054
223.09	2.622	410737	WORD	n/a	wordpools/wordpool_EN.txt	COUCH	3	2	n/a	n/a	pyFR	2	TJ054
225.712	2.653	413359	WORD	n/a	wordpools/wordpool_EN.txt	WALL	4	2	n/a	n/a	pyFR	2	TJ054
228.365	2.721	416012	WORD	n/a	wordpools/wordpool_EN.txt	HAT	5	2	n/a	n/a	pyFR	2	TJ054
231.086	2.539	418733	WORD	n/a	wordpools/wordpool_EN.txt	BREAD	6	2	n/a	n/a	pyFR	2	TJ054
233.625	2.486	421272	WORD	n/a	wordpools/wordpool_EN.txt	BLUSH	7	2	n/a	n/a	pyFR	2	TJ054
236.111	2.556	423758	WORD	n/a	wordpools/wordpool_EN.txt	STOOL	8	2	n/a	n/a	pyFR	2	TJ054
238.667	2.653	426313	WORD	n/a	wordpools/wordpool_EN.txt	BRICK	9	2	n/a	n/a	pyFR	2	TJ054
241.32	2.505	428966	WORD	n/a	wordpools/wordpool_EN.txt	FUR	10	2	n/a	n/a	pyFR	2	TJ054
243.825	2.437	431471	WORD	n/a	wordpools/wordpool_EN.txt	MOON	11	2	n/a	n/a	pyFR	2	TJ054
246.262	2.622	433908	WORD	n/a	wordpools/wordpool_EN.txt	LAWN	12	2	n/a	n/a	pyFR	2	TJ054
248.884	2.687	436530	WORD	n/a	wordpools/wordpool_EN.txt	THREAD	13	2	n/a	n/a	pyFR	2	TJ054
251.571	2.604	439217	WORD	n/a	wordpools/wordpool_EN.txt	WING	14	2	n/a	n/a	pyFR	2	TJ054
254.175	1.605	441821	WORD	n/a	wordpools/wordpool_EN.txt	BEAK	15	2	n/a	n/a	pyFR	2	TJ054
255.78	1.084	443426	START	n/a	n/a	n/a	n/a	2	[-999 -999 -999]	-999	pyFR	2	TJ054
256.864	24.313	444510	PROB	24.313	n/a	n/a	n/a	2	[4 1 9]	14	pyFR	2	TJ054
281.177	1.129	468822	STOP	n/a	n/a	n/a	n/a	2	[-999 -999 -999]	-999	pyFR	2	TJ054
282.306	2.369	469951	REC_START	n/a	n/a	n/a	-999	2	n/a	n/a	pyFR	2	TJ054
284.675	1.079	472320	REC_WORD	2.369	n/a	BEAK	-999	2	n/a	n/a	pyFR	2	TJ054
285.754	1.221	473399	REC_WORD	3.448	n/a	WING	-999	2	n/a	n/a	pyFR	2	TJ054
286.975	70.19	474620	REC_WORD	4.669	n/a	MOON	-999	2	n/a	n/a	pyFR	2	TJ054
357.165	0.017	544807	TRIAL	n/a	n/a	n/a	-999	3	n/a	n/a	pyFR	2	TJ054
357.182	2.888	544824	ORIENT	n/a	n/a	n/a	-999	3	n/a	n/a	pyFR	2	TJ054
360.07	2.622	547712	WORD	n/a	wordpools/wordpool_EN.txt	MOUTH	1	3	n/a	n/a	pyFR	2	TJ054
362.692	2.637	550334	WORD	n/a	wordpools/wordpool_EN.txt	BRANCH	2	3	n/a	n/a	pyFR	2	TJ054
365.329	2.738	552971	WORD	n/a	wordpools/wordpool_EN.txt	VEST	3	3	n/a	n/a	pyFR	2	TJ054
368.067	2.739	555709	WORD	n/a	wordpools/wordpool_EN.txt	GRAPE	4	3	n/a	n/a	pyFR	2	TJ054
370.806	2.553	558448	WORD	n/a	wordpools/wordpool_EN.txt	HILL	5	3	n/a	n/a	pyFR	2	TJ054
373.359	2.472	561000	WORD	n/a	wordpools/wordpool_EN.txt	GOLD	6	3	n/a	n/a	pyFR	2	TJ054
375.831	2.603	563472	WORD	n/a	wordpools/wordpool_EN.txt	AXE	7	3	n/a	n/a	pyFR	2	TJ054
378.434	2.522	566075	WORD	n/a	wordpools/wordpool_EN.txt	RAKE	8	3	n/a	n/a	pyFR	2	TJ054
380.956	2.453	568597	WORD	n/a	wordpools/wordpool_EN.txt	EEL	9	3	n/a	n/a	pyFR	2	TJ054
383.409	2.589	571050	WORD	n/a	wordpools/wordpool_EN.txt	FAN	10	3	n/a	n/a	pyFR	2	TJ054
385.998	2.603	573639	WORD	n/a	wordpools/wordpool_EN.txt	BED	11	3	n/a	n/a	pyFR	2	TJ054
388.601	2.688	576242	WORD	n/a	wordpools/wordpool_EN.txt	BAND	12	3	n/a	n/a	pyFR	2	TJ054
391.289	2.639	578930	WORD	n/a	wordpools/wordpool_EN.txt	STAR	13	3	n/a	n/a	pyFR	2	TJ054
393.928	2.471	581569	WORD	n/a	wordpools/wordpool_EN.txt	CHIEF	14	3	n/a	n/a	pyFR	2	TJ054
396.399	1.619	584040	WORD	n/a	wordpools/wordpool_EN.txt	BELL	15	3	n/a	n/a	pyFR	2	TJ054
398.018	1.034	585658	START	n/a	n/a	n/a	n/a	3	[-999 -999 -999]	-999	pyFR	2	TJ054
399.052	13.674	586692	PROB	13.643	n/a	n/a	n/a	3	[6 3 6]	15	pyFR	2	TJ054
412.726	20.498	600366	PROB	20.498	n/a	n/a	n/a	3	[1 6 9]	16	pyFR	2	TJ054
433.224	1.155	620863	STOP	n/a	n/a	n/a	n/a	3	[-999 -999 -999]	-999	pyFR	2	TJ054
434.379	0.613	622018	REC_START	n/a	n/a	n/a	-999	3	n/a	n/a	pyFR	2	TJ054
434.992	0.496	622631	REC_WORD	0.613	n/a	BED	-999	3	n/a	n/a	pyFR	2	TJ054
435.488	1.0	623127	REC_WORD	1.109	n/a	BAND	-999	3	n/a	n/a	pyFR	2	TJ054
436.488	1.0	624127	REC_WORD_VV	2.109	n/a	<>	-999	3	n/a	n/a	pyFR	2	TJ054
437.488	63.753	625127	REC_WORD_VV	3.109	n/a	<>	-999	3	n/a	n/a	pyFR	2	TJ054
501.241	0.016	688878	TRIAL	n/a	n/a	n/a	-999	4	n/a	n/a	pyFR	2	TJ054
501.257	2.939	688894	ORIENT	n/a	n/a	n/a	-999	4	n/a	n/a	pyFR	2	TJ054
504.196	2.555	691833	WORD	n/a	wordpools/wordpool_EN.txt	WORLD	1	4	n/a	n/a	pyFR	2	TJ054
506.751	2.72	694387	WORD	n/a	wordpools/wordpool_EN.txt	LEAF	2	4	n/a	n/a	pyFR	2	TJ054
509.471	2.439	697107	WORD	n/a	wordpools/wordpool_EN.txt	FUDGE	3	4	n/a	n/a	pyFR	2	TJ054
511.91	2.737	699546	WORD	n/a	wordpools/wordpool_EN.txt	TRAY	4	4	n/a	n/a	pyFR	2	TJ054
514.647	2.688	702283	WORD	n/a	wordpools/wordpool_EN.txt	TOAD	5	4	n/a	n/a	pyFR	2	TJ054
517.335	2.538	704971	WORD	n/a	wordpools/wordpool_EN.txt	SNAIL	6	4	n/a	n/a	pyFR	2	TJ054
519.873	2.755	707509	WORD	n/a	wordpools/wordpool_EN.txt	RAT	7	4	n/a	n/a	pyFR	2	TJ054
522.628	2.687	710264	WORD	n/a	wordpools/wordpool_EN.txt	SWAMP	8	4	n/a	n/a	pyFR	2	TJ054
525.315	2.622	712951	WORD	n/a	wordpools/wordpool_EN.txt	ROSE	9	4	n/a	n/a	pyFR	2	TJ054
527.937	2.671	715573	WORD	n/a	wordpools/wordpool_EN.txt	MULE	10	4	n/a	n/a	pyFR	2	TJ054
530.608	2.82	718244	WORD	n/a	wordpools/wordpool_EN.txt	FRUIT	11	4	n/a	n/a	pyFR	2	TJ054
533.428	2.605	721063	WORD	n/a	wordpools/wordpool_EN.txt	STEM	12	4	n/a	n/a	pyFR	2	TJ054
536.033	2.705	723668	WORD	n/a	wordpools/wordpool_EN.txt	ROOT	13	4	n/a	n/a	pyFR	2	TJ054
538.738	2.437	726373	WORD	n/a	wordpools/wordpool_EN.txt	PIG	14	4	n/a	n/a	pyFR	2	TJ054
541.175	1.621	728810	WORD	n/a	wordpools/wordpool_EN.txt	TREE	15	4	n/a	n/a	pyFR	2	TJ054
542.796	0.934	730431	START	n/a	n/a	n/a	n/a	4	[-999 -999 -999]	-999	pyFR	2	TJ054
543.73	13.906	731365	PROB	13.87	n/a	n/a	n/a	4	[4 1 7]	12	pyFR	2	TJ054
557.636	26.206	745271	PROB	26.206	n/a	n/a	n/a	4	[7 9 1]	17	pyFR	2	TJ054
583.842	1.19	771476	STOP	n/a	n/a	n/a	n/a	4	[-999 -999 -999]	-999	pyFR	2	TJ054
585.032	2.117	772665	REC_START	n/a	n/a	n/a	-999	4	n/a	n/a	pyFR	2	TJ054
587.149	2.882	774782	REC_WORD	2.117	n/a	RAT	-999	4	n/a	n/a	pyFR	2	TJ054
590.031	45.519	777664	REC_WORD	4.999	n/a	SWAMP	-999	4	n/a	n/a	pyFR	2	TJ054
635.55	0.017	823182	TRIAL	n/a	n/a	n/a	-999	5	n/a	n/a	pyFR	2	TJ054
635.567	2.738	823199	ORIENT	n/a	n/a	n/a	-999	5	n/a	n/a	pyFR	2	TJ054
638.305	2.689	825937	WORD	n/a	wordpools/wordpool_EN.txt	CLAY	1	5	n/a	n/a	pyFR	2	TJ054
640.994	2.486	828625	WORD	n/a	wordpools/wordpool_EN.txt	STICK	2	5	n/a	n/a	pyFR	2	TJ054
643.48	2.588	831111	WORD	n/a	wordpools/wordpool_EN.txt	DAD	3	5	n/a	n/a	pyFR	2	TJ054
646.068	2.655	833699	WORD	n/a	wordpools/wordpool_EN.txt	ANT	4	5	n/a	n/a	pyFR	2	TJ054
648.723	2.52	836354	WORD	n/a	wordpools/wordpool_EN.txt	WEED	5	5	n/a	n/a	pyFR	2	TJ054
651.243	2.439	838874	WORD	n/a	wordpools/wordpool_EN.txt	HOOK	6	5	n/a	n/a	pyFR	2	TJ054
653.682	2.788	841313	WORD	n/a	wordpools/wordpool_EN.txt	HEART	7	5	n/a	n/a	pyFR	2	TJ054
656.47	2.653	844101	WORD	n/a	wordpools/wordpool_EN.txt	BEAR	8	5	n/a	n/a	pyFR	2	TJ054
659.123	2.522	846754	WORD	n/a	wordpools/wordpool_EN.txt	FACE	9	5	n/a	n/a	pyFR	2	TJ054
661.645	2.487	849276	WORD	n/a	wordpools/wordpool_EN.txt	DOOR	10	5	n/a	n/a	pyFR	2	TJ054
664.132	2.488	851763	WORD	n/a	wordpools/wordpool_EN.txt	CHEEK	11	5	n/a	n/a	pyFR	2	TJ054
666.62	2.571	854250	WORD	n/a	wordpools/wordpool_EN.txt	QUEEN	12	5	n/a	n/a	pyFR	2	TJ054
669.191	2.504	856821	WORD	n/a	wordpools/wordpool_EN.txt	BOWL	13	5	n/a	n/a	pyFR	2	TJ054
671.695	2.487	859325	WORD	n/a	wordpools/wordpool_EN.txt	DRUM	14	5	n/a	n/a	pyFR	2	TJ054
674.182	1.621	861812	WORD	n/a	wordpools/wordpool_EN.txt	SHELL	15	5	n/a	n/a	pyFR	2	TJ054
675.803	1.101	863433	START	n/a	n/a	n/a	n/a	5	[-999 -999 -999]	-999	pyFR	2	TJ054
676.904	30.412	864534	PROB	30.412	n/a	n/a	n/a	5	[7 8 1]	16	pyFR	2	TJ054
707.316	1.107	894945	STOP	n/a	n/a	n/a	n/a	5	[-999 -999 -999]	-999	pyFR	2	TJ054
708.423	2.092	896052	REC_START	n/a	n/a	n/a	-999	5	n/a	n/a	pyFR	2	TJ054
710.515	1.0	898144	REC_WORD	2.092	n/a	QUEEN	-999	5	n/a	n/a	pyFR	2	TJ054
711.515	50.098	899144	REC_WORD_VV	3.092	n/a	<>	-999	5	n/a	n/a	pyFR	2	TJ054
761.613	0.017	949240	TRIAL	n/a	n/a	n/a	-999	6	n/a	n/a	pyFR	2	TJ054
761.63	2.988	949257	ORIENT	n/a	n/a	n/a	-999	6	n/a	n/a	pyFR	2	TJ054
764.618	2.737	952245	WORD	n/a	wordpools/wordpool_EN.txt	NEST	1	6	n/a	n/a	pyFR	2	TJ054
767.355	2.671	954982	WORD	n/a	wordpools/wordpool_EN.txt	PEN	2	6	n/a	n/a	pyFR	2	TJ054
770.026	2.639	957653	WORD	n/a	wordpools/wordpool_EN.txt	VASE	3	6	n/a	n/a	pyFR	2	TJ054
772.665	2.654	960291	WORD	n/a	wordpools/wordpool_EN.txt	SMOKE	4	6	n/a	n/a	pyFR	2	TJ054
775.319	2.721	962945	WORD	n/a	wordpools/wordpool_EN.txt	CHIN	5	6	n/a	n/a	pyFR	2	TJ054
778.04	2.789	965666	WORD	n/a	wordpools/wordpool_EN.txt	PIE	6	6	n/a	n/a	pyFR	2	TJ054
780.829	2.737	968455	WORD	n/a	wordpools/wordpool_EN.txt	PURSE	7	6	n/a	n/a	pyFR	2	TJ054
783.566	2.821	971192	WORD	n/a	wordpools/wordpool_EN.txt	DITCH	8	6	n/a	n/a	pyFR	2	TJ054
786.387	2.489	974013	WORD	n/a	wordpools/wordpool_EN.txt	DIME	9	6	n/a	n/a	pyFR	2	TJ054
788.876	2.788	976502	WORD	n/a	wordpools/wordpool_EN.txt	DESK	10	6	n/a	n/a	pyFR	2	TJ054
791.664	2.753	979290	WORD	n/a	wordpools/wordpool_EN.txt	TEA	11	6	n/a	n/a	pyFR	2	TJ054
794.417	2.772	982043	WORD	n/a	wordpools/wordpool_EN.txt	FLUTE	12	6	n/a	n/a	pyFR	2	TJ054
797.189	2.672	984815	WORD	n/a	wordpools/wordpool_EN.txt	FORT	13	6	n/a	n/a	pyFR	2	TJ054
799.861	2.62	987486	WORD	n/a	wordpools/wordpool_EN.txt	DART	14	6	n/a	n/a	pyFR	2	TJ054
802.481	1.621	990106	WORD	n/a	wordpools/wordpool_EN.txt	COIN	15	6	n/a	n/a	pyFR	2	TJ054
804.102	1.117	991727	START	n/a	n/a	n/a	n/a	6	[-999 -999 -999]	-999	pyFR	2	TJ054
805.219	32.205	992844	PROB	32.205	n/a	n/a	n/a	6	[7 9 5]	21	pyFR	2	TJ054
837.424	1.236	1025048	STOP	n/a	n/a	n/a	n/a	6	[-999 -999 -999]	-999	pyFR	2	TJ054
838.66	45.0	1026284	REC_START	n/a	n/a	n/a	-999	6	n/a	n/a	pyFR	2	TJ054
883.66	8.073	1071282	REC_WORD_VV	45.0	n/a	<>	-999	6	n/a	n/a	pyFR	2	TJ054
891.733	0.016	1079355	TRIAL	n/a	n/a	n/a	-999	7	n/a	n/a	pyFR	2	TJ054
891.749	2.938	1079371	ORIENT	n/a	n/a	n/a	-999	7	n/a	n/a	pyFR	2	TJ054
894.687	2.821	1082309	WORD	n/a	wordpools/wordpool_EN.txt	ZOO	1	7	n/a	n/a	pyFR	2	TJ054
897.508	2.654	1085130	WORD	n/a	wordpools/wordpool_EN.txt	DUCK	2	7	n/a	n/a	pyFR	2	TJ054
900.162	2.739	1087784	WORD	n/a	wordpools/wordpool_EN.txt	TIE	3	7	n/a	n/a	pyFR	2	TJ054
902.901	2.503	1090523	WORD	n/a	wordpools/wordpool_EN.txt	CHALK	4	7	n/a	n/a	pyFR	2	TJ054
905.404	2.755	1093026	WORD	n/a	wordpools/wordpool_EN.txt	MOUSE	5	7	n/a	n/a	pyFR	2	TJ054
908.159	2.455	1095780	WORD	n/a	wordpools/wordpool_EN.txt	SLUSH	6	7	n/a	n/a	pyFR	2	TJ054
910.614	2.47	1098235	WORD	n/a	wordpools/wordpool_EN.txt	TRASH	7	7	n/a	n/a	pyFR	2	TJ054
913.084	2.589	1100705	WORD	n/a	wordpools/wordpool_EN.txt	MAT	8	7	n/a	n/a	pyFR	2	TJ054
915.673	2.436	1103294	WORD	n/a	wordpools/wordpool_EN.txt	DOG	9	7	n/a	n/a	pyFR	2	TJ054
918.109	2.689	1105730	WORD	n/a	wordpools/wordpool_EN.txt	PRINCE	10	7	n/a	n/a	pyFR	2	TJ054
920.798	2.47	1108419	WORD	n/a	wordpools/wordpool_EN.txt	ICE	11	7	n/a	n/a	pyFR	2	TJ054
923.268	2.655	1110889	WORD	n/a	wordpools/wordpool_EN.txt	JUDGE	12	7	n/a	n/a	pyFR	2	TJ054
925.923	2.805	1113544	WORD	n/a	wordpools/wordpool_EN.txt	DRESS	13	7	n/a	n/a	pyFR	2	TJ054
928.728	2.587	1116349	WORD	n/a	wordpools/wordpool_EN.txt	SQUARE	14	7	n/a	n/a	pyFR	2	TJ054
931.315	1.621	1118936	WORD	n/a	wordpools/wordpool_EN.txt	PHONE	15	7	n/a	n/a	pyFR	2	TJ054
932.936	1.051	1120556	START	n/a	n/a	n/a	n/a	7	[-999 -999 -999]	-999	pyFR	2	TJ054
933.987	14.658	1121607	PROB	14.634	n/a	n/a	n/a	7	[2 5 9]	11	pyFR	2	TJ054
948.645	17.352	1136265	PROB	17.352	n/a	n/a	n/a	7	[7 4 3]	14	pyFR	2	TJ054
965.997	1.095	1153616	STOP	n/a	n/a	n/a	n/a	7	[-999 -999 -999]	-999	pyFR	2	TJ054
967.092	0.295	1154711	REC_START	n/a	n/a	n/a	-999	7	n/a	n/a	pyFR	2	TJ054
967.387	1.796	1155006	REC_WORD	0.295	n/a	ZOO	-999	7	n/a	n/a	pyFR	2	TJ054
969.183	49.797	1156802	REC_WORD	2.091	n/a	PHONE	-999	7	n/a	n/a	pyFR	2	TJ054
1018.98	0.016	1206597	TRIAL	n/a	n/a	n/a	-999	8	n/a	n/a	pyFR	2	TJ054
1018.996	2.738	1206613	ORIENT	n/a	n/a	n/a	-999	8	n/a	n/a	pyFR	2	TJ054
1021.734	2.77	1209351	WORD	n/a	wordpools/wordpool_EN.txt	GEESE	1	8	n/a	n/a	pyFR	2	TJ054
1024.504	2.622	1212121	WORD	n/a	wordpools/wordpool_EN.txt	CAT	2	8	n/a	n/a	pyFR	2	TJ054
1027.126	2.505	1214743	WORD	n/a	wordpools/wordpool_EN.txt	PIN	3	8	n/a	n/a	pyFR	2	TJ054
1029.631	2.687	1217248	WORD	n/a	wordpools/wordpool_EN.txt	KITE	4	8	n/a	n/a	pyFR	2	TJ054
1032.318	2.488	1219935	WORD	n/a	wordpools/wordpool_EN.txt	SNAKE	5	8	n/a	n/a	pyFR	2	TJ054
1034.806	2.504	1222423	WORD	n/a	wordpools/wordpool_EN.txt	CLOWN	6	8	n/a	n/a	pyFR	2	TJ054
1037.31	2.688	1224927	WORD	n/a	wordpools/wordpool_EN.txt	HOUSE	7	8	n/a	n/a	pyFR	2	TJ054
1039.998	2.52	1227614	WORD	n/a	wordpools/wordpool_EN.txt	STAIR	8	8	n/a	n/a	pyFR	2	TJ054
1042.518	2.688	1230134	WORD	n/a	wordpools/wordpool_EN.txt	FLAG	9	8	n/a	n/a	pyFR	2	TJ054
1045.206	2.706	1232822	WORD	n/a	wordpools/wordpool_EN.txt	MOOSE	10	8	n/a	n/a	pyFR	2	TJ054
1047.912	2.486	1235528	WORD	n/a	wordpools/wordpool_EN.txt	HOSE	11	8	n/a	n/a	pyFR	2	TJ054
1050.398	2.722	1238014	WORD	n/a	wordpools/wordpool_EN.txt	SNOW	12	8	n/a	n/a	pyFR	2	TJ054
1053.12	2.721	1240736	WORD	n/a	wordpools/wordpool_EN.txt	BOOT	13	8	n/a	n/a	pyFR	2	TJ054
1055.841	2.571	1243457	WORD	n/a	wordpools/wordpool_EN.txt	BOY	14	8	n/a	n/a	pyFR	2	TJ054
1058.412	1.62	1246028	WORD	n/a	wordpools/wordpool_EN.txt	STRING	15	8	n/a	n/a	pyFR	2	TJ054
1060.032	1.134	1247648	START	n/a	n/a	n/a	n/a	8	[-999 -999 -999]	-999	pyFR	2	TJ054
1061.166	9.149	1248782	PROB	9.125	n/a	n/a	n/a	8	[4 3 2]	9	pyFR	2	TJ054
1070.315	18.005	1257930	PROB	18.005	n/a	n/a	n/a	8	[6 6 4]	16	pyFR	2	TJ054
1088.32	1.094	1275935	STOP	n/a	n/a	n/a	n/a	8	[-999 -999 -999]	-999	pyFR	2	TJ054
1089.414	0.0	1277029	REC_START	n/a	n/a	n/a	-999	8	n/a	n/a	pyFR	2	TJ054
1089.414	69.285	1277029	REC_WORD_VV	0.0	n/a	<>	-999	8	n/a	n/a	pyFR	2	TJ054
1158.699	348.209	1346311	TRIAL	n/a	n/a	n/a	-999	9	n/a	n/a	pyFR	2	TJ054
1506.908	0.001	1694507	B	n/a	n/a	n/a	-999	9	n/a	n/a	pyFR	2	TJ054
1506.909	2.953	1694508	SESS_START	n/a	n/a	n/a	-999	9	n/a	n/a	pyFR	2	TJ054
1509.862	0.016	1697461	TRIAL	n/a	n/a	n/a	-999	9	n/a	n/a	pyFR	2	TJ054
1509.878	2.972	1697477	ORIENT	n/a	n/a	n/a	-999	9	n/a	n/a	pyFR	2	TJ054
1512.85	2.488	1700449	WORD	n/a	wordpools/wordpool_EN.txt	CLOTH	1	9	n/a	n/a	pyFR	2	TJ054
1515.338	2.671	1702937	WORD	n/a	wordpools/wordpool_EN.txt	ELF	2	9	n/a	n/a	pyFR	2	TJ054
1518.009	2.622	1705608	WORD	n/a	wordpools/wordpool_EN.txt	BOAT	3	9	n/a	n/a	pyFR	2	TJ054
1520.631	2.754	1708229	WORD	n/a	wordpools/wordpool_EN.txt	PEAR	4	9	n/a	n/a	pyFR	2	TJ054
1523.385	2.671	1710983	WORD	n/a	wordpools/wordpool_EN.txt	SPARK	5	9	n/a	n/a	pyFR	2	TJ054
1526.056	2.722	1713654	WORD	n/a	wordpools/wordpool_EN.txt	FOG	6	9	n/a	n/a	pyFR	2	TJ054
1528.778	2.471	1716376	WORD	n/a	wordpools/wordpool_EN.txt	SOAP	7	9	n/a	n/a	pyFR	2	TJ054
1531.249	2.522	1718847	WORD	n/a	wordpools/wordpool_EN.txt	RAIN	8	9	n/a	n/a	pyFR	2	TJ054
1533.771	2.485	1721369	WORD	n/a	wordpools/wordpool_EN.txt	GRASS	9	9	n/a	n/a	pyFR	2	TJ054
1536.256	2.572	1723854	WORD	n/a	wordpools/wordpool_EN.txt	PEARL	10	9	n/a	n/a	pyFR	2	TJ054
1538.828	2.771	1726426	WORD	n/a	wordpools/wordpool_EN.txt	POND	11	9	n/a	n/a	pyFR	2	TJ054
1541.599	2.687	1729197	WORD	n/a	wordpools/wordpool_EN.txt	FROG	12	9	n/a	n/a	pyFR	2	TJ054
1544.286	2.472	1731884	WORD	n/a	wordpools/wordpool_EN.txt	TOOL	13	9	n/a	n/a	pyFR	2	TJ054
1546.758	2.771	1734356	WORD	n/a	wordpools/wordpool_EN.txt	CHAIR	14	9	n/a	n/a	pyFR	2	TJ054
1549.529	1.62	1737126	WORD	n/a	wordpools/wordpool_EN.txt	SAIL	15	9	n/a	n/a	pyFR	2	TJ054
1551.149	1.017	1738746	START	n/a	n/a	n/a	n/a	9	[-999 -999 -999]	-999	pyFR	2	TJ054
1552.166	20.542	1739763	PROB	20.542	n/a	n/a	n/a	9	[3 1 8]	13	pyFR	2	TJ054
1572.708	1.096	1760305	STOP	n/a	n/a	n/a	n/a	9	[-999 -999 -999]	-999	pyFR	2	TJ054
1573.804	1.003	1761400	REC_START	n/a	n/a	n/a	-999	9	n/a	n/a	pyFR	2	TJ054
1574.807	1.716	1762403	REC_WORD	1.003	n/a	CLOTH	-999	9	n/a	n/a	pyFR	2	TJ054
1576.523	5.856	1764119	REC_WORD_VV	2.719	n/a	<>	-999	9	n/a	n/a	pyFR	2	TJ054
1582.379	51.041	1769975	REC_WORD	8.575	n/a	TOOL	-999	9	n/a	n/a	pyFR	2	TJ054
1633.42	0.016	1821014	TRIAL	n/a	n/a	n/a	-999	10	n/a	n/a	pyFR	2	TJ054
1633.436	2.889	1821030	ORIENT	n/a	n/a	n/a	-999	10	n/a	n/a	pyFR	2	TJ054
1636.325	2.687	1823919	WORD	n/a	wordpools/wordpool_EN.txt	ROPE	1	10	n/a	n/a	pyFR	2	TJ054
1639.012	2.723	1826606	WORD	n/a	wordpools/wordpool_EN.txt	WAVE	2	10	n/a	n/a	pyFR	2	TJ054
1641.735	2.504	1829329	WORD	n/a	wordpools/wordpool_EN.txt	INK	3	10	n/a	n/a	pyFR	2	TJ054
1644.239	2.67	1831833	WORD	n/a	wordpools/wordpool_EN.txt	CLIFF	4	10	n/a	n/a	pyFR	2	TJ054
1646.909	2.638	1834503	WORD	n/a	wordpools/wordpool_EN.txt	DOCK	5	10	n/a	n/a	pyFR	2	TJ054
1649.547	2.671	1837141	WORD	n/a	wordpools/wordpool_EN.txt	OAK	6	10	n/a	n/a	pyFR	2	TJ054
1652.218	2.488	1839812	WORD	n/a	wordpools/wordpool_EN.txt	MUG	7	10	n/a	n/a	pyFR	2	TJ054
1654.706	2.52	1842299	WORD	n/a	wordpools/wordpool_EN.txt	CLOCK	8	10	n/a	n/a	pyFR	2	TJ054
1657.226	2.638	1844819	WORD	n/a	wordpools/wordpool_EN.txt	SHIP	9	10	n/a	n/a	pyFR	2	TJ054
1659.864	2.488	1847457	WORD	n/a	wordpools/wordpool_EN.txt	BIRD	10	10	n/a	n/a	pyFR	2	TJ054
1662.352	2.505	1849945	WORD	n/a	wordpools/wordpool_EN.txt	EAR	11	10	n/a	n/a	pyFR	2	TJ054
1664.857	2.503	1852450	WORD	n/a	wordpools/wordpool_EN.txt	DOLL	12	10	n/a	n/a	pyFR	2	TJ054
1667.36	2.621	1854953	WORD	n/a	wordpools/wordpool_EN.txt	WEB	13	10	n/a	n/a	pyFR	2	TJ054
1669.981	2.504	1857574	WORD	n/a	wordpools/wordpool_EN.txt	FENCE	14	10	n/a	n/a	pyFR	2	TJ054
1672.485	1.621	1860078	WORD	n/a	wordpools/wordpool_EN.txt	CASH	15	10	n/a	n/a	pyFR	2	TJ054
1674.106	1.184	1861699	START	n/a	n/a	n/a	n/a	10	[-999 -999 -999]	-999	pyFR	2	TJ054
1675.29	14.14	1862883	PROB	14.105	n/a	n/a	n/a	10	[8 5 1]	14	pyFR	2	TJ054
1689.43	6.529	1877022	PROB	6.529	n/a	n/a	n/a	10	[4 1 5]	10	pyFR	2	TJ054
1695.959	1.168	1883551	STOP	n/a	n/a	n/a	n/a	10	[-999 -999 -999]	-999	pyFR	2	TJ054
1697.127	0.625	1884719	REC_START	n/a	n/a	n/a	-999	10	n/a	n/a	pyFR	2	TJ054
1697.752	1.149	1885344	REC_WORD	0.625	n/a	WEB	-999	10	n/a	n/a	pyFR	2	TJ054
1698.901	46.742	1886493	REC_WORD	1.774	n/a	DOLL	-999	10	n/a	n/a	pyFR	2	TJ054
1745.643	0.016	1933233	TRIAL	n/a	n/a	n/a	-999	11	n/a	n/a	pyFR	2	TJ054
1745.659	2.804	1933249	ORIENT	n/a	n/a	n/a	-999	11	n/a	n/a	pyFR	2	TJ054
1748.463	2.588	1936053	WORD	n/a	wordpools/wordpool_EN.txt	TAPE	1	11	n/a	n/a	pyFR	2	TJ054
1751.051	2.788	1938641	WORD	n/a	wordpools/wordpool_EN.txt	CLOUD	2	11	n/a	n/a	pyFR	2	TJ054
1753.839	2.806	1941429	WORD	n/a	wordpools/wordpool_EN.txt	CUBE	3	11	n/a	n/a	pyFR	2	TJ054
1756.645	2.82	1944235	WORD	n/a	wordpools/wordpool_EN.txt	BAT	4	11	n/a	n/a	pyFR	2	TJ054
1759.465	2.771	1947055	WORD	n/a	wordpools/wordpool_EN.txt	TOY	5	11	n/a	n/a	pyFR	2	TJ054
1762.236	2.556	1949825	WORD	n/a	wordpools/wordpool_EN.txt	CAPE	6	11	n/a	n/a	pyFR	2	TJ054
1764.792	2.821	1952381	WORD	n/a	wordpools/wordpool_EN.txt	SHOE	7	11	n/a	n/a	pyFR	2	TJ054
1767.613	2.503	1955202	WORD	n/a	wordpools/wordpool_EN.txt	CAGE	8	11	n/a	n/a	pyFR	2	TJ054
1770.116	2.689	1957705	WORD	n/a	wordpools/wordpool_EN.txt	OWL	9	11	n/a	n/a	pyFR	2	TJ054
1772.805	2.637	1960394	WORD	n/a	wordpools/wordpool_EN.txt	MOLE	10	11	n/a	n/a	pyFR	2	TJ054
1775.442	2.788	1963031	WORD	n/a	wordpools/wordpool_EN.txt	SHEEP	11	11	n/a	n/a	pyFR	2	TJ054
1778.23	2.821	1965819	WORD	n/a	wordpools/wordpool_EN.txt	CAR	12	11	n/a	n/a	pyFR	2	TJ054
1781.051	2.723	1968640	WORD	n/a	wordpools/wordpool_EN.txt	JAIL	13	11	n/a	n/a	pyFR	2	TJ054
1783.774	2.67	1971363	WORD	n/a	wordpools/wordpool_EN.txt	FOX	14	11	n/a	n/a	pyFR	2	TJ054
1786.444	1.62	1974033	WORD	n/a	wordpools/wordpool_EN.txt	MAIL	15	11	n/a	n/a	pyFR	2	TJ054
1788.064	0.918	1975652	START	n/a	n/a	n/a	n/a	11	[-999 -999 -999]	-999	pyFR	2	TJ054
1788.982	8.614	1976570	PROB	8.579	n/a	n/a	n/a	11	[3 1 3]	7	pyFR	2	TJ054
1797.596	34.012	1985184	PROB	34.012	n/a	n/a	n/a	11	[4 9 8]	17	pyFR	2	TJ054
1831.608	1.199	2019195	STOP	n/a	n/a	n/a	n/a	11	[-999 -999 -999]	-999	pyFR	2	TJ054
1832.807	0.0	2020394	REC_WORD_VV	0.0	n/a	<>	-999	11	n/a	n/a	pyFR	2	TJ054
1832.807	1.0	2020394	REC_START	n/a	n/a	n/a	-999	11	n/a	n/a	pyFR	2	TJ054
1833.807	43.965	2021394	REC_WORD_VV	1.0	n/a	<>	-999	11	n/a	n/a	pyFR	2	TJ054
1877.772	19.376	2065357	REC_WORD_VV	44.965	n/a	<>	-999	11	n/a	n/a	pyFR	2	TJ054
1897.148	0.016	2084732	TRIAL	n/a	n/a	n/a	-999	12	n/a	n/a	pyFR	2	TJ054
1897.164	2.704	2084748	ORIENT	n/a	n/a	n/a	-999	12	n/a	n/a	pyFR	2	TJ054
1899.868	2.705	2087452	WORD	n/a	wordpools/wordpool_EN.txt	SLEEVE	1	12	n/a	n/a	pyFR	2	TJ054
1902.573	2.788	2090157	WORD	n/a	wordpools/wordpool_EN.txt	SEA	2	12	n/a	n/a	pyFR	2	TJ054
1905.361	2.788	2092945	WORD	n/a	wordpools/wordpool_EN.txt	SKY	3	12	n/a	n/a	pyFR	2	TJ054
1908.149	2.622	2095733	WORD	n/a	wordpools/wordpool_EN.txt	NOSE	4	12	n/a	n/a	pyFR	2	TJ054
1910.771	2.787	2098355	WORD	n/a	wordpools/wordpool_EN.txt	THUMB	5	12	n/a	n/a	pyFR	2	TJ054
1913.558	2.504	2101142	WORD	n/a	wordpools/wordpool_EN.txt	MILK	6	12	n/a	n/a	pyFR	2	TJ054
1916.062	2.689	2103646	WORD	n/a	wordpools/wordpool_EN.txt	SPEAR	7	12	n/a	n/a	pyFR	2	TJ054
1918.751	2.57	2106335	WORD	n/a	wordpools/wordpool_EN.txt	VAN	8	12	n/a	n/a	pyFR	2	TJ054
1921.321	2.438	2108904	WORD	n/a	wordpools/wordpool_EN.txt	CORD	9	12	n/a	n/a	pyFR	2	TJ054
1923.759	2.787	2111342	WORD	n/a	wordpools/wordpool_EN.txt	EGG	10	12	n/a	n/a	pyFR	2	TJ054
1926.546	2.788	2114129	WORD	n/a	wordpools/wordpool_EN.txt	ROOM	11	12	n/a	n/a	pyFR	2	TJ054
1929.334	2.538	2116917	WORD	n/a	wordpools/wordpool_EN.txt	PEA	12	12	n/a	n/a	pyFR	2	TJ054
1931.872	2.454	2119455	WORD	n/a	wordpools/wordpool_EN.txt	PET	13	12	n/a	n/a	pyFR	2	TJ054
1934.326	2.822	2121909	WORD	n/a	wordpools/wordpool_EN.txt	GIRL	14	12	n/a	n/a	pyFR	2	TJ054
1937.148	1.621	2124731	WORD	n/a	wordpools/wordpool_EN.txt	ROAD	15	12	n/a	n/a	pyFR	2	TJ054
1938.769	1.1	2126352	START	n/a	n/a	n/a	n/a	12	[-999 -999 -999]	-999	pyFR	2	TJ054
1939.869	7.545	2127452	PROB	7.508	n/a	n/a	n/a	12	[7 7 4]	18	pyFR	2	TJ054
1947.414	19.463	2134997	PROB	19.463	n/a	n/a	n/a	12	[9 3 9]	21	pyFR	2	TJ054
1966.877	1.09	2154459	STOP	n/a	n/a	n/a	n/a	12	[-999 -999 -999]	-999	pyFR	2	TJ054
1967.967	0.438	2155549	REC_START	n/a	n/a	n/a	-999	12	n/a	n/a	pyFR	2	TJ054
1968.405	2.024	2155987	REC_WORD	0.438	n/a	ROAD	-999	12	n/a	n/a	pyFR	2	TJ054
1970.429	1.11	2158011	REC_WORD	2.462	n/a	PEA	-999	12	n/a	n/a	pyFR	2	TJ054
1971.539	46.846	2159121	REC_WORD	3.572	n/a	PET	-999	12	n/a	n/a	pyFR	2	TJ054
2018.385	0.016	2205965	TRIAL	n/a	n/a	n/a	-999	13	n/a	n/a	pyFR	2	TJ054
2018.401	2.838	2205981	ORIENT	n/a	n/a	n/a	-999	13	n/a	n/a	pyFR	2	TJ054
2021.239	2.556	2208819	WORD	n/a	wordpools/wordpool_EN.txt	FLAME	1	13	n/a	n/a	pyFR	2	TJ054
2023.795	2.569	2211375	WORD	n/a	wordpools/wordpool_EN.txt	BEAN	2	13	n/a	n/a	pyFR	2	TJ054
2026.364	2.538	2213944	WORD	n/a	wordpools/wordpool_EN.txt	GLASS	3	13	n/a	n/a	pyFR	2	TJ054
2028.902	2.487	2216481	WORD	n/a	wordpools/wordpool_EN.txt	DEER	4	13	n/a	n/a	pyFR	2	TJ054
2031.389	2.638	2218968	WORD	n/a	wordpools/wordpool_EN.txt	MOTH	5	13	n/a	n/a	pyFR	2	TJ054
2034.027	2.606	2221606	WORD	n/a	wordpools/wordpool_EN.txt	NAIL	6	13	n/a	n/a	pyFR	2	TJ054
2036.633	2.686	2224212	WORD	n/a	wordpools/wordpool_EN.txt	LIP	7	13	n/a	n/a	pyFR	2	TJ054
2039.319	2.571	2226898	WORD	n/a	wordpools/wordpool_EN.txt	JAR	8	13	n/a	n/a	pyFR	2	TJ054
2041.89	2.555	2229469	WORD	n/a	wordpools/wordpool_EN.txt	STOVE	9	13	n/a	n/a	pyFR	2	TJ054
2044.445	2.771	2232024	WORD	n/a	wordpools/wordpool_EN.txt	MUD	10	13	n/a	n/a	pyFR	2	TJ054
2047.216	2.439	2234795	WORD	n/a	wordpools/wordpool_EN.txt	SLIME	11	13	n/a	n/a	pyFR	2	TJ054
2049.655	2.72	2237234	WORD	n/a	wordpools/wordpool_EN.txt	BALL	12	13	n/a	n/a	pyFR	2	TJ054
2052.375	2.804	2239954	WORD	n/a	wordpools/wordpool_EN.txt	TENT	13	13	n/a	n/a	pyFR	2	TJ054
2055.179	2.472	2242757	WORD	n/a	wordpools/wordpool_EN.txt	CONE	14	13	n/a	n/a	pyFR	2	TJ054
2057.651	1.62	2245229	WORD	n/a	wordpools/wordpool_EN.txt	BLOOM	15	13	n/a	n/a	pyFR	2	TJ054
2059.271	1.134	2246849	START	n/a	n/a	n/a	n/a	13	[-999 -999 -999]	-999	pyFR	2	TJ054
2060.405	9.416	2247983	PROB	9.387	n/a	n/a	n/a	13	[8 3 3]	14	pyFR	2	TJ054
2069.821	15.22	2257399	PROB	15.22	n/a	n/a	n/a	13	[9 3 6]	18	pyFR	2	TJ054
2085.041	1.225	2272618	STOP	n/a	n/a	n/a	n/a	13	[-999 -999 -999]	-999	pyFR	2	TJ054
2086.266	0.671	2273843	REC_START	n/a	n/a	n/a	-999	13	n/a	n/a	pyFR	2	TJ054
2086.937	1.184	2274514	REC_WORD	0.671	n/a	BALLOON	-999	13	n/a	n/a	pyFR	2	TJ054
2088.121	8.644	2275698	REC_WORD	1.855	n/a	NAIL	-999	13	n/a	n/a	pyFR	2	TJ054
2096.765	41.154	2284342	REC_WORD	10.499	n/a	LIP	-999	13	n/a	n/a	pyFR	2	TJ054
2137.919	0.016	2325494	TRIAL	n/a	n/a	n/a	-999	14	n/a	n/a	pyFR	2	TJ054
2137.935	2.672	2325510	ORIENT	n/a	n/a	n/a	-999	14	n/a	n/a	pyFR	2	TJ054
2140.607	2.454	2328182	WORD	n/a	wordpools/wordpool_EN.txt	SKI	1	14	n/a	n/a	pyFR	2	TJ054
2143.061	2.772	2330636	WORD	n/a	wordpools/wordpool_EN.txt	HORN	2	14	n/a	n/a	pyFR	2	TJ054
2145.833	2.653	2333408	WORD	n/a	wordpools/wordpool_EN.txt	CART	3	14	n/a	n/a	pyFR	2	TJ054
2148.486	2.505	2336061	WORD	n/a	wordpools/wordpool_EN.txt	WAND	4	14	n/a	n/a	pyFR	2	TJ054
2150.991	2.572	2338566	WORD	n/a	wordpools/wordpool_EN.txt	STORM	5	14	n/a	n/a	pyFR	2	TJ054
2153.563	2.469	2341138	WORD	n/a	wordpools/wordpool_EN.txt	TOOTH	6	14	n/a	n/a	pyFR	2	TJ054
2156.032	2.438	2343607	WORD	n/a	wordpools/wordpool_EN.txt	RIB	7	14	n/a	n/a	pyFR	2	TJ054
2158.47	2.655	2346045	WORD	n/a	wordpools/wordpool_EN.txt	FILM	8	14	n/a	n/a	pyFR	2	TJ054
2161.125	2.671	2348700	WORD	n/a	wordpools/wordpool_EN.txt	ROCK	9	14	n/a	n/a	pyFR	2	TJ054
2163.796	2.687	2351370	WORD	n/a	wordpools/wordpool_EN.txt	JEEP	10	14	n/a	n/a	pyFR	2	TJ054
2166.483	2.488	2354057	WORD	n/a	wordpools/wordpool_EN.txt	VINE	11	14	n/a	n/a	pyFR	2	TJ054
2168.971	2.822	2356545	WORD	n/a	wordpools/wordpool_EN.txt	SEED	12	14	n/a	n/a	pyFR	2	TJ054
2171.793	2.654	2359367	WORD	n/a	wordpools/wordpool_EN.txt	BRIDGE	13	14	n/a	n/a	pyFR	2	TJ054
2174.447	2.604	2362021	WORD	n/a	wordpools/wordpool_EN.txt	POLE	14	14	n/a	n/a	pyFR	2	TJ054
2177.051	1.605	2364625	WORD	n/a	wordpools/wordpool_EN.txt	KEY	15	14	n/a	n/a	pyFR	2	TJ054
2178.656	1.084	2366230	START	n/a	n/a	n/a	n/a	14	[-999 -999 -999]	-999	pyFR	2	TJ054
2179.74	12.804	2367314	PROB	12.77	n/a	n/a	n/a	14	[6 3 6]	15	pyFR	2	TJ054
2192.544	14.887	2380117	PROB	14.887	n/a	n/a	n/a	14	[4 3 2]	9	pyFR	2	TJ054
2207.431	1.074	2395004	STOP	n/a	n/a	n/a	n/a	14	[-999 -999 -999]	-999	pyFR	2	TJ054
2208.505	44.948	2396078	REC_START	n/a	n/a	n/a	-999	14	n/a	n/a	pyFR	2	TJ054
2253.453	8.408	2441024	REC_WORD_VV	44.948	n/a	<>	-999	14	n/a	n/a	pyFR	2	TJ054
2261.861	0.016	2449432	TRIAL	n/a	n/a	n/a	-999	15	n/a	n/a	pyFR	2	TJ054
2261.877	2.988	2449448	ORIENT	n/a	n/a	n/a	-999	15	n/a	n/a	pyFR	2	TJ054
2264.865	2.705	2452436	WORD	n/a	wordpools/wordpool_EN.txt	NET	1	15	n/a	n/a	pyFR	2	TJ054
2267.57	2.571	2455141	WORD	n/a	wordpools/wordpool_EN.txt	FOOD	2	15	n/a	n/a	pyFR	2	TJ054
2270.141	2.738	2457711	WORD	n/a	wordpools/wordpool_EN.txt	BENCH	3	15	n/a	n/a	pyFR	2	TJ054
2272.879	2.823	2460449	WORD	n/a	wordpools/wordpool_EN.txt	SHIRT	4	15	n/a	n/a	pyFR	2	TJ054
2275.702	2.686	2463272	WORD	n/a	wordpools/wordpool_EN.txt	SHEET	5	15	n/a	n/a	pyFR	2	TJ054
2278.388	2.471	2465958	WORD	n/a	wordpools/wordpool_EN.txt	FOOT	6	15	n/a	n/a	pyFR	2	TJ054
2280.859	2.688	2468429	WORD	n/a	wordpools/wordpool_EN.txt	HOOF	7	15	n/a	n/a	pyFR	2	TJ054
2283.547	2.604	2471117	WORD	n/a	wordpools/wordpool_EN.txt	SOCK	8	15	n/a	n/a	pyFR	2	TJ054
2286.151	2.639	2473721	WORD	n/a	wordpools/wordpool_EN.txt	PANTS	9	15	n/a	n/a	pyFR	2	TJ054
2288.79	2.587	2476360	WORD	n/a	wordpools/wordpool_EN.txt	CUP	10	15	n/a	n/a	pyFR	2	TJ054
2291.377	2.805	2478947	WORD	n/a	wordpools/wordpool_EN.txt	OAR	11	15	n/a	n/a	pyFR	2	TJ054
2294.182	2.538	2481752	WORD	n/a	wordpools/wordpool_EN.txt	HEN	12	15	n/a	n/a	pyFR	2	TJ054
2296.72	2.587	2484289	WORD	n/a	wordpools/wordpool_EN.txt	FLEA	13	15	n/a	n/a	pyFR	2	TJ054
2299.307	2.704	2486876	WORD	n/a	wordpools/wordpool_EN.txt	FLOOR	14	15	n/a	n/a	pyFR	2	TJ054
2302.011	1.605	2489580	WORD	n/a	wordpools/wordpool_EN.txt	SHARK	15	15	n/a	n/a	pyFR	2	TJ054
2303.616	1.184	2491185	START	n/a	n/a	n/a	n/a	15	[-999 -999 -999]	-999	pyFR	2	TJ054
2304.8	15.96	2492369	PROB	15.924	n/a	n/a	n/a	15	[8 8 2]	18	pyFR	2	TJ054
2320.76	7.527	2508329	PROB	7.527	n/a	n/a	n/a	15	[1 7 7]	15	pyFR	2	TJ054
2328.287	1.238	2515855	STOP	n/a	n/a	n/a	n/a	15	[-999 -999 -999]	-999	pyFR	2	TJ054
2329.525	2.147	2517093	REC_START	n/a	n/a	n/a	-999	15	n/a	n/a	pyFR	2	TJ054
2331.672	2.466	2519240	REC_WORD	2.147	n/a	OAR	-999	15	n/a	n/a	pyFR	2	TJ054
2334.138	44.654	2521706	REC_WORD	4.613	n/a	SHEET	-999	15	n/a	n/a	pyFR	2	TJ054
2378.792	0.016	2566358	TRIAL	n/a	n/a	n/a	-999	16	n/a	n/a	pyFR	2	TJ054
2378.808	2.955	2566374	ORIENT	n/a	n/a	n/a	-999	16	n/a	n/a	pyFR	2	TJ054
2381.763	2.537	2569329	WORD	n/a	wordpools/wordpool_EN.txt	TOE	1	16	n/a	n/a	pyFR	2	TJ054
2384.3	2.621	2571866	WORD	n/a	wordpools/wordpool_EN.txt	BANK	2	16	n/a	n/a	pyFR	2	TJ054
2386.921	2.689	2574487	WORD	n/a	wordpools/wordpool_EN.txt	LOCK	3	16	n/a	n/a	pyFR	2	TJ054
2389.61	2.67	2577176	WORD	n/a	wordpools/wordpool_EN.txt	PIPE	4	16	n/a	n/a	pyFR	2	TJ054
2392.28	2.771	2579846	WORD	n/a	wordpools/wordpool_EN.txt	BOARD	5	16	n/a	n/a	pyFR	2	TJ054
2395.051	2.521	2582617	WORD	n/a	wordpools/wordpool_EN.txt	SKUNK	6	16	n/a	n/a	pyFR	2	TJ054
2397.572	2.705	2585138	WORD	n/a	wordpools/wordpool_EN.txt	FISH	7	16	n/a	n/a	pyFR	2	TJ054
2400.277	2.771	2587843	WORD	n/a	wordpools/wordpool_EN.txt	SMILE	8	16	n/a	n/a	pyFR	2	TJ054
2403.048	2.471	2590613	WORD	n/a	wordpools/wordpool_EN.txt	STONE	9	16	n/a	n/a	pyFR	2	TJ054
2405.519	2.588	2593084	WORD	n/a	wordpools/wordpool_EN.txt	WHALE	10	16	n/a	n/a	pyFR	2	TJ054
2408.107	2.737	2595672	WORD	n/a	wordpools/wordpool_EN.txt	BARN	11	16	n/a	n/a	pyFR	2	TJ054
2410.844	2.773	2598409	WORD	n/a	wordpools/wordpool_EN.txt	SPRING	12	16	n/a	n/a	pyFR	2	TJ054
2413.617	2.704	2601182	WORD	n/a	wordpools/wordpool_EN.txt	SINK	13	16	n/a	n/a	pyFR	2	TJ054
2416.321	2.687	2603886	WORD	n/a	wordpools/wordpool_EN.txt	CORN	14	16	n/a	n/a	pyFR	2	TJ054
2419.008	1.622	2606573	WORD	n/a	wordpools/wordpool_EN.txt	RICE	15	16	n/a	n/a	pyFR	2	TJ054
2420.63	0.966	2608195	START	n/a	n/a	n/a	n/a	16	[-999 -999 -999]	-999	pyFR	2	TJ054
2421.596	18.732	2609161	PROB	18.709	n/a	n/a	n/a	16	[5 3 7]	15	pyFR	2	TJ054
2440.328	4.569	2627892	PROB	4.569	n/a	n/a	n/a	16	[9 1 2]	12	pyFR	2	TJ054
2444.897	1.141	2632461	STOP	n/a	n/a	n/a	n/a	16	[-999 -999 -999]	-999	pyFR	2	TJ054
2446.038	0.0	2633602	REC_START	n/a	n/a	n/a	-999	16	n/a	n/a	pyFR	2	TJ054
2446.038	1.0	2633602	REC_WORD_VV	0.0	n/a	<>	-999	16	n/a	n/a	pyFR	2	TJ054
2447.038	43.931	2634602	REC_WORD_VV	1.0	n/a	<>	-999	16	n/a	n/a	pyFR	2	TJ054
2490.969	520.27	2678531	REC_WORD_VV	44.931	n/a	<>	-999	16	n/a	n/a	pyFR	2	TJ054
3011.239	0.086	3198782	SESS_END	n/a	n/a	n/a	-999	16	n/a	n/a	pyFR	2	TJ054
3011.325	0.0	3198868	E	n/a	n/a	n/a	-999	16	n/a	n/a	pyFR	2	TJ054
