onset	duration	sample	trial_type	response_time	stim_file	item_name	serialpos	list	test	answer	experiment	session	subject
0.0	0.002	3189	B	n/a	n/a	n/a	-999.0	-999	n/a	n/a	pyFR	2	UP011
0.002	48.794	3190	SESS_START	n/a	n/a	n/a	-999.0	-999	n/a	n/a	pyFR	2	UP011
48.796	0.129	22707	START	n/a	n/a	n/a	n/a	0	[-999 -999 -999]	-999.0	pyFR	2	UP011
48.925	2.114	22758	PROB	2.022	n/a	n/a	n/a	0	[8 2 7]	17.0	pyFR	2	UP011
51.039	3.229	23604	PROB	3.137	n/a	n/a	n/a	0	[6 2 7]	15.0	pyFR	2	UP011
54.268	4.734	24895	PROB	4.656	n/a	n/a	n/a	0	[9 5 8]	22.0	pyFR	2	UP011
59.002	2.561	26789	PROB	2.472	n/a	n/a	n/a	0	[5 8 7]	21.0	pyFR	2	UP011
61.563	6.19	27813	PROB	6.099	n/a	n/a	n/a	0	[8 4 5]	17.0	pyFR	2	UP011
67.753	5.121	30289	PROB	5.038	n/a	n/a	n/a	0	[1 1 8]	10.0	pyFR	2	UP011
72.874	2.123	32338	PROB	2.046	n/a	n/a	n/a	0	[4 3 2]	9.0	pyFR	2	UP011
74.997	3.018	33187	PROB	2.962	n/a	n/a	n/a	0	[4 2 5]	11.0	pyFR	2	UP011
78.015	3.943	34394	PROB	3.943	n/a	n/a	n/a	0	[8 7 3]	18.0	pyFR	2	UP011
81.958	47.033	35971	STOP	n/a	n/a	n/a	n/a	0	[-999 -999 -999]	-999.0	pyFR	2	UP011
128.991	0.016	54783	TRIAL	n/a	n/a	n/a	-999.0	-999	n/a	n/a	pyFR	2	UP011
129.007	1.6	54790	ORIENT	n/a	n/a	n/a	-999.0	-999	n/a	n/a	pyFR	2	UP011
131.634	1.6	55841	WORD	n/a	wordpools/wordpool_EN.txt	MOUSE	1.0	1	n/a	n/a	pyFR	2	UP011
134.384	1.6	56941	WORD	n/a	wordpools/wordpool_EN.txt	WORLD	2.0	1	n/a	n/a	pyFR	2	UP011
136.992	1.6	57984	WORD	n/a	wordpools/wordpool_EN.txt	BOMB	3.0	1	n/a	n/a	pyFR	2	UP011
139.449	1.6	58967	WORD	n/a	wordpools/wordpool_EN.txt	MUD	4.0	1	n/a	n/a	pyFR	2	UP011
141.963	1.6	59972	WORD	n/a	wordpools/wordpool_EN.txt	TREE	5.0	1	n/a	n/a	pyFR	2	UP011
144.571	1.6	61015	WORD	n/a	wordpools/wordpool_EN.txt	FENCE	6.0	1	n/a	n/a	pyFR	2	UP011
147.009	1.6	61990	WORD	n/a	wordpools/wordpool_EN.txt	FILM	7.0	1	n/a	n/a	pyFR	2	UP011
149.54	1.6	63003	WORD	n/a	wordpools/wordpool_EN.txt	LEAF	8.0	1	n/a	n/a	pyFR	2	UP011
152.036	1.6	64001	WORD	n/a	wordpools/wordpool_EN.txt	SLEEVE	9.0	1	n/a	n/a	pyFR	2	UP011
154.582	1.6	65019	WORD	n/a	wordpools/wordpool_EN.txt	GOAT	10.0	1	n/a	n/a	pyFR	2	UP011
157.031	1.6	65999	WORD	n/a	wordpools/wordpool_EN.txt	GLASS	11.0	1	n/a	n/a	pyFR	2	UP011
159.47	1.6	66975	WORD	n/a	wordpools/wordpool_EN.txt	GUARD	12.0	1	n/a	n/a	pyFR	2	UP011
162.202	1.6	68067	WORD	n/a	wordpools/wordpool_EN.txt	BADGE	13.0	1	n/a	n/a	pyFR	2	UP011
164.991	1.6	69183	WORD	n/a	wordpools/wordpool_EN.txt	MUG	14.0	1	n/a	n/a	pyFR	2	UP011
167.736	1.6	70281	WORD	n/a	wordpools/wordpool_EN.txt	PIT	15.0	1	n/a	n/a	pyFR	2	UP011
169.357	0.837	70929	START	n/a	n/a	n/a	n/a	1	[-999 -999 -999]	-999.0	pyFR	2	UP011
170.194	2.89	71264	PROB	2.797	n/a	n/a	n/a	1	[7 2 4]	13.0	pyFR	2	UP011
173.084	1.955	72420	PROB	1.876	n/a	n/a	n/a	1	[7 8 6]	21.0	pyFR	2	UP011
175.039	2.276	73202	PROB	2.191	n/a	n/a	n/a	1	[6 7 3]	16.0	pyFR	2	UP011
177.315	4.849	74112	PROB	4.775	n/a	n/a	n/a	1	[7 9 7]	23.0	pyFR	2	UP011
182.164	1.56	76052	PROB	1.474	n/a	n/a	n/a	1	[1 4 1]	6.0	pyFR	2	UP011
183.724	5.57	76676	PROB	5.492	n/a	n/a	n/a	1	[5 9 9]	23.0	pyFR	2	UP011
189.294	5.191	78904	PROB	5.191	n/a	n/a	n/a	1	[6 3 1]	10.0	pyFR	2	UP011
194.485	1.354	80980	STOP	n/a	n/a	n/a	n/a	1	[-999 -999 -999]	-999.0	pyFR	2	UP011
195.839	1.375	81522	REC_START	n/a	n/a	n/a	-999.0	-999	n/a	n/a	pyFR	2	UP011
197.214	0.761	82072	REC_WORD	1.375	n/a	MOUSE	-999.0	1	n/a	n/a	pyFR	2	UP011
197.975	1.051	82376	REC_WORD	2.136	n/a	WORLD	-999.0	1	n/a	n/a	pyFR	2	UP011
199.026	0.895	82796	REC_WORD	3.187	n/a	BOMB	-999.0	1	n/a	n/a	pyFR	2	UP011
199.921	7.439	83154	REC_WORD	4.082	n/a	MUD	-999.0	1	n/a	n/a	pyFR	2	UP011
207.36	1.011	86130	REC_WORD	11.521	n/a	TREE	-999.0	1	n/a	n/a	pyFR	2	UP011
208.371	5.904	86534	REC_WORD	12.532	n/a	LEAF	-999.0	1	n/a	n/a	pyFR	2	UP011
214.275	28.276	88896	REC_WORD	18.436	n/a	GLASS	-999.0	1	n/a	n/a	pyFR	2	UP011
242.551	0.02	100206	TRIAL	n/a	n/a	n/a	-999.0	-999	n/a	n/a	pyFR	2	UP011
242.571	1.6	100214	ORIENT	n/a	n/a	n/a	-999.0	-999	n/a	n/a	pyFR	2	UP011
245.449	1.6	101365	WORD	n/a	wordpools/wordpool_EN.txt	TOOTH	1.0	2	n/a	n/a	pyFR	2	UP011
248.121	1.6	102434	WORD	n/a	wordpools/wordpool_EN.txt	MOON	2.0	2	n/a	n/a	pyFR	2	UP011
250.543	1.6	103402	WORD	n/a	wordpools/wordpool_EN.txt	BRICK	3.0	2	n/a	n/a	pyFR	2	UP011
253.193	1.6	104462	WORD	n/a	wordpools/wordpool_EN.txt	ROAD	4.0	2	n/a	n/a	pyFR	2	UP011
255.742	1.6	105482	WORD	n/a	wordpools/wordpool_EN.txt	SQUARE	5.0	2	n/a	n/a	pyFR	2	UP011
258.402	1.6	106546	WORD	n/a	wordpools/wordpool_EN.txt	CORD	6.0	2	n/a	n/a	pyFR	2	UP011
261.106	1.6	107627	WORD	n/a	wordpools/wordpool_EN.txt	STORE	7.0	2	n/a	n/a	pyFR	2	UP011
263.898	1.6	108744	WORD	n/a	wordpools/wordpool_EN.txt	AXE	8.0	2	n/a	n/a	pyFR	2	UP011
266.383	1.6	109738	WORD	n/a	wordpools/wordpool_EN.txt	LAKE	9.0	2	n/a	n/a	pyFR	2	UP011
268.975	1.6	110775	WORD	n/a	wordpools/wordpool_EN.txt	SEAL	10.0	2	n/a	n/a	pyFR	2	UP011
271.432	1.6	111758	WORD	n/a	wordpools/wordpool_EN.txt	TANK	11.0	2	n/a	n/a	pyFR	2	UP011
274.103	1.6	112826	WORD	n/a	wordpools/wordpool_EN.txt	SKY	12.0	2	n/a	n/a	pyFR	2	UP011
276.667	1.6	113852	WORD	n/a	wordpools/wordpool_EN.txt	DOCK	13.0	2	n/a	n/a	pyFR	2	UP011
279.407	1.6	114948	WORD	n/a	wordpools/wordpool_EN.txt	LAWN	14.0	2	n/a	n/a	pyFR	2	UP011
282.135	1.6	116039	WORD	n/a	wordpools/wordpool_EN.txt	VEST	15.0	2	n/a	n/a	pyFR	2	UP011
283.754	1.172	116686	START	n/a	n/a	n/a	n/a	2	[-999 -999 -999]	-999.0	pyFR	2	UP011
284.926	3.841	117155	PROB	3.751	n/a	n/a	n/a	2	[5 6 7]	18.0	pyFR	2	UP011
288.767	2.344	118691	PROB	2.249	n/a	n/a	n/a	2	[8 2 8]	18.0	pyFR	2	UP011
291.111	2.206	119629	PROB	2.125	n/a	n/a	n/a	2	[2 3 9]	13.0	pyFR	2	UP011
293.317	5.589	120511	PROB	5.497	n/a	n/a	n/a	2	[5 9 6]	20.0	pyFR	2	UP011
298.906	4.015	122747	PROB	3.937	n/a	n/a	n/a	2	[8 6 7]	21.0	pyFR	2	UP011
302.921	4.11	124353	PROB	4.11	n/a	n/a	n/a	2	[9 3 3]	15.0	pyFR	2	UP011
307.031	1.212	125997	STOP	n/a	n/a	n/a	n/a	2	[-999 -999 -999]	-999.0	pyFR	2	UP011
308.243	5.276	126482	REC_START	n/a	n/a	n/a	-999.0	-999	n/a	n/a	pyFR	2	UP011
313.519	30.541	128592	REC_WORD	5.276	n/a	VEST	-999.0	2	n/a	n/a	pyFR	2	UP011
344.06	0.766	140808	REC_WORD	35.817	n/a	TOOTH	-999.0	2	n/a	n/a	pyFR	2	UP011
344.826	0.558	141114	REC_WORD	36.583	n/a	MOON	-999.0	2	n/a	n/a	pyFR	2	UP011
345.384	17.838	141337	REC_WORD	37.141	n/a	SKY	-999.0	2	n/a	n/a	pyFR	2	UP011
363.222	0.02	148472	TRIAL	n/a	n/a	n/a	-999.0	-999	n/a	n/a	pyFR	2	UP011
363.242	1.6	148480	ORIENT	n/a	n/a	n/a	-999.0	-999	n/a	n/a	pyFR	2	UP011
366.2	1.6	149663	WORD	n/a	wordpools/wordpool_EN.txt	FUDGE	1.0	3	n/a	n/a	pyFR	2	UP011
368.948	1.6	150763	WORD	n/a	wordpools/wordpool_EN.txt	DOG	2.0	3	n/a	n/a	pyFR	2	UP011
371.504	1.6	151785	WORD	n/a	wordpools/wordpool_EN.txt	FROG	3.0	3	n/a	n/a	pyFR	2	UP011
374.071	1.6	152812	WORD	n/a	wordpools/wordpool_EN.txt	FRUIT	4.0	3	n/a	n/a	pyFR	2	UP011
376.506	1.6	153786	WORD	n/a	wordpools/wordpool_EN.txt	SPARK	5.0	3	n/a	n/a	pyFR	2	UP011
379.217	1.6	154870	WORD	n/a	wordpools/wordpool_EN.txt	PIN	6.0	3	n/a	n/a	pyFR	2	UP011
381.946	1.6	155962	WORD	n/a	wordpools/wordpool_EN.txt	BOARD	7.0	3	n/a	n/a	pyFR	2	UP011
384.353	1.6	156924	WORD	n/a	wordpools/wordpool_EN.txt	LAMP	8.0	3	n/a	n/a	pyFR	2	UP011
387.146	1.6	158042	WORD	n/a	wordpools/wordpool_EN.txt	MULE	9.0	3	n/a	n/a	pyFR	2	UP011
389.565	1.6	159009	WORD	n/a	wordpools/wordpool_EN.txt	KEY	10.0	3	n/a	n/a	pyFR	2	UP011
392.338	1.6	160118	WORD	n/a	wordpools/wordpool_EN.txt	WING	11.0	3	n/a	n/a	pyFR	2	UP011
394.817	1.6	161110	WORD	n/a	wordpools/wordpool_EN.txt	SHOE	12.0	3	n/a	n/a	pyFR	2	UP011
397.312	1.6	162108	WORD	n/a	wordpools/wordpool_EN.txt	WHALE	13.0	3	n/a	n/a	pyFR	2	UP011
400.023	1.6	163192	WORD	n/a	wordpools/wordpool_EN.txt	HOLE	14.0	3	n/a	n/a	pyFR	2	UP011
402.78	1.6	164295	WORD	n/a	wordpools/wordpool_EN.txt	MOOSE	15.0	3	n/a	n/a	pyFR	2	UP011
404.392	0.835	164940	START	n/a	n/a	n/a	n/a	3	[-999 -999 -999]	-999.0	pyFR	2	UP011
405.227	4.116	165274	PROB	4.054	n/a	n/a	n/a	3	[6 2 4]	12.0	pyFR	2	UP011
409.343	3.41	166920	PROB	3.317	n/a	n/a	n/a	3	[7 7 2]	16.0	pyFR	2	UP011
412.753	4.074	168284	PROB	3.996	n/a	n/a	n/a	3	[5 9 6]	20.0	pyFR	2	UP011
416.827	2.332	169913	PROB	2.242	n/a	n/a	n/a	3	[8 3 1]	12.0	pyFR	2	UP011
419.159	2.476	170846	PROB	2.388	n/a	n/a	n/a	3	[8 9 6]	23.0	pyFR	2	UP011
421.635	2.429	171837	PROB	2.352	n/a	n/a	n/a	3	[2 8 8]	18.0	pyFR	2	UP011
424.064	3.552	172808	PROB	3.552	n/a	n/a	n/a	3	[6 5 6]	17.0	pyFR	2	UP011
427.616	1.115	174229	STOP	n/a	n/a	n/a	n/a	3	[-999 -999 -999]	-999.0	pyFR	2	UP011
428.731	1.869	174675	REC_START	n/a	n/a	n/a	-999.0	-999	n/a	n/a	pyFR	2	UP011
430.6	3.86	175422	REC_WORD	1.869	n/a	FUDGE	-999.0	3	n/a	n/a	pyFR	2	UP011
434.46	2.612	176966	REC_WORD	5.729	n/a	MOOSE	-999.0	3	n/a	n/a	pyFR	2	UP011
437.072	0.657	178011	REC_WORD	8.341	n/a	WHALE	-999.0	3	n/a	n/a	pyFR	2	UP011
437.729	2.875	178274	REC_WORD	8.998	n/a	HOLE	-999.0	3	n/a	n/a	pyFR	2	UP011
440.604	14.768	179424	REC_WORD	11.873	n/a	WING	-999.0	3	n/a	n/a	pyFR	2	UP011
455.372	21.361	185331	REC_WORD	26.641	n/a	DOG	-999.0	3	n/a	n/a	pyFR	2	UP011
476.733	0.019	193875	TRIAL	n/a	n/a	n/a	-999.0	-999	n/a	n/a	pyFR	2	UP011
476.752	1.6	193883	ORIENT	n/a	n/a	n/a	-999.0	-999	n/a	n/a	pyFR	2	UP011
479.489	1.6	194977	WORD	n/a	wordpools/wordpool_EN.txt	STONE	1.0	4	n/a	n/a	pyFR	2	UP011
481.902	1.6	195943	WORD	n/a	wordpools/wordpool_EN.txt	PHONE	2.0	4	n/a	n/a	pyFR	2	UP011
484.668	1.6	197049	WORD	n/a	wordpools/wordpool_EN.txt	CANE	3.0	4	n/a	n/a	pyFR	2	UP011
487.443	1.6	198159	WORD	n/a	wordpools/wordpool_EN.txt	SPRING	4.0	4	n/a	n/a	pyFR	2	UP011
489.885	1.6	199136	WORD	n/a	wordpools/wordpool_EN.txt	CHIN	5.0	4	n/a	n/a	pyFR	2	UP011
492.382	1.6	200134	WORD	n/a	wordpools/wordpool_EN.txt	TRAIN	6.0	4	n/a	n/a	pyFR	2	UP011
495.134	1.6	201235	WORD	n/a	wordpools/wordpool_EN.txt	SWORD	7.0	4	n/a	n/a	pyFR	2	UP011
497.631	1.6	202234	WORD	n/a	wordpools/wordpool_EN.txt	DRESS	8.0	4	n/a	n/a	pyFR	2	UP011
500.385	1.6	203335	WORD	n/a	wordpools/wordpool_EN.txt	BEE	9.0	4	n/a	n/a	pyFR	2	UP011
503.075	1.6	204411	WORD	n/a	wordpools/wordpool_EN.txt	WHEEL	10.0	4	n/a	n/a	pyFR	2	UP011
505.768	1.6	205489	WORD	n/a	wordpools/wordpool_EN.txt	MOLE	11.0	4	n/a	n/a	pyFR	2	UP011
508.428	1.6	206552	WORD	n/a	wordpools/wordpool_EN.txt	SWAMP	12.0	4	n/a	n/a	pyFR	2	UP011
511.078	1.6	207612	WORD	n/a	wordpools/wordpool_EN.txt	GLOVE	13.0	4	n/a	n/a	pyFR	2	UP011
513.838	1.6	208716	WORD	n/a	wordpools/wordpool_EN.txt	CAPE	14.0	4	n/a	n/a	pyFR	2	UP011
516.623	1.6	209830	WORD	n/a	wordpools/wordpool_EN.txt	ELF	15.0	4	n/a	n/a	pyFR	2	UP011
518.236	1.089	210476	START	n/a	n/a	n/a	n/a	4	[-999 -999 -999]	-999.0	pyFR	2	UP011
519.325	3.322	210911	PROB	3.243	n/a	n/a	n/a	4	[9 7 4]	20.0	pyFR	2	UP011
522.647	2.929	212240	PROB	2.84	n/a	n/a	n/a	4	[9 1 4]	14.0	pyFR	2	UP011
525.576	4.439	213411	PROB	4.39	n/a	n/a	n/a	4	[3 9 8]	20.0	pyFR	2	UP011
530.015	2.693	215187	PROB	2.64	n/a	n/a	n/a	4	[5 1 5]	11.0	pyFR	2	UP011
532.708	3.659	216264	PROB	3.565	n/a	n/a	n/a	4	[8 1 2]	11.0	pyFR	2	UP011
536.367	3.966	217728	PROB	3.966	n/a	n/a	n/a	4	[4 1 3]	8.0	pyFR	2	UP011
540.333	1.206	219314	STOP	n/a	n/a	n/a	n/a	4	[-999 -999 -999]	-999.0	pyFR	2	UP011
541.539	4.116	219796	REC_START	n/a	n/a	n/a	-999.0	-999	n/a	n/a	pyFR	2	UP011
545.655	1.265	221443	REC_WORD	4.116	n/a	SWORD	-999.0	4	n/a	n/a	pyFR	2	UP011
546.92	27.749	221949	REC_WORD	5.381	n/a	DRESS	-999.0	4	n/a	n/a	pyFR	2	UP011
574.669	1.196	233048	REC_WORD	33.13	n/a	MOLE	-999.0	4	n/a	n/a	pyFR	2	UP011
575.865	1.214	233526	REC_WORD	34.326	n/a	WHEEL	-999.0	4	n/a	n/a	pyFR	2	UP011
577.079	12.829	234012	REC_WORD	35.54	n/a	BEE	-999.0	4	n/a	n/a	pyFR	2	UP011
589.908	0.02	239143	TRIAL	n/a	n/a	n/a	-999.0	-999	n/a	n/a	pyFR	2	UP011
589.928	1.6	239151	ORIENT	n/a	n/a	n/a	-999.0	-999	n/a	n/a	pyFR	2	UP011
592.54	1.6	240196	WORD	n/a	wordpools/wordpool_EN.txt	ARK	1.0	5	n/a	n/a	pyFR	2	UP011
595.203	1.6	241261	WORD	n/a	wordpools/wordpool_EN.txt	SPOON	2.0	5	n/a	n/a	pyFR	2	UP011
597.707	1.6	242263	WORD	n/a	wordpools/wordpool_EN.txt	BAND	3.0	5	n/a	n/a	pyFR	2	UP011
600.499	1.6	243379	WORD	n/a	wordpools/wordpool_EN.txt	STREET	4.0	5	n/a	n/a	pyFR	2	UP011
603.135	1.6	244434	WORD	n/a	wordpools/wordpool_EN.txt	CHAIR	5.0	5	n/a	n/a	pyFR	2	UP011
605.89	1.6	245536	WORD	n/a	wordpools/wordpool_EN.txt	SMOKE	6.0	5	n/a	n/a	pyFR	2	UP011
608.31	1.6	246504	WORD	n/a	wordpools/wordpool_EN.txt	BOX	7.0	5	n/a	n/a	pyFR	2	UP011
610.784	1.6	247493	WORD	n/a	wordpools/wordpool_EN.txt	BOY	8.0	5	n/a	n/a	pyFR	2	UP011
613.433	1.6	248553	WORD	n/a	wordpools/wordpool_EN.txt	JAR	9.0	5	n/a	n/a	pyFR	2	UP011
616.097	1.6	249618	WORD	n/a	wordpools/wordpool_EN.txt	KITE	10.0	5	n/a	n/a	pyFR	2	UP011
618.567	1.6	250606	WORD	n/a	wordpools/wordpool_EN.txt	SMILE	11.0	5	n/a	n/a	pyFR	2	UP011
621.156	1.6	251642	WORD	n/a	wordpools/wordpool_EN.txt	FOX	12.0	5	n/a	n/a	pyFR	2	UP011
623.838	1.6	252715	WORD	n/a	wordpools/wordpool_EN.txt	CHEEK	13.0	5	n/a	n/a	pyFR	2	UP011
626.471	1.6	253768	WORD	n/a	wordpools/wordpool_EN.txt	SUIT	14.0	5	n/a	n/a	pyFR	2	UP011
628.974	1.6	254769	WORD	n/a	wordpools/wordpool_EN.txt	EAR	15.0	5	n/a	n/a	pyFR	2	UP011
630.588	0.847	255415	START	n/a	n/a	n/a	n/a	5	[-999 -999 -999]	-999.0	pyFR	2	UP011
631.435	6.261	255753	PROB	6.169	n/a	n/a	n/a	5	[5 6 8]	19.0	pyFR	2	UP011
637.696	4.1	258258	PROB	4.007	n/a	n/a	n/a	5	[4 8 5]	17.0	pyFR	2	UP011
641.796	2.091	259898	PROB	2.011	n/a	n/a	n/a	5	[7 4 3]	14.0	pyFR	2	UP011
643.887	1.74	260734	PROB	1.65	n/a	n/a	n/a	5	[5 5 8]	18.0	pyFR	2	UP011
645.627	1.673	261430	PROB	1.589	n/a	n/a	n/a	5	[4 6 1]	11.0	pyFR	2	UP011
647.3	2.191	262099	PROB	2.105	n/a	n/a	n/a	5	[5 3 5]	13.0	pyFR	2	UP011
649.491	2.343	262976	PROB	2.343	n/a	n/a	n/a	5	[4 4 6]	14.0	pyFR	2	UP011
651.834	1.174	263913	STOP	n/a	n/a	n/a	n/a	5	[-999 -999 -999]	-999.0	pyFR	2	UP011
653.008	1.097	264382	REC_START	n/a	n/a	n/a	-999.0	-999	n/a	n/a	pyFR	2	UP011
654.105	0.697	264821	REC_WORD	1.097	n/a	BAND	-999.0	5	n/a	n/a	pyFR	2	UP011
654.802	5.457	265100	REC_WORD	1.794	n/a	STREET	-999.0	5	n/a	n/a	pyFR	2	UP011
660.259	1.15	267283	REC_WORD	7.251	n/a	SMILE	-999.0	5	n/a	n/a	pyFR	2	UP011
661.409	3.554	267743	REC_WORD	8.401	n/a	FOX	-999.0	5	n/a	n/a	pyFR	2	UP011
664.963	25.71	269164	REC_WORD	11.955	n/a	KITE	-999.0	5	n/a	n/a	pyFR	2	UP011
690.673	9.298	279448	REC_WORD	37.665	n/a	SUIT	-999.0	5	n/a	n/a	pyFR	2	UP011
699.971	0.02	283167	TRIAL	n/a	n/a	n/a	-999.0	-999	n/a	n/a	pyFR	2	UP011
699.991	1.6	283175	ORIENT	n/a	n/a	n/a	-999.0	-999	n/a	n/a	pyFR	2	UP011
702.796	1.6	284297	WORD	n/a	wordpools/wordpool_EN.txt	GRASS	1.0	6	n/a	n/a	pyFR	2	UP011
705.285	1.6	285292	WORD	n/a	wordpools/wordpool_EN.txt	BEAR	2.0	6	n/a	n/a	pyFR	2	UP011
707.818	1.6	286305	WORD	n/a	wordpools/wordpool_EN.txt	TOY	3.0	6	n/a	n/a	pyFR	2	UP011
710.41	1.6	287342	WORD	n/a	wordpools/wordpool_EN.txt	MOTH	4.0	6	n/a	n/a	pyFR	2	UP011
713.196	1.6	288457	WORD	n/a	wordpools/wordpool_EN.txt	TRUCK	5.0	6	n/a	n/a	pyFR	2	UP011
715.646	1.6	289437	WORD	n/a	wordpools/wordpool_EN.txt	COW	6.0	6	n/a	n/a	pyFR	2	UP011
718.182	1.6	290451	WORD	n/a	wordpools/wordpool_EN.txt	BOOK	7.0	6	n/a	n/a	pyFR	2	UP011
720.848	1.6	291517	WORD	n/a	wordpools/wordpool_EN.txt	DRUM	8.0	6	n/a	n/a	pyFR	2	UP011
723.472	1.6	292567	WORD	n/a	wordpools/wordpool_EN.txt	FISH	9.0	6	n/a	n/a	pyFR	2	UP011
726.126	1.6	293628	WORD	n/a	wordpools/wordpool_EN.txt	ROCK	10.0	6	n/a	n/a	pyFR	2	UP011
728.842	1.6	294715	WORD	n/a	wordpools/wordpool_EN.txt	CONE	11.0	6	n/a	n/a	pyFR	2	UP011
731.305	1.6	295700	WORD	n/a	wordpools/wordpool_EN.txt	SNAKE	12.0	6	n/a	n/a	pyFR	2	UP011
734.069	1.6	296805	WORD	n/a	wordpools/wordpool_EN.txt	RUG	13.0	6	n/a	n/a	pyFR	2	UP011
736.505	1.6	297780	WORD	n/a	wordpools/wordpool_EN.txt	CALF	14.0	6	n/a	n/a	pyFR	2	UP011
738.963	1.6	298763	WORD	n/a	wordpools/wordpool_EN.txt	FOAM	15.0	6	n/a	n/a	pyFR	2	UP011
740.588	0.865	299413	START	n/a	n/a	n/a	n/a	6	[-999 -999 -999]	-999.0	pyFR	2	UP011
741.453	7.48	299759	PROB	7.399	n/a	n/a	n/a	6	[7 5 3]	15.0	pyFR	2	UP011
748.933	4.42	302751	PROB	4.357	n/a	n/a	n/a	6	[1 8 2]	11.0	pyFR	2	UP011
753.353	2.021	304519	PROB	1.926	n/a	n/a	n/a	6	[7 1 3]	11.0	pyFR	2	UP011
755.374	2.307	305327	PROB	2.23	n/a	n/a	n/a	6	[6 6 6]	18.0	pyFR	2	UP011
757.681	4.251	306250	PROB	4.251	n/a	n/a	n/a	6	[5 8 3]	17.0	pyFR	2	UP011
761.932	1.205	307950	STOP	n/a	n/a	n/a	n/a	6	[-999 -999 -999]	-999.0	pyFR	2	UP011
763.137	1.59	308432	REC_START	n/a	n/a	n/a	-999.0	-999	n/a	n/a	pyFR	2	UP011
764.727	0.97	309068	REC_WORD	1.59	n/a	BEAR	-999.0	6	n/a	n/a	pyFR	2	UP011
765.697	3.274	309456	REC_WORD	2.56	n/a	GRASS	-999.0	6	n/a	n/a	pyFR	2	UP011
768.971	3.013	310766	REC_WORD	5.834	n/a	CALF	-999.0	6	n/a	n/a	pyFR	2	UP011
771.984	0.755	311971	REC_WORD	8.847	n/a	CONE	-999.0	6	n/a	n/a	pyFR	2	UP011
772.739	2.034	312273	REC_WORD	9.602	n/a	SNAKE	-999.0	6	n/a	n/a	pyFR	2	UP011
774.773	0.801	313086	REC_WORD	11.636	n/a	TOY	-999.0	6	n/a	n/a	pyFR	2	UP011
775.574	4.183	313407	REC_WORD	12.437	n/a	TRUCK	-999.0	6	n/a	n/a	pyFR	2	UP011
779.757	4.719	315080	REC_WORD	16.62	n/a	BOOK	-999.0	6	n/a	n/a	pyFR	2	UP011
784.476	1.486	316967	REC_WORD	21.339	n/a	FOAM	-999.0	6	n/a	n/a	pyFR	2	UP011
785.962	24.272	317562	REC_WORD	22.825	n/a	RUG	-999.0	6	n/a	n/a	pyFR	2	UP011
810.234	0.019	327270	TRIAL	n/a	n/a	n/a	-999.0	-999	n/a	n/a	pyFR	2	UP011
810.253	1.6	327278	ORIENT	n/a	n/a	n/a	-999.0	-999	n/a	n/a	pyFR	2	UP011
813.064	1.6	328402	WORD	n/a	wordpools/wordpool_EN.txt	JEEP	1.0	7	n/a	n/a	pyFR	2	UP011
815.685	1.6	329451	WORD	n/a	wordpools/wordpool_EN.txt	BED	2.0	7	n/a	n/a	pyFR	2	UP011
818.146	1.6	330435	WORD	n/a	wordpools/wordpool_EN.txt	BROOM	3.0	7	n/a	n/a	pyFR	2	UP011
820.89	1.6	331533	WORD	n/a	wordpools/wordpool_EN.txt	DEER	4.0	7	n/a	n/a	pyFR	2	UP011
823.682	1.6	332649	WORD	n/a	wordpools/wordpool_EN.txt	LEG	5.0	7	n/a	n/a	pyFR	2	UP011
826.382	1.6	333729	WORD	n/a	wordpools/wordpool_EN.txt	WORM	6.0	7	n/a	n/a	pyFR	2	UP011
829.169	1.6	334844	WORD	n/a	wordpools/wordpool_EN.txt	STORM	7.0	7	n/a	n/a	pyFR	2	UP011
831.664	1.6	335842	WORD	n/a	wordpools/wordpool_EN.txt	RAKE	8.0	7	n/a	n/a	pyFR	2	UP011
834.115	1.6	336822	WORD	n/a	wordpools/wordpool_EN.txt	MAZE	9.0	7	n/a	n/a	pyFR	2	UP011
836.785	1.6	337890	WORD	n/a	wordpools/wordpool_EN.txt	FOOD	10.0	7	n/a	n/a	pyFR	2	UP011
839.445	1.6	338954	WORD	n/a	wordpools/wordpool_EN.txt	HORN	11.0	7	n/a	n/a	pyFR	2	UP011
841.909	1.6	339940	WORD	n/a	wordpools/wordpool_EN.txt	DIME	12.0	7	n/a	n/a	pyFR	2	UP011
844.603	1.6	341017	WORD	n/a	wordpools/wordpool_EN.txt	WAND	13.0	7	n/a	n/a	pyFR	2	UP011
847.288	1.6	342091	WORD	n/a	wordpools/wordpool_EN.txt	TOAD	14.0	7	n/a	n/a	pyFR	2	UP011
850.081	1.6	343208	WORD	n/a	wordpools/wordpool_EN.txt	PET	15.0	7	n/a	n/a	pyFR	2	UP011
851.706	1.123	343858	START	n/a	n/a	n/a	n/a	7	[-999 -999 -999]	-999.0	pyFR	2	UP011
852.829	3.287	344308	PROB	3.206	n/a	n/a	n/a	7	[5 9 4]	18.0	pyFR	2	UP011
856.116	3.8	345622	PROB	3.718	n/a	n/a	n/a	7	[9 4 5]	18.0	pyFR	2	UP011
859.916	7.145	347142	PROB	7.056	n/a	n/a	n/a	7	[6 7 9]	22.0	pyFR	2	UP011
867.061	2.993	350000	PROB	2.911	n/a	n/a	n/a	7	[8 3 3]	14.0	pyFR	2	UP011
870.054	2.946	351197	PROB	2.946	n/a	n/a	n/a	7	[2 2 8]	12.0	pyFR	2	UP011
873.0	1.057	352376	STOP	n/a	n/a	n/a	n/a	7	[-999 -999 -999]	-999.0	pyFR	2	UP011
874.057	6.431	352799	REC_START	n/a	n/a	n/a	-999.0	-999	n/a	n/a	pyFR	2	UP011
880.488	4.494	355371	REC_WORD	6.431	n/a	JEEP	-999.0	7	n/a	n/a	pyFR	2	UP011
884.982	0.789	357168	REC_WORD	10.925	n/a	BED	-999.0	7	n/a	n/a	pyFR	2	UP011
885.771	11.912	357484	REC_WORD	11.714	n/a	BROOM	-999.0	7	n/a	n/a	pyFR	2	UP011
897.683	0.767	362249	REC_WORD	23.626	n/a	LEG	-999.0	7	n/a	n/a	pyFR	2	UP011
898.45	22.584	362555	REC_WORD	24.393	n/a	WORM	-999.0	7	n/a	n/a	pyFR	2	UP011
921.034	0.018	371589	TRIAL	n/a	n/a	n/a	-999.0	-999	n/a	n/a	pyFR	2	UP011
921.052	1.6	371596	ORIENT	n/a	n/a	n/a	-999.0	-999	n/a	n/a	pyFR	2	UP011
923.765	1.6	372681	WORD	n/a	wordpools/wordpool_EN.txt	SHRIMP	1.0	8	n/a	n/a	pyFR	2	UP011
926.492	1.6	373772	WORD	n/a	wordpools/wordpool_EN.txt	ANT	2.0	8	n/a	n/a	pyFR	2	UP011
929.102	1.6	374816	WORD	n/a	wordpools/wordpool_EN.txt	CARD	3.0	8	n/a	n/a	pyFR	2	UP011
931.831	1.6	375907	WORD	n/a	wordpools/wordpool_EN.txt	CLOTH	4.0	8	n/a	n/a	pyFR	2	UP011
934.354	1.6	376916	WORD	n/a	wordpools/wordpool_EN.txt	MAT	5.0	8	n/a	n/a	pyFR	2	UP011
936.861	1.6	377919	WORD	n/a	wordpools/wordpool_EN.txt	BOAT	6.0	8	n/a	n/a	pyFR	2	UP011
939.576	1.6	379005	WORD	n/a	wordpools/wordpool_EN.txt	TOOL	7.0	8	n/a	n/a	pyFR	2	UP011
942.26	1.6	380079	WORD	n/a	wordpools/wordpool_EN.txt	PEARL	8.0	8	n/a	n/a	pyFR	2	UP011
944.884	1.6	381128	WORD	n/a	wordpools/wordpool_EN.txt	SHELL	9.0	8	n/a	n/a	pyFR	2	UP011
947.543	1.6	382192	WORD	n/a	wordpools/wordpool_EN.txt	OAR	10.0	8	n/a	n/a	pyFR	2	UP011
950.273	1.6	383284	WORD	n/a	wordpools/wordpool_EN.txt	CLIFF	11.0	8	n/a	n/a	pyFR	2	UP011
952.832	1.6	384307	WORD	n/a	wordpools/wordpool_EN.txt	LAND	12.0	8	n/a	n/a	pyFR	2	UP011
955.347	1.6	385313	WORD	n/a	wordpools/wordpool_EN.txt	SALT	13.0	8	n/a	n/a	pyFR	2	UP011
957.989	1.6	386370	WORD	n/a	wordpools/wordpool_EN.txt	BALL	14.0	8	n/a	n/a	pyFR	2	UP011
960.778	1.6	387486	WORD	n/a	wordpools/wordpool_EN.txt	SPEAR	15.0	8	n/a	n/a	pyFR	2	UP011
962.405	1.116	388136	START	n/a	n/a	n/a	n/a	8	[-999 -999 -999]	-999.0	pyFR	2	UP011
963.521	4.751	388583	PROB	4.661	n/a	n/a	n/a	8	[5 2 4]	11.0	pyFR	2	UP011
968.272	3.136	390483	PROB	3.059	n/a	n/a	n/a	8	[7 8 4]	19.0	pyFR	2	UP011
971.408	3.02	391737	PROB	2.942	n/a	n/a	n/a	8	[6 8 6]	20.0	pyFR	2	UP011
974.428	4.107	392945	PROB	4.031	n/a	n/a	n/a	8	[5 8 2]	16.0	pyFR	2	UP011
978.535	4.633	394588	PROB	4.633	n/a	n/a	n/a	8	[1 1 4]	6.0	pyFR	2	UP011
983.168	1.1	396441	STOP	n/a	n/a	n/a	n/a	8	[-999 -999 -999]	-999.0	pyFR	2	UP011
984.268	1.561	396881	REC_START	n/a	n/a	n/a	-999.0	-999	n/a	n/a	pyFR	2	UP011
985.829	0.581	397506	REC_WORD	1.561	n/a	ANT	-999.0	8	n/a	n/a	pyFR	2	UP011
986.41	0.923	397738	REC_WORD	2.142	n/a	SHRIMP	-999.0	8	n/a	n/a	pyFR	2	UP011
987.333	1.562	398107	REC_WORD	3.065	n/a	CARD	-999.0	8	n/a	n/a	pyFR	2	UP011
988.895	0.865	398732	REC_WORD	4.627	n/a	RUG	-999.0	8	n/a	n/a	pyFR	2	UP011
989.76	2.943	399078	REC_WORD	5.492	n/a	CLOTH	-999.0	8	n/a	n/a	pyFR	2	UP011
992.703	2.055	400255	REC_WORD	8.435	n/a	BALL	-999.0	8	n/a	n/a	pyFR	2	UP011
994.758	7.988	401077	REC_WORD	10.49	n/a	SHELL	-999.0	8	n/a	n/a	pyFR	2	UP011
1002.746	1.086	404272	REC_WORD	18.478	n/a	CLIFF	-999.0	8	n/a	n/a	pyFR	2	UP011
1003.832	3.303	404707	REC_WORD	19.564	n/a	LAND	-999.0	8	n/a	n/a	pyFR	2	UP011
1007.135	11.639	406028	REC_WORD	22.867	n/a	OAR	-999.0	8	n/a	n/a	pyFR	2	UP011
1018.774	13.06	410683	REC_WORD	34.506	n/a	PEARL	-999.0	8	n/a	n/a	pyFR	2	UP011
1031.834	0.02	415907	TRIAL	n/a	n/a	n/a	-999.0	-999	n/a	n/a	pyFR	2	UP011
1031.854	1.6	415915	ORIENT	n/a	n/a	n/a	-999.0	-999	n/a	n/a	pyFR	2	UP011
1034.748	1.6	417072	WORD	n/a	wordpools/wordpool_EN.txt	COIN	1.0	9	n/a	n/a	pyFR	2	UP011
1037.152	1.6	418034	WORD	n/a	wordpools/wordpool_EN.txt	TRAY	2.0	9	n/a	n/a	pyFR	2	UP011
1039.961	1.6	419158	WORD	n/a	wordpools/wordpool_EN.txt	HEN	3.0	9	n/a	n/a	pyFR	2	UP011
1042.596	1.6	420212	WORD	n/a	wordpools/wordpool_EN.txt	NEST	4.0	9	n/a	n/a	pyFR	2	UP011
1045.053	1.6	421194	WORD	n/a	wordpools/wordpool_EN.txt	PALM	5.0	9	n/a	n/a	pyFR	2	UP011
1047.52	1.6	422181	WORD	n/a	wordpools/wordpool_EN.txt	SEED	6.0	9	n/a	n/a	pyFR	2	UP011
1050.287	1.6	423288	WORD	n/a	wordpools/wordpool_EN.txt	BRANCH	7.0	9	n/a	n/a	pyFR	2	UP011
1053.083	1.6	424406	WORD	n/a	wordpools/wordpool_EN.txt	FLOOR	8.0	9	n/a	n/a	pyFR	2	UP011
1055.848	1.6	425512	WORD	n/a	wordpools/wordpool_EN.txt	JET	9.0	9	n/a	n/a	pyFR	2	UP011
1058.43	1.6	426545	WORD	n/a	wordpools/wordpool_EN.txt	CUP	10.0	9	n/a	n/a	pyFR	2	UP011
1060.884	1.6	427526	WORD	n/a	wordpools/wordpool_EN.txt	THUMB	11.0	9	n/a	n/a	pyFR	2	UP011
1063.592	1.6	428610	WORD	n/a	wordpools/wordpool_EN.txt	SOCK	12.0	9	n/a	n/a	pyFR	2	UP011
1066.161	1.6	429637	WORD	n/a	wordpools/wordpool_EN.txt	GOLD	13.0	9	n/a	n/a	pyFR	2	UP011
1068.597	1.6	430612	WORD	n/a	wordpools/wordpool_EN.txt	CAT	14.0	9	n/a	n/a	pyFR	2	UP011
1071.098	1.6	431612	WORD	n/a	wordpools/wordpool_EN.txt	TIE	15.0	9	n/a	n/a	pyFR	2	UP011
1072.707	0.917	432256	START	n/a	n/a	n/a	n/a	9	[-999 -999 -999]	-999.0	pyFR	2	UP011
1073.624	5.347	432622	PROB	5.255	n/a	n/a	n/a	9	[8 1 9]	18.0	pyFR	2	UP011
1078.971	3.296	434761	PROB	3.213	n/a	n/a	n/a	9	[5 4 5]	14.0	pyFR	2	UP011
1082.267	2.559	436079	PROB	2.466	n/a	n/a	n/a	9	[4 2 7]	13.0	pyFR	2	UP011
1084.826	2.766	437103	PROB	2.706	n/a	n/a	n/a	9	[1 8 9]	18.0	pyFR	2	UP011
1087.592	4.482	438209	PROB	4.309	n/a	n/a	n/a	9	[4 3 8]	15.0	pyFR	2	UP011
1092.074	2.701	440002	PROB	2.701	n/a	n/a	n/a	9	[6 8 8]	22.0	pyFR	2	UP011
1094.775	1.18	441082	STOP	n/a	n/a	n/a	n/a	9	[-999 -999 -999]	-999.0	pyFR	2	UP011
1095.955	1.811	441554	REC_START	n/a	n/a	n/a	-999.0	-999	n/a	n/a	pyFR	2	UP011
1097.766	13.548	442279	REC_WORD	1.811	n/a	CUP	-999.0	9	n/a	n/a	pyFR	2	UP011
1111.314	0.721	447698	REC_WORD	15.359	n/a	OWL	-999.0	9	n/a	n/a	pyFR	2	UP011
1112.035	2.479	447986	REC_WORD	16.08	n/a	NEST	-999.0	9	n/a	n/a	pyFR	2	UP011
1114.514	1.074	448978	REC_WORD	18.559	n/a	SEED	-999.0	9	n/a	n/a	pyFR	2	UP011
1115.588	2.88	449407	REC_WORD	19.633	n/a	BRANCH	-999.0	9	n/a	n/a	pyFR	2	UP011
1118.468	0.714	450559	REC_WORD	22.513	n/a	CAT	-999.0	9	n/a	n/a	pyFR	2	UP011
1119.182	3.71	450845	REC_WORD	23.227	n/a	TIE	-999.0	9	n/a	n/a	pyFR	2	UP011
1122.892	1.05	452329	REC_WORD	26.937	n/a	COIN	-999.0	9	n/a	n/a	pyFR	2	UP011
1123.942	8.737	452749	REC_WORD	27.987	n/a	TRAY	-999.0	9	n/a	n/a	pyFR	2	UP011
1132.679	10.624	456243	REC_WORD	36.724	n/a	PALM	-999.0	9	n/a	n/a	pyFR	2	UP011
1143.303	0.019	460493	TRIAL	n/a	n/a	n/a	-999.0	-999	n/a	n/a	pyFR	2	UP011
1143.322	1.6	460500	ORIENT	n/a	n/a	n/a	-999.0	-999	n/a	n/a	pyFR	2	UP011
1146.315	1.6	461698	WORD	n/a	wordpools/wordpool_EN.txt	ROOT	1.0	10	n/a	n/a	pyFR	2	UP011
1149.109	1.6	462815	WORD	n/a	wordpools/wordpool_EN.txt	GEESE	2.0	10	n/a	n/a	pyFR	2	UP011
1151.565	1.6	463798	WORD	n/a	wordpools/wordpool_EN.txt	BATH	3.0	10	n/a	n/a	pyFR	2	UP011
1154.333	1.6	464905	WORD	n/a	wordpools/wordpool_EN.txt	JUDGE	4.0	10	n/a	n/a	pyFR	2	UP011
1157.03	1.6	465983	WORD	n/a	wordpools/wordpool_EN.txt	WOOD	5.0	10	n/a	n/a	pyFR	2	UP011
1159.55	1.6	466991	WORD	n/a	wordpools/wordpool_EN.txt	FUR	6.0	10	n/a	n/a	pyFR	2	UP011
1162.24	1.6	468067	WORD	n/a	wordpools/wordpool_EN.txt	STAR	7.0	10	n/a	n/a	pyFR	2	UP011
1164.844	1.6	469109	WORD	n/a	wordpools/wordpool_EN.txt	ROPE	8.0	10	n/a	n/a	pyFR	2	UP011
1167.385	1.6	470125	WORD	n/a	wordpools/wordpool_EN.txt	BENCH	9.0	10	n/a	n/a	pyFR	2	UP011
1170.107	1.6	471214	WORD	n/a	wordpools/wordpool_EN.txt	PEN	10.0	10	n/a	n/a	pyFR	2	UP011
1172.592	1.6	472208	WORD	n/a	wordpools/wordpool_EN.txt	SHARK	11.0	10	n/a	n/a	pyFR	2	UP011
1175.131	1.6	473224	WORD	n/a	wordpools/wordpool_EN.txt	SCHOOL	12.0	10	n/a	n/a	pyFR	2	UP011
1177.68	1.6	474243	WORD	n/a	wordpools/wordpool_EN.txt	CAGE	13.0	10	n/a	n/a	pyFR	2	UP011
1180.33	1.6	475303	WORD	n/a	wordpools/wordpool_EN.txt	DITCH	14.0	10	n/a	n/a	pyFR	2	UP011
1183.081	1.6	476403	WORD	n/a	wordpools/wordpool_EN.txt	SHEET	15.0	10	n/a	n/a	pyFR	2	UP011
1184.707	0.949	477054	START	n/a	n/a	n/a	n/a	10	[-999 -999 -999]	-999.0	pyFR	2	UP011
1185.656	3.279	477433	PROB	3.192	n/a	n/a	n/a	10	[2 7 3]	12.0	pyFR	2	UP011
1188.935	5.536	478745	PROB	5.451	n/a	n/a	n/a	10	[9 1 5]	15.0	pyFR	2	UP011
1194.471	3.565	480959	PROB	3.474	n/a	n/a	n/a	10	[5 5 5]	15.0	pyFR	2	UP011
1198.036	4.116	482385	PROB	4.029	n/a	n/a	n/a	10	[9 4 1]	14.0	pyFR	2	UP011
1202.152	2.391	484032	PROB	2.301	n/a	n/a	n/a	10	[1 3 8]	12.0	pyFR	2	UP011
1204.543	3.339	484988	PROB	3.339	n/a	n/a	n/a	10	[2 4 3]	9.0	pyFR	2	UP011
1207.882	1.232	486323	STOP	n/a	n/a	n/a	n/a	10	[-999 -999 -999]	-999.0	pyFR	2	UP011
1209.114	1.445	486816	REC_START	n/a	n/a	n/a	-999.0	-999	n/a	n/a	pyFR	2	UP011
1210.559	0.674	487394	REC_WORD	1.445	n/a	DITCH	-999.0	10	n/a	n/a	pyFR	2	UP011
1211.233	47.789	487664	REC_WORD	2.119	n/a	CAGE	-999.0	10	n/a	n/a	pyFR	2	UP011
1259.022	0.02	506779	TRIAL	n/a	n/a	n/a	-999.0	-999	n/a	n/a	pyFR	2	UP011
1259.042	1.6	506787	ORIENT	n/a	n/a	n/a	-999.0	-999	n/a	n/a	pyFR	2	UP011
1261.835	1.6	507904	WORD	n/a	wordpools/wordpool_EN.txt	MOUTH	1.0	11	n/a	n/a	pyFR	2	UP011
1264.488	1.6	508965	WORD	n/a	wordpools/wordpool_EN.txt	SKUNK	2.0	11	n/a	n/a	pyFR	2	UP011
1267.249	1.6	510069	WORD	n/a	wordpools/wordpool_EN.txt	SHIP	3.0	11	n/a	n/a	pyFR	2	UP011
1269.763	1.6	511075	WORD	n/a	wordpools/wordpool_EN.txt	PARK	4.0	11	n/a	n/a	pyFR	2	UP011
1272.52	1.6	512178	WORD	n/a	wordpools/wordpool_EN.txt	PRINCE	5.0	11	n/a	n/a	pyFR	2	UP011
1275.133	1.6	513223	WORD	n/a	wordpools/wordpool_EN.txt	PASTE	6.0	11	n/a	n/a	pyFR	2	UP011
1277.853	1.6	514311	WORD	n/a	wordpools/wordpool_EN.txt	CUBE	7.0	11	n/a	n/a	pyFR	2	UP011
1280.623	1.6	515419	WORD	n/a	wordpools/wordpool_EN.txt	EEL	8.0	11	n/a	n/a	pyFR	2	UP011
1283.348	1.6	516509	WORD	n/a	wordpools/wordpool_EN.txt	FORT	9.0	11	n/a	n/a	pyFR	2	UP011
1285.917	1.6	517536	WORD	n/a	wordpools/wordpool_EN.txt	HAT	10.0	11	n/a	n/a	pyFR	2	UP011
1288.587	1.6	518604	WORD	n/a	wordpools/wordpool_EN.txt	STRING	11.0	11	n/a	n/a	pyFR	2	UP011
1291.322	1.6	519698	WORD	n/a	wordpools/wordpool_EN.txt	DOOR	12.0	11	n/a	n/a	pyFR	2	UP011
1294.025	1.6	520779	WORD	n/a	wordpools/wordpool_EN.txt	PLATE	13.0	11	n/a	n/a	pyFR	2	UP011
1296.72	1.6	521857	WORD	n/a	wordpools/wordpool_EN.txt	ZOO	14.0	11	n/a	n/a	pyFR	2	UP011
1299.363	1.6	522914	WORD	n/a	wordpools/wordpool_EN.txt	PEA	15.0	11	n/a	n/a	pyFR	2	UP011
1300.978	1.079	523560	START	n/a	n/a	n/a	n/a	11	[-999 -999 -999]	-999.0	pyFR	2	UP011
1302.057	2.294	523992	PROB	2.207	n/a	n/a	n/a	11	[1 4 1]	6.0	pyFR	2	UP011
1304.351	2.979	524910	PROB	2.892	n/a	n/a	n/a	11	[5 6 7]	18.0	pyFR	2	UP011
1307.33	2.993	526101	PROB	2.902	n/a	n/a	n/a	11	[2 3 2]	7.0	pyFR	2	UP011
1310.323	3.37	527298	PROB	3.318	n/a	n/a	n/a	11	[5 5 4]	14.0	pyFR	2	UP011
1313.693	3.608	528646	PROB	3.527	n/a	n/a	n/a	11	[3 3 9]	15.0	pyFR	2	UP011
1317.301	3.53	530089	PROB	3.448	n/a	n/a	n/a	11	[3 5 9]	17.0	pyFR	2	UP011
1320.831	1.817	531501	PROB	1.817	n/a	n/a	n/a	11	[5 5 4]	14.0	pyFR	2	UP011
1322.648	1.195	532228	STOP	n/a	n/a	n/a	n/a	11	[-999 -999 -999]	-999.0	pyFR	2	UP011
1323.843	1.068	532706	REC_START	n/a	n/a	n/a	-999.0	-999	n/a	n/a	pyFR	2	UP011
1324.911	1.351	533133	REC_WORD	1.068	n/a	STRING	-999.0	11	n/a	n/a	pyFR	2	UP011
1326.262	13.09	533674	REC_WORD	2.419	n/a	DOOR	-999.0	11	n/a	n/a	pyFR	2	UP011
1339.352	4.238	538909	REC_WORD	15.509	n/a	MOUTH	-999.0	11	n/a	n/a	pyFR	2	UP011
1343.59	4.603	540605	REC_WORD	19.747	n/a	EEL	-999.0	11	n/a	n/a	pyFR	2	UP011
1348.193	2.7	542446	REC_WORD	24.35	n/a	PLATE	-999.0	11	n/a	n/a	pyFR	2	UP011
1350.893	0.912	543526	REC_WORD	27.05	n/a	PEA	-999.0	11	n/a	n/a	pyFR	2	UP011
1351.805	19.59	543890	REC_WORD	27.962	n/a	ZOO	-999.0	11	n/a	n/a	pyFR	2	UP011
1371.395	0.019	551726	TRIAL	n/a	n/a	n/a	-999.0	-999	n/a	n/a	pyFR	2	UP011
1371.414	1.6	551734	ORIENT	n/a	n/a	n/a	-999.0	-999	n/a	n/a	pyFR	2	UP011
1374.304	1.6	552890	WORD	n/a	wordpools/wordpool_EN.txt	RIB	1.0	12	n/a	n/a	pyFR	2	UP011
1377.048	1.6	553987	WORD	n/a	wordpools/wordpool_EN.txt	COUCH	2.0	12	n/a	n/a	pyFR	2	UP011
1379.654	1.6	555030	WORD	n/a	wordpools/wordpool_EN.txt	STOOL	3.0	12	n/a	n/a	pyFR	2	UP011
1382.105	1.6	556010	WORD	n/a	wordpools/wordpool_EN.txt	RAT	4.0	12	n/a	n/a	pyFR	2	UP011
1384.614	1.6	557014	WORD	n/a	wordpools/wordpool_EN.txt	BEACH	5.0	12	n/a	n/a	pyFR	2	UP011
1387.359	1.6	558112	WORD	n/a	wordpools/wordpool_EN.txt	VAN	6.0	12	n/a	n/a	pyFR	2	UP011
1390.083	1.6	559201	WORD	n/a	wordpools/wordpool_EN.txt	SNOW	7.0	12	n/a	n/a	pyFR	2	UP011
1392.796	1.6	560286	WORD	n/a	wordpools/wordpool_EN.txt	BAG	8.0	12	n/a	n/a	pyFR	2	UP011
1395.401	1.6	561328	WORD	n/a	wordpools/wordpool_EN.txt	ICE	9.0	12	n/a	n/a	pyFR	2	UP011
1398.136	1.6	562422	WORD	n/a	wordpools/wordpool_EN.txt	ROSE	10.0	12	n/a	n/a	pyFR	2	UP011
1400.906	1.6	563530	WORD	n/a	wordpools/wordpool_EN.txt	SHEEP	11.0	12	n/a	n/a	pyFR	2	UP011
1403.348	1.6	564507	WORD	n/a	wordpools/wordpool_EN.txt	SEAT	12.0	12	n/a	n/a	pyFR	2	UP011
1406.01	1.6	565572	WORD	n/a	wordpools/wordpool_EN.txt	SHIELD	13.0	12	n/a	n/a	pyFR	2	UP011
1408.709	1.6	566651	WORD	n/a	wordpools/wordpool_EN.txt	ROOF	14.0	12	n/a	n/a	pyFR	2	UP011
1411.152	1.6	567628	WORD	n/a	wordpools/wordpool_EN.txt	CHALK	15.0	12	n/a	n/a	pyFR	2	UP011
1412.761	0.923	568272	START	n/a	n/a	n/a	n/a	12	[-999 -999 -999]	-999.0	pyFR	2	UP011
1413.684	8.411	568641	PROB	8.325	n/a	n/a	n/a	12	[7 1 5]	13.0	pyFR	2	UP011
1422.095	2.744	572005	PROB	2.668	n/a	n/a	n/a	12	[2 5 7]	14.0	pyFR	2	UP011
1424.839	2.443	573103	PROB	2.363	n/a	n/a	n/a	12	[7 1 7]	15.0	pyFR	2	UP011
1427.282	3.079	574080	PROB	3.0	n/a	n/a	n/a	12	[9 2 4]	15.0	pyFR	2	UP011
1430.361	2.376	575312	PROB	2.281	n/a	n/a	n/a	12	[2 8 9]	19.0	pyFR	2	UP011
1432.737	3.374	576262	PROB	3.374	n/a	n/a	n/a	12	[6 9 6]	21.0	pyFR	2	UP011
1436.111	1.134	577612	STOP	n/a	n/a	n/a	n/a	12	[-999 -999 -999]	-999.0	pyFR	2	UP011
1437.245	1.381	578065	REC_START	n/a	n/a	n/a	-999.0	-999	n/a	n/a	pyFR	2	UP011
1438.626	5.504	578618	REC_WORD	1.381	n/a	STOOL	-999.0	12	n/a	n/a	pyFR	2	UP011
1444.13	3.947	580819	REC_WORD	6.885	n/a	RAT	-999.0	12	n/a	n/a	pyFR	2	UP011
1448.077	0.91	582398	REC_WORD	10.832	n/a	COUCH	-999.0	12	n/a	n/a	pyFR	2	UP011
1448.987	1.057	582762	REC_WORD	11.742	n/a	WING	-999.0	12	n/a	n/a	pyFR	2	UP011
1450.044	0.273	583185	REC_WORD_VV	12.799	n/a	VV	-999.0	12	n/a	n/a	pyFR	2	UP011
1450.317	3.78	583294	REC_WORD	13.072	n/a	RIB	-999.0	12	n/a	n/a	pyFR	2	UP011
1454.097	0.674	584806	REC_WORD	16.852	n/a	BEACH	-999.0	12	n/a	n/a	pyFR	2	UP011
1454.771	5.619	585075	REC_WORD	17.526	n/a	VAN	-999.0	12	n/a	n/a	pyFR	2	UP011
1460.39	26.104	587323	REC_WORD	23.145	n/a	SEAT	-999.0	12	n/a	n/a	pyFR	2	UP011
1486.494	0.016	597764	TRIAL	n/a	n/a	n/a	-999.0	-999	n/a	n/a	pyFR	2	UP011
1486.51	1.6	597770	ORIENT	n/a	n/a	n/a	-999.0	-999	n/a	n/a	pyFR	2	UP011
1489.265	1.6	598872	WORD	n/a	wordpools/wordpool_EN.txt	LIP	1.0	13	n/a	n/a	pyFR	2	UP011
1491.735	1.6	599860	WORD	n/a	wordpools/wordpool_EN.txt	CLAY	2.0	13	n/a	n/a	pyFR	2	UP011
1494.309	1.6	600890	WORD	n/a	wordpools/wordpool_EN.txt	BLOOM	3.0	13	n/a	n/a	pyFR	2	UP011
1496.773	1.6	601875	WORD	n/a	wordpools/wordpool_EN.txt	ROOM	4.0	13	n/a	n/a	pyFR	2	UP011
1499.412	1.6	602931	WORD	n/a	wordpools/wordpool_EN.txt	HAND	5.0	13	n/a	n/a	pyFR	2	UP011
1502.179	1.6	604038	WORD	n/a	wordpools/wordpool_EN.txt	MAIL	6.0	13	n/a	n/a	pyFR	2	UP011
1504.873	1.6	605115	WORD	n/a	wordpools/wordpool_EN.txt	PIPE	7.0	13	n/a	n/a	pyFR	2	UP011
1507.518	1.6	606173	WORD	n/a	wordpools/wordpool_EN.txt	BRIDGE	8.0	13	n/a	n/a	pyFR	2	UP011
1510.163	1.6	607231	WORD	n/a	wordpools/wordpool_EN.txt	NAIL	9.0	13	n/a	n/a	pyFR	2	UP011
1512.872	1.6	608315	WORD	n/a	wordpools/wordpool_EN.txt	TOE	10.0	13	n/a	n/a	pyFR	2	UP011
1515.309	1.6	609290	WORD	n/a	wordpools/wordpool_EN.txt	STEAK	11.0	13	n/a	n/a	pyFR	2	UP011
1517.742	1.6	610263	WORD	n/a	wordpools/wordpool_EN.txt	EGG	12.0	13	n/a	n/a	pyFR	2	UP011
1520.518	1.6	611373	WORD	n/a	wordpools/wordpool_EN.txt	HEART	13.0	13	n/a	n/a	pyFR	2	UP011
1523.285	1.6	612480	WORD	n/a	wordpools/wordpool_EN.txt	FLUTE	14.0	13	n/a	n/a	pyFR	2	UP011
1526.001	1.6	613566	WORD	n/a	wordpools/wordpool_EN.txt	SLUSH	15.0	13	n/a	n/a	pyFR	2	UP011
1527.613	0.958	614211	START	n/a	n/a	n/a	n/a	13	[-999 -999 -999]	-999.0	pyFR	2	UP011
1528.571	3.505	614594	PROB	3.422	n/a	n/a	n/a	13	[8 5 8]	22.0	pyFR	2	UP011
1532.076	4.266	615996	PROB	4.186	n/a	n/a	n/a	13	[9 7 5]	21.0	pyFR	2	UP011
1536.342	2.593	617702	PROB	2.498	n/a	n/a	n/a	13	[2 4 7]	13.0	pyFR	2	UP011
1538.935	1.973	618740	PROB	1.894	n/a	n/a	n/a	13	[4 1 6]	11.0	pyFR	2	UP011
1540.908	2.493	619529	PROB	2.402	n/a	n/a	n/a	13	[9 5 5]	19.0	pyFR	2	UP011
1543.401	1.974	620526	PROB	1.883	n/a	n/a	n/a	13	[5 3 1]	9.0	pyFR	2	UP011
1545.375	2.226	621316	PROB	2.148	n/a	n/a	n/a	13	[6 2 4]	12.0	pyFR	2	UP011
1547.601	1.831	622206	PROB	1.831	n/a	n/a	n/a	13	[8 8 1]	17.0	pyFR	2	UP011
1549.432	1.132	622938	STOP	n/a	n/a	n/a	n/a	13	[-999 -999 -999]	-999.0	pyFR	2	UP011
1550.564	15.946	623391	REC_START	n/a	n/a	n/a	-999.0	-999	n/a	n/a	pyFR	2	UP011
1566.51	0.912	629769	REC_WORD	15.946	n/a	TOE	-999.0	13	n/a	n/a	pyFR	2	UP011
1567.422	31.026	630134	REC_WORD	16.858	n/a	NAIL	-999.0	13	n/a	n/a	pyFR	2	UP011
1598.448	0.02	642544	TRIAL	n/a	n/a	n/a	-999.0	-999	n/a	n/a	pyFR	2	UP011
1598.468	1.6	642552	ORIENT	n/a	n/a	n/a	-999.0	-999	n/a	n/a	pyFR	2	UP011
1601.192	1.6	643641	WORD	n/a	wordpools/wordpool_EN.txt	TAIL	1.0	14	n/a	n/a	pyFR	2	UP011
1603.908	1.6	644728	WORD	n/a	wordpools/wordpool_EN.txt	HOOK	2.0	14	n/a	n/a	pyFR	2	UP011
1606.357	1.6	645707	WORD	n/a	wordpools/wordpool_EN.txt	FLEA	3.0	14	n/a	n/a	pyFR	2	UP011
1609.032	1.6	646777	WORD	n/a	wordpools/wordpool_EN.txt	TOAST	4.0	14	n/a	n/a	pyFR	2	UP011
1611.743	1.6	647862	WORD	n/a	wordpools/wordpool_EN.txt	PURSE	5.0	14	n/a	n/a	pyFR	2	UP011
1614.246	1.6	648863	WORD	n/a	wordpools/wordpool_EN.txt	APE	6.0	14	n/a	n/a	pyFR	2	UP011
1616.746	1.6	649863	WORD	n/a	wordpools/wordpool_EN.txt	CROWN	7.0	14	n/a	n/a	pyFR	2	UP011
1619.534	1.6	650978	WORD	n/a	wordpools/wordpool_EN.txt	CART	8.0	14	n/a	n/a	pyFR	2	UP011
1621.946	1.6	651943	WORD	n/a	wordpools/wordpool_EN.txt	SLIME	9.0	14	n/a	n/a	pyFR	2	UP011
1624.602	1.6	653005	WORD	n/a	wordpools/wordpool_EN.txt	FLAG	10.0	14	n/a	n/a	pyFR	2	UP011
1627.347	1.6	654103	WORD	n/a	wordpools/wordpool_EN.txt	CAKE	11.0	14	n/a	n/a	pyFR	2	UP011
1629.799	1.6	655084	WORD	n/a	wordpools/wordpool_EN.txt	BELL	12.0	14	n/a	n/a	pyFR	2	UP011
1632.535	1.6	656178	WORD	n/a	wordpools/wordpool_EN.txt	HOOF	13.0	14	n/a	n/a	pyFR	2	UP011
1635.177	1.6	657235	WORD	n/a	wordpools/wordpool_EN.txt	FARM	14.0	14	n/a	n/a	pyFR	2	UP011
1637.85	1.6	658304	WORD	n/a	wordpools/wordpool_EN.txt	POOL	15.0	14	n/a	n/a	pyFR	2	UP011
1639.459	1.164	658948	START	n/a	n/a	n/a	n/a	14	[-999 -999 -999]	-999.0	pyFR	2	UP011
1640.623	4.912	659413	PROB	4.831	n/a	n/a	n/a	14	[5 7 6]	18.0	pyFR	2	UP011
1645.535	2.175	661378	PROB	2.089	n/a	n/a	n/a	14	[4 3 7]	14.0	pyFR	2	UP011
1647.71	3.196	662248	PROB	3.103	n/a	n/a	n/a	14	[5 2 3]	10.0	pyFR	2	UP011
1650.906	3.462	663526	PROB	3.371	n/a	n/a	n/a	14	[6 9 5]	20.0	pyFR	2	UP011
1654.368	3.297	664911	PROB	3.213	n/a	n/a	n/a	14	[3 5 1]	9.0	pyFR	2	UP011
1657.665	4.339	666230	PROB	4.339	n/a	n/a	n/a	14	[9 4 2]	15.0	pyFR	2	UP011
1662.004	1.154	667965	STOP	n/a	n/a	n/a	n/a	14	[-999 -999 -999]	-999.0	pyFR	2	UP011
1663.158	0.603	668427	REC_START	n/a	n/a	n/a	-999.0	-999	n/a	n/a	pyFR	2	UP011
1663.761	0.703	668668	REC_WORD	0.603	n/a	POOL	-999.0	14	n/a	n/a	pyFR	2	UP011
1664.464	0.909	668949	REC_WORD	1.306	n/a	FARM	-999.0	14	n/a	n/a	pyFR	2	UP011
1665.373	3.285	669313	REC_WORD	2.215	n/a	HOOF	-999.0	14	n/a	n/a	pyFR	2	UP011
1668.658	1.784	670627	REC_WORD	5.5	n/a	FLAG	-999.0	14	n/a	n/a	pyFR	2	UP011
1670.442	3.193	671340	REC_WORD	7.284	n/a	SLIME	-999.0	14	n/a	n/a	pyFR	2	UP011
1673.635	1.875	672618	REC_WORD	10.477	n/a	CAKE	-999.0	14	n/a	n/a	pyFR	2	UP011
1675.51	36.917	673368	REC_WORD	12.352	n/a	BELL	-999.0	14	n/a	n/a	pyFR	2	UP011
1712.427	0.019	688134	TRIAL	n/a	n/a	n/a	-999.0	-999	n/a	n/a	pyFR	2	UP011
1712.446	1.6	688141	ORIENT	n/a	n/a	n/a	-999.0	-999	n/a	n/a	pyFR	2	UP011
1715.35	1.6	689303	WORD	n/a	wordpools/wordpool_EN.txt	YARD	1.0	15	n/a	n/a	pyFR	2	UP011
1717.943	1.6	690340	WORD	n/a	wordpools/wordpool_EN.txt	HILL	2.0	15	n/a	n/a	pyFR	2	UP011
1720.611	1.6	691407	WORD	n/a	wordpools/wordpool_EN.txt	STEM	3.0	15	n/a	n/a	pyFR	2	UP011
1723.158	1.6	692426	WORD	n/a	wordpools/wordpool_EN.txt	BIRD	4.0	15	n/a	n/a	pyFR	2	UP011
1725.688	1.6	693438	WORD	n/a	wordpools/wordpool_EN.txt	CHIEF	5.0	15	n/a	n/a	pyFR	2	UP011
1728.238	1.6	694458	WORD	n/a	wordpools/wordpool_EN.txt	STAIR	6.0	15	n/a	n/a	pyFR	2	UP011
1731.033	1.6	695576	WORD	n/a	wordpools/wordpool_EN.txt	HAWK	7.0	15	n/a	n/a	pyFR	2	UP011
1733.559	1.6	696586	WORD	n/a	wordpools/wordpool_EN.txt	DAD	8.0	15	n/a	n/a	pyFR	2	UP011
1735.979	1.6	697554	WORD	n/a	wordpools/wordpool_EN.txt	THREAD	9.0	15	n/a	n/a	pyFR	2	UP011
1738.697	1.6	698641	WORD	n/a	wordpools/wordpool_EN.txt	TENT	10.0	15	n/a	n/a	pyFR	2	UP011
1741.287	1.6	699677	WORD	n/a	wordpools/wordpool_EN.txt	SPONGE	11.0	15	n/a	n/a	pyFR	2	UP011
1743.917	1.6	700729	WORD	n/a	wordpools/wordpool_EN.txt	SUN	12.0	15	n/a	n/a	pyFR	2	UP011
1746.654	1.6	701824	WORD	n/a	wordpools/wordpool_EN.txt	FACE	13.0	15	n/a	n/a	pyFR	2	UP011
1749.17	1.6	702830	WORD	n/a	wordpools/wordpool_EN.txt	STEAM	14.0	15	n/a	n/a	pyFR	2	UP011
1751.599	1.6	703802	WORD	n/a	wordpools/wordpool_EN.txt	LAMB	15.0	15	n/a	n/a	pyFR	2	UP011
1753.211	1.046	704447	START	n/a	n/a	n/a	n/a	15	[-999 -999 -999]	-999.0	pyFR	2	UP011
1754.257	18.593	704865	PROB	18.505	n/a	n/a	n/a	15	[5 9 9]	23.0	pyFR	2	UP011
1772.85	3.792	712302	PROB	3.792	n/a	n/a	n/a	15	[3 7 6]	16.0	pyFR	2	UP011
1776.642	1.077	713819	STOP	n/a	n/a	n/a	n/a	15	[-999 -999 -999]	-999.0	pyFR	2	UP011
1777.719	5.985	714250	REC_START	n/a	n/a	n/a	-999.0	-999	n/a	n/a	pyFR	2	UP011
1783.704	1.173	716643	REC_WORD	5.985	n/a	YARD	-999.0	15	n/a	n/a	pyFR	2	UP011
1784.877	4.223	717113	REC_WORD	7.158	n/a	HILL	-999.0	15	n/a	n/a	pyFR	2	UP011
1789.1	14.432	718802	REC_WORD	11.381	n/a	DAD	-999.0	15	n/a	n/a	pyFR	2	UP011
1803.532	0.975	724574	REC_WORD	25.813	n/a	THREAD	-999.0	15	n/a	n/a	pyFR	2	UP011
1804.507	0.732	724964	REC_WORD	26.788	n/a	FACE	-999.0	15	n/a	n/a	pyFR	2	UP011
1805.239	9.543	725257	REC_WORD	27.52	n/a	SUN	-999.0	15	n/a	n/a	pyFR	2	UP011
1814.782	6.279	729074	REC_WORD	37.063	n/a	YARD	-999.0	15	n/a	n/a	pyFR	2	UP011
1821.061	33.103	731586	REC_WORD	43.342	n/a	STAIR	-999.0	15	n/a	n/a	pyFR	2	UP011
1854.164	0.02	744826	TRIAL	n/a	n/a	n/a	-999.0	-999	n/a	n/a	pyFR	2	UP011
1854.184	1.6	744834	ORIENT	n/a	n/a	n/a	-999.0	-999	n/a	n/a	pyFR	2	UP011
1857.089	1.6	745996	WORD	n/a	wordpools/wordpool_EN.txt	DUCK	1.0	16	n/a	n/a	pyFR	2	UP011
1859.517	1.6	746968	WORD	n/a	wordpools/wordpool_EN.txt	TRASH	2.0	16	n/a	n/a	pyFR	2	UP011
1862.252	1.6	748061	WORD	n/a	wordpools/wordpool_EN.txt	BAT	3.0	16	n/a	n/a	pyFR	2	UP011
1864.726	1.6	749051	WORD	n/a	wordpools/wordpool_EN.txt	BOOT	4.0	16	n/a	n/a	pyFR	2	UP011
1867.188	1.6	750036	WORD	n/a	wordpools/wordpool_EN.txt	DOLL	5.0	16	n/a	n/a	pyFR	2	UP011
1869.857	1.6	751103	WORD	n/a	wordpools/wordpool_EN.txt	VINE	6.0	16	n/a	n/a	pyFR	2	UP011
1872.66	1.6	752225	WORD	n/a	wordpools/wordpool_EN.txt	CLOWN	7.0	16	n/a	n/a	pyFR	2	UP011
1875.086	1.6	753195	WORD	n/a	wordpools/wordpool_EN.txt	CRANE	8.0	16	n/a	n/a	pyFR	2	UP011
1877.649	1.6	754220	WORD	n/a	wordpools/wordpool_EN.txt	SAIL	9.0	16	n/a	n/a	pyFR	2	UP011
1880.343	1.6	755298	WORD	n/a	wordpools/wordpool_EN.txt	SEA	10.0	16	n/a	n/a	pyFR	2	UP011
1882.968	1.6	756348	WORD	n/a	wordpools/wordpool_EN.txt	HOUSE	11.0	16	n/a	n/a	pyFR	2	UP011
1885.622	1.6	757409	WORD	n/a	wordpools/wordpool_EN.txt	CASH	12.0	16	n/a	n/a	pyFR	2	UP011
1888.135	1.6	758414	WORD	n/a	wordpools/wordpool_EN.txt	BANK	13.0	16	n/a	n/a	pyFR	2	UP011
1890.598	1.6	759399	WORD	n/a	wordpools/wordpool_EN.txt	QUEEN	14.0	16	n/a	n/a	pyFR	2	UP011
1893.135	1.6	760414	WORD	n/a	wordpools/wordpool_EN.txt	HORSE	15.0	16	n/a	n/a	pyFR	2	UP011
1894.748	1.119	761059	START	n/a	n/a	n/a	n/a	16	[-999 -999 -999]	-999.0	pyFR	2	UP011
1895.867	3.878	761507	PROB	3.788	n/a	n/a	n/a	16	[1 3 1]	5.0	pyFR	2	UP011
1899.745	1.522	763058	PROB	1.43	n/a	n/a	n/a	16	[4 1 1]	6.0	pyFR	2	UP011
1901.267	2.076	763667	PROB	1.987	n/a	n/a	n/a	16	[9 5 5]	19.0	pyFR	2	UP011
1903.343	2.692	764497	PROB	2.6	n/a	n/a	n/a	16	[6 8 6]	20.0	pyFR	2	UP011
1906.035	2.058	765574	PROB	1.978	n/a	n/a	n/a	16	[4 6 5]	15.0	pyFR	2	UP011
1908.093	3.252	766397	PROB	3.189	n/a	n/a	n/a	16	[6 8 3]	17.0	pyFR	2	UP011
1911.345	2.512	767698	PROB	2.436	n/a	n/a	n/a	16	[8 5 5]	18.0	pyFR	2	UP011
1913.857	3.893	768703	PROB	3.893	n/a	n/a	n/a	16	[6 8 6]	20.0	pyFR	2	UP011
1917.75	1.154	770260	STOP	n/a	n/a	n/a	n/a	16	[-999 -999 -999]	-999.0	pyFR	2	UP011
1918.904	11.461	770721	REC_START	n/a	n/a	n/a	-999.0	-999	n/a	n/a	pyFR	2	UP011
1930.365	7.849	775306	REC_WORD	11.461	n/a	BAT	-999.0	16	n/a	n/a	pyFR	2	UP011
1938.214	3.402	778445	REC_WORD	19.31	n/a	CLOWN	-999.0	16	n/a	n/a	pyFR	2	UP011
1941.616	9.021	779806	REC_WORD	22.712	n/a	BOOT	-999.0	16	n/a	n/a	pyFR	2	UP011
1950.637	570.871	783414	REC_WORD	31.733	n/a	VINE	-999.0	16	n/a	n/a	pyFR	2	UP011
2521.508	0.0	1011754	SESS_END	n/a	n/a	n/a	-999.0	-999	n/a	n/a	pyFR	2	UP011
2521.508	0.0	1011754	E	n/a	n/a	n/a	-999.0	-999	n/a	n/a	pyFR	2	UP011
