onset	duration	sample	trial_type	response_time	stim_file	item_name	serialpos	list	test	answer	experiment	session	subject
0.0	0.002	3189	B	n/a	n/a	n/a	-999	-999	n/a	n/a	pyFR	2	UP011
0.002	48.794	3190	SESS_START	n/a	n/a	n/a	-999	-999	n/a	n/a	pyFR	2	UP011
48.796	0.129	22707	START	n/a	n/a	n/a	n/a	0	[-999 -999 -999]	-999	pyFR	2	UP011
48.925	2.114	22758	PROB	2.022	n/a	n/a	n/a	0	[8 2 7]	17	pyFR	2	UP011
51.039	3.229	23604	PROB	3.137	n/a	n/a	n/a	0	[6 2 7]	15	pyFR	2	UP011
54.268	4.734	24895	PROB	4.656	n/a	n/a	n/a	0	[9 5 8]	22	pyFR	2	UP011
59.002	2.561	26789	PROB	2.472	n/a	n/a	n/a	0	[5 8 7]	21	pyFR	2	UP011
61.563	6.19	27813	PROB	6.099	n/a	n/a	n/a	0	[8 4 5]	17	pyFR	2	UP011
67.753	5.121	30289	PROB	5.038	n/a	n/a	n/a	0	[1 1 8]	10	pyFR	2	UP011
72.874	2.123	32338	PROB	2.046	n/a	n/a	n/a	0	[4 3 2]	9	pyFR	2	UP011
74.997	3.018	33187	PROB	2.962	n/a	n/a	n/a	0	[4 2 5]	11	pyFR	2	UP011
78.015	3.943	34394	PROB	3.943	n/a	n/a	n/a	0	[8 7 3]	18	pyFR	2	UP011
81.958	47.033	35971	STOP	n/a	n/a	n/a	n/a	0	[-999 -999 -999]	-999	pyFR	2	UP011
128.991	0.016	54783	TRIAL	n/a	n/a	n/a	-999	-999	n/a	n/a	pyFR	2	UP011
129.007	2.627	54790	ORIENT	n/a	n/a	n/a	-999	-999	n/a	n/a	pyFR	2	UP011
131.634	2.75	55841	WORD	n/a	wordpools/wordpool_EN.txt	MOUSE	1	1	n/a	n/a	pyFR	2	UP011
134.384	2.608	56941	WORD	n/a	wordpools/wordpool_EN.txt	WORLD	2	1	n/a	n/a	pyFR	2	UP011
136.992	2.457	57984	WORD	n/a	wordpools/wordpool_EN.txt	BOMB	3	1	n/a	n/a	pyFR	2	UP011
139.449	2.514	58967	WORD	n/a	wordpools/wordpool_EN.txt	MUD	4	1	n/a	n/a	pyFR	2	UP011
141.963	2.608	59972	WORD	n/a	wordpools/wordpool_EN.txt	TREE	5	1	n/a	n/a	pyFR	2	UP011
144.571	2.438	61015	WORD	n/a	wordpools/wordpool_EN.txt	FENCE	6	1	n/a	n/a	pyFR	2	UP011
147.009	2.531	61990	WORD	n/a	wordpools/wordpool_EN.txt	FILM	7	1	n/a	n/a	pyFR	2	UP011
149.54	2.496	63003	WORD	n/a	wordpools/wordpool_EN.txt	LEAF	8	1	n/a	n/a	pyFR	2	UP011
152.036	2.546	64001	WORD	n/a	wordpools/wordpool_EN.txt	SLEEVE	9	1	n/a	n/a	pyFR	2	UP011
154.582	2.449	65019	WORD	n/a	wordpools/wordpool_EN.txt	GOAT	10	1	n/a	n/a	pyFR	2	UP011
157.031	2.439	65999	WORD	n/a	wordpools/wordpool_EN.txt	GLASS	11	1	n/a	n/a	pyFR	2	UP011
159.47	2.732	66975	WORD	n/a	wordpools/wordpool_EN.txt	GUARD	12	1	n/a	n/a	pyFR	2	UP011
162.202	2.789	68067	WORD	n/a	wordpools/wordpool_EN.txt	BADGE	13	1	n/a	n/a	pyFR	2	UP011
164.991	2.745	69183	WORD	n/a	wordpools/wordpool_EN.txt	MUG	14	1	n/a	n/a	pyFR	2	UP011
167.736	1.621	70281	WORD	n/a	wordpools/wordpool_EN.txt	PIT	15	1	n/a	n/a	pyFR	2	UP011
169.357	0.837	70929	START	n/a	n/a	n/a	n/a	1	[-999 -999 -999]	-999	pyFR	2	UP011
170.194	2.89	71264	PROB	2.797	n/a	n/a	n/a	1	[7 2 4]	13	pyFR	2	UP011
173.084	1.955	72420	PROB	1.876	n/a	n/a	n/a	1	[7 8 6]	21	pyFR	2	UP011
175.039	2.276	73202	PROB	2.191	n/a	n/a	n/a	1	[6 7 3]	16	pyFR	2	UP011
177.315	4.849	74112	PROB	4.775	n/a	n/a	n/a	1	[7 9 7]	23	pyFR	2	UP011
182.164	1.56	76052	PROB	1.474	n/a	n/a	n/a	1	[1 4 1]	6	pyFR	2	UP011
183.724	5.57	76676	PROB	5.492	n/a	n/a	n/a	1	[5 9 9]	23	pyFR	2	UP011
189.294	5.191	78904	PROB	5.191	n/a	n/a	n/a	1	[6 3 1]	10	pyFR	2	UP011
194.485	1.354	80980	STOP	n/a	n/a	n/a	n/a	1	[-999 -999 -999]	-999	pyFR	2	UP011
195.839	1.375	81522	REC_START	n/a	n/a	n/a	-999	-999	n/a	n/a	pyFR	2	UP011
197.214	0.761	82072	REC_WORD	1.375	n/a	MOUSE	-999	1	n/a	n/a	pyFR	2	UP011
197.975	1.051	82376	REC_WORD	2.136	n/a	WORLD	-999	1	n/a	n/a	pyFR	2	UP011
199.026	0.895	82796	REC_WORD	3.187	n/a	BOMB	-999	1	n/a	n/a	pyFR	2	UP011
199.921	7.439	83154	REC_WORD	4.082	n/a	MUD	-999	1	n/a	n/a	pyFR	2	UP011
207.36	1.011	86130	REC_WORD	11.521	n/a	TREE	-999	1	n/a	n/a	pyFR	2	UP011
208.371	5.904	86534	REC_WORD	12.532	n/a	LEAF	-999	1	n/a	n/a	pyFR	2	UP011
214.275	28.276	88896	REC_WORD	18.436	n/a	GLASS	-999	1	n/a	n/a	pyFR	2	UP011
242.551	0.02	100206	TRIAL	n/a	n/a	n/a	-999	-999	n/a	n/a	pyFR	2	UP011
242.571	2.878	100214	ORIENT	n/a	n/a	n/a	-999	-999	n/a	n/a	pyFR	2	UP011
245.449	2.672	101365	WORD	n/a	wordpools/wordpool_EN.txt	TOOTH	1	2	n/a	n/a	pyFR	2	UP011
248.121	2.422	102434	WORD	n/a	wordpools/wordpool_EN.txt	MOON	2	2	n/a	n/a	pyFR	2	UP011
250.543	2.65	103402	WORD	n/a	wordpools/wordpool_EN.txt	BRICK	3	2	n/a	n/a	pyFR	2	UP011
253.193	2.549	104462	WORD	n/a	wordpools/wordpool_EN.txt	ROAD	4	2	n/a	n/a	pyFR	2	UP011
255.742	2.66	105482	WORD	n/a	wordpools/wordpool_EN.txt	SQUARE	5	2	n/a	n/a	pyFR	2	UP011
258.402	2.704	106546	WORD	n/a	wordpools/wordpool_EN.txt	CORD	6	2	n/a	n/a	pyFR	2	UP011
261.106	2.792	107627	WORD	n/a	wordpools/wordpool_EN.txt	STORE	7	2	n/a	n/a	pyFR	2	UP011
263.898	2.485	108744	WORD	n/a	wordpools/wordpool_EN.txt	AXE	8	2	n/a	n/a	pyFR	2	UP011
266.383	2.592	109738	WORD	n/a	wordpools/wordpool_EN.txt	LAKE	9	2	n/a	n/a	pyFR	2	UP011
268.975	2.457	110775	WORD	n/a	wordpools/wordpool_EN.txt	SEAL	10	2	n/a	n/a	pyFR	2	UP011
271.432	2.671	111758	WORD	n/a	wordpools/wordpool_EN.txt	TANK	11	2	n/a	n/a	pyFR	2	UP011
274.103	2.564	112826	WORD	n/a	wordpools/wordpool_EN.txt	SKY	12	2	n/a	n/a	pyFR	2	UP011
276.667	2.74	113852	WORD	n/a	wordpools/wordpool_EN.txt	DOCK	13	2	n/a	n/a	pyFR	2	UP011
279.407	2.728	114948	WORD	n/a	wordpools/wordpool_EN.txt	LAWN	14	2	n/a	n/a	pyFR	2	UP011
282.135	1.619	116039	WORD	n/a	wordpools/wordpool_EN.txt	VEST	15	2	n/a	n/a	pyFR	2	UP011
283.754	1.172	116686	START	n/a	n/a	n/a	n/a	2	[-999 -999 -999]	-999	pyFR	2	UP011
284.926	3.841	117155	PROB	3.751	n/a	n/a	n/a	2	[5 6 7]	18	pyFR	2	UP011
288.767	2.344	118691	PROB	2.249	n/a	n/a	n/a	2	[8 2 8]	18	pyFR	2	UP011
291.111	2.206	119629	PROB	2.125	n/a	n/a	n/a	2	[2 3 9]	13	pyFR	2	UP011
293.317	5.589	120511	PROB	5.497	n/a	n/a	n/a	2	[5 9 6]	20	pyFR	2	UP011
298.906	4.015	122747	PROB	3.937	n/a	n/a	n/a	2	[8 6 7]	21	pyFR	2	UP011
302.921	4.11	124353	PROB	4.11	n/a	n/a	n/a	2	[9 3 3]	15	pyFR	2	UP011
307.031	1.212	125997	STOP	n/a	n/a	n/a	n/a	2	[-999 -999 -999]	-999	pyFR	2	UP011
308.243	5.276	126482	REC_START	n/a	n/a	n/a	-999	-999	n/a	n/a	pyFR	2	UP011
313.519	30.541	128592	REC_WORD	5.276	n/a	VEST	-999	2	n/a	n/a	pyFR	2	UP011
344.06	0.766	140808	REC_WORD	35.817	n/a	TOOTH	-999	2	n/a	n/a	pyFR	2	UP011
344.826	0.558	141114	REC_WORD	36.583	n/a	MOON	-999	2	n/a	n/a	pyFR	2	UP011
345.384	17.838	141337	REC_WORD	37.141	n/a	SKY	-999	2	n/a	n/a	pyFR	2	UP011
363.222	0.02	148472	TRIAL	n/a	n/a	n/a	-999	-999	n/a	n/a	pyFR	2	UP011
363.242	2.958	148480	ORIENT	n/a	n/a	n/a	-999	-999	n/a	n/a	pyFR	2	UP011
366.2	2.748	149663	WORD	n/a	wordpools/wordpool_EN.txt	FUDGE	1	3	n/a	n/a	pyFR	2	UP011
368.948	2.556	150763	WORD	n/a	wordpools/wordpool_EN.txt	DOG	2	3	n/a	n/a	pyFR	2	UP011
371.504	2.567	151785	WORD	n/a	wordpools/wordpool_EN.txt	FROG	3	3	n/a	n/a	pyFR	2	UP011
374.071	2.435	152812	WORD	n/a	wordpools/wordpool_EN.txt	FRUIT	4	3	n/a	n/a	pyFR	2	UP011
376.506	2.711	153786	WORD	n/a	wordpools/wordpool_EN.txt	SPARK	5	3	n/a	n/a	pyFR	2	UP011
379.217	2.729	154870	WORD	n/a	wordpools/wordpool_EN.txt	PIN	6	3	n/a	n/a	pyFR	2	UP011
381.946	2.407	155962	WORD	n/a	wordpools/wordpool_EN.txt	BOARD	7	3	n/a	n/a	pyFR	2	UP011
384.353	2.793	156924	WORD	n/a	wordpools/wordpool_EN.txt	LAMP	8	3	n/a	n/a	pyFR	2	UP011
387.146	2.419	158042	WORD	n/a	wordpools/wordpool_EN.txt	MULE	9	3	n/a	n/a	pyFR	2	UP011
389.565	2.773	159009	WORD	n/a	wordpools/wordpool_EN.txt	KEY	10	3	n/a	n/a	pyFR	2	UP011
392.338	2.479	160118	WORD	n/a	wordpools/wordpool_EN.txt	WING	11	3	n/a	n/a	pyFR	2	UP011
394.817	2.495	161110	WORD	n/a	wordpools/wordpool_EN.txt	SHOE	12	3	n/a	n/a	pyFR	2	UP011
397.312	2.711	162108	WORD	n/a	wordpools/wordpool_EN.txt	WHALE	13	3	n/a	n/a	pyFR	2	UP011
400.023	2.757	163192	WORD	n/a	wordpools/wordpool_EN.txt	HOLE	14	3	n/a	n/a	pyFR	2	UP011
402.78	1.612	164295	WORD	n/a	wordpools/wordpool_EN.txt	MOOSE	15	3	n/a	n/a	pyFR	2	UP011
404.392	0.835	164940	START	n/a	n/a	n/a	n/a	3	[-999 -999 -999]	-999	pyFR	2	UP011
405.227	4.116	165274	PROB	4.054	n/a	n/a	n/a	3	[6 2 4]	12	pyFR	2	UP011
409.343	3.41	166920	PROB	3.317	n/a	n/a	n/a	3	[7 7 2]	16	pyFR	2	UP011
412.753	4.074	168284	PROB	3.996	n/a	n/a	n/a	3	[5 9 6]	20	pyFR	2	UP011
416.827	2.332	169913	PROB	2.242	n/a	n/a	n/a	3	[8 3 1]	12	pyFR	2	UP011
419.159	2.476	170846	PROB	2.388	n/a	n/a	n/a	3	[8 9 6]	23	pyFR	2	UP011
421.635	2.429	171837	PROB	2.352	n/a	n/a	n/a	3	[2 8 8]	18	pyFR	2	UP011
424.064	3.552	172808	PROB	3.552	n/a	n/a	n/a	3	[6 5 6]	17	pyFR	2	UP011
427.616	1.115	174229	STOP	n/a	n/a	n/a	n/a	3	[-999 -999 -999]	-999	pyFR	2	UP011
428.731	1.869	174675	REC_START	n/a	n/a	n/a	-999	-999	n/a	n/a	pyFR	2	UP011
430.6	3.86	175422	REC_WORD	1.869	n/a	FUDGE	-999	3	n/a	n/a	pyFR	2	UP011
434.46	2.612	176966	REC_WORD	5.729	n/a	MOOSE	-999	3	n/a	n/a	pyFR	2	UP011
437.072	0.657	178011	REC_WORD	8.341	n/a	WHALE	-999	3	n/a	n/a	pyFR	2	UP011
437.729	2.875	178274	REC_WORD	8.998	n/a	HOLE	-999	3	n/a	n/a	pyFR	2	UP011
440.604	14.768	179424	REC_WORD	11.873	n/a	WING	-999	3	n/a	n/a	pyFR	2	UP011
455.372	21.361	185331	REC_WORD	26.641	n/a	DOG	-999	3	n/a	n/a	pyFR	2	UP011
476.733	0.019	193875	TRIAL	n/a	n/a	n/a	-999	-999	n/a	n/a	pyFR	2	UP011
476.752	2.737	193883	ORIENT	n/a	n/a	n/a	-999	-999	n/a	n/a	pyFR	2	UP011
479.489	2.413	194977	WORD	n/a	wordpools/wordpool_EN.txt	STONE	1	4	n/a	n/a	pyFR	2	UP011
481.902	2.766	195943	WORD	n/a	wordpools/wordpool_EN.txt	PHONE	2	4	n/a	n/a	pyFR	2	UP011
484.668	2.775	197049	WORD	n/a	wordpools/wordpool_EN.txt	CANE	3	4	n/a	n/a	pyFR	2	UP011
487.443	2.442	198159	WORD	n/a	wordpools/wordpool_EN.txt	SPRING	4	4	n/a	n/a	pyFR	2	UP011
489.885	2.497	199136	WORD	n/a	wordpools/wordpool_EN.txt	CHIN	5	4	n/a	n/a	pyFR	2	UP011
492.382	2.752	200134	WORD	n/a	wordpools/wordpool_EN.txt	TRAIN	6	4	n/a	n/a	pyFR	2	UP011
495.134	2.497	201235	WORD	n/a	wordpools/wordpool_EN.txt	SWORD	7	4	n/a	n/a	pyFR	2	UP011
497.631	2.754	202234	WORD	n/a	wordpools/wordpool_EN.txt	DRESS	8	4	n/a	n/a	pyFR	2	UP011
500.385	2.69	203335	WORD	n/a	wordpools/wordpool_EN.txt	BEE	9	4	n/a	n/a	pyFR	2	UP011
503.075	2.693	204411	WORD	n/a	wordpools/wordpool_EN.txt	WHEEL	10	4	n/a	n/a	pyFR	2	UP011
505.768	2.66	205489	WORD	n/a	wordpools/wordpool_EN.txt	MOLE	11	4	n/a	n/a	pyFR	2	UP011
508.428	2.65	206552	WORD	n/a	wordpools/wordpool_EN.txt	SWAMP	12	4	n/a	n/a	pyFR	2	UP011
511.078	2.76	207612	WORD	n/a	wordpools/wordpool_EN.txt	GLOVE	13	4	n/a	n/a	pyFR	2	UP011
513.838	2.785	208716	WORD	n/a	wordpools/wordpool_EN.txt	CAPE	14	4	n/a	n/a	pyFR	2	UP011
516.623	1.613	209830	WORD	n/a	wordpools/wordpool_EN.txt	ELF	15	4	n/a	n/a	pyFR	2	UP011
518.236	1.089	210476	START	n/a	n/a	n/a	n/a	4	[-999 -999 -999]	-999	pyFR	2	UP011
519.325	3.322	210911	PROB	3.243	n/a	n/a	n/a	4	[9 7 4]	20	pyFR	2	UP011
522.647	2.929	212240	PROB	2.84	n/a	n/a	n/a	4	[9 1 4]	14	pyFR	2	UP011
525.576	4.439	213411	PROB	4.39	n/a	n/a	n/a	4	[3 9 8]	20	pyFR	2	UP011
530.015	2.693	215187	PROB	2.64	n/a	n/a	n/a	4	[5 1 5]	11	pyFR	2	UP011
532.708	3.659	216264	PROB	3.565	n/a	n/a	n/a	4	[8 1 2]	11	pyFR	2	UP011
536.367	3.966	217728	PROB	3.966	n/a	n/a	n/a	4	[4 1 3]	8	pyFR	2	UP011
540.333	1.206	219314	STOP	n/a	n/a	n/a	n/a	4	[-999 -999 -999]	-999	pyFR	2	UP011
541.539	4.116	219796	REC_START	n/a	n/a	n/a	-999	-999	n/a	n/a	pyFR	2	UP011
545.655	1.265	221443	REC_WORD	4.116	n/a	SWORD	-999	4	n/a	n/a	pyFR	2	UP011
546.92	27.749	221949	REC_WORD	5.381	n/a	DRESS	-999	4	n/a	n/a	pyFR	2	UP011
574.669	1.196	233048	REC_WORD	33.13	n/a	MOLE	-999	4	n/a	n/a	pyFR	2	UP011
575.865	1.214	233526	REC_WORD	34.326	n/a	WHEEL	-999	4	n/a	n/a	pyFR	2	UP011
577.079	12.829	234012	REC_WORD	35.54	n/a	BEE	-999	4	n/a	n/a	pyFR	2	UP011
589.908	0.02	239143	TRIAL	n/a	n/a	n/a	-999	-999	n/a	n/a	pyFR	2	UP011
589.928	2.612	239151	ORIENT	n/a	n/a	n/a	-999	-999	n/a	n/a	pyFR	2	UP011
592.54	2.663	240196	WORD	n/a	wordpools/wordpool_EN.txt	ARK	1	5	n/a	n/a	pyFR	2	UP011
595.203	2.504	241261	WORD	n/a	wordpools/wordpool_EN.txt	SPOON	2	5	n/a	n/a	pyFR	2	UP011
597.707	2.792	242263	WORD	n/a	wordpools/wordpool_EN.txt	BAND	3	5	n/a	n/a	pyFR	2	UP011
600.499	2.636	243379	WORD	n/a	wordpools/wordpool_EN.txt	STREET	4	5	n/a	n/a	pyFR	2	UP011
603.135	2.755	244434	WORD	n/a	wordpools/wordpool_EN.txt	CHAIR	5	5	n/a	n/a	pyFR	2	UP011
605.89	2.42	245536	WORD	n/a	wordpools/wordpool_EN.txt	SMOKE	6	5	n/a	n/a	pyFR	2	UP011
608.31	2.474	246504	WORD	n/a	wordpools/wordpool_EN.txt	BOX	7	5	n/a	n/a	pyFR	2	UP011
610.784	2.649	247493	WORD	n/a	wordpools/wordpool_EN.txt	BOY	8	5	n/a	n/a	pyFR	2	UP011
613.433	2.664	248553	WORD	n/a	wordpools/wordpool_EN.txt	JAR	9	5	n/a	n/a	pyFR	2	UP011
616.097	2.47	249618	WORD	n/a	wordpools/wordpool_EN.txt	KITE	10	5	n/a	n/a	pyFR	2	UP011
618.567	2.589	250606	WORD	n/a	wordpools/wordpool_EN.txt	SMILE	11	5	n/a	n/a	pyFR	2	UP011
621.156	2.682	251642	WORD	n/a	wordpools/wordpool_EN.txt	FOX	12	5	n/a	n/a	pyFR	2	UP011
623.838	2.633	252715	WORD	n/a	wordpools/wordpool_EN.txt	CHEEK	13	5	n/a	n/a	pyFR	2	UP011
626.471	2.503	253768	WORD	n/a	wordpools/wordpool_EN.txt	SUIT	14	5	n/a	n/a	pyFR	2	UP011
628.974	1.614	254769	WORD	n/a	wordpools/wordpool_EN.txt	EAR	15	5	n/a	n/a	pyFR	2	UP011
630.588	0.847	255415	START	n/a	n/a	n/a	n/a	5	[-999 -999 -999]	-999	pyFR	2	UP011
631.435	6.261	255753	PROB	6.169	n/a	n/a	n/a	5	[5 6 8]	19	pyFR	2	UP011
637.696	4.1	258258	PROB	4.007	n/a	n/a	n/a	5	[4 8 5]	17	pyFR	2	UP011
641.796	2.091	259898	PROB	2.011	n/a	n/a	n/a	5	[7 4 3]	14	pyFR	2	UP011
643.887	1.74	260734	PROB	1.65	n/a	n/a	n/a	5	[5 5 8]	18	pyFR	2	UP011
645.627	1.673	261430	PROB	1.589	n/a	n/a	n/a	5	[4 6 1]	11	pyFR	2	UP011
647.3	2.191	262099	PROB	2.105	n/a	n/a	n/a	5	[5 3 5]	13	pyFR	2	UP011
649.491	2.343	262976	PROB	2.343	n/a	n/a	n/a	5	[4 4 6]	14	pyFR	2	UP011
651.834	1.174	263913	STOP	n/a	n/a	n/a	n/a	5	[-999 -999 -999]	-999	pyFR	2	UP011
653.008	1.097	264382	REC_START	n/a	n/a	n/a	-999	-999	n/a	n/a	pyFR	2	UP011
654.105	0.697	264821	REC_WORD	1.097	n/a	BAND	-999	5	n/a	n/a	pyFR	2	UP011
654.802	5.457	265100	REC_WORD	1.794	n/a	STREET	-999	5	n/a	n/a	pyFR	2	UP011
660.259	1.15	267283	REC_WORD	7.251	n/a	SMILE	-999	5	n/a	n/a	pyFR	2	UP011
661.409	3.554	267743	REC_WORD	8.401	n/a	FOX	-999	5	n/a	n/a	pyFR	2	UP011
664.963	25.71	269164	REC_WORD	11.955	n/a	KITE	-999	5	n/a	n/a	pyFR	2	UP011
690.673	9.298	279448	REC_WORD	37.665	n/a	SUIT	-999	5	n/a	n/a	pyFR	2	UP011
699.971	0.02	283167	TRIAL	n/a	n/a	n/a	-999	-999	n/a	n/a	pyFR	2	UP011
699.991	2.805	283175	ORIENT	n/a	n/a	n/a	-999	-999	n/a	n/a	pyFR	2	UP011
702.796	2.489	284297	WORD	n/a	wordpools/wordpool_EN.txt	GRASS	1	6	n/a	n/a	pyFR	2	UP011
705.285	2.533	285292	WORD	n/a	wordpools/wordpool_EN.txt	BEAR	2	6	n/a	n/a	pyFR	2	UP011
707.818	2.592	286305	WORD	n/a	wordpools/wordpool_EN.txt	TOY	3	6	n/a	n/a	pyFR	2	UP011
710.41	2.786	287342	WORD	n/a	wordpools/wordpool_EN.txt	MOTH	4	6	n/a	n/a	pyFR	2	UP011
713.196	2.45	288457	WORD	n/a	wordpools/wordpool_EN.txt	TRUCK	5	6	n/a	n/a	pyFR	2	UP011
715.646	2.536	289437	WORD	n/a	wordpools/wordpool_EN.txt	COW	6	6	n/a	n/a	pyFR	2	UP011
718.182	2.666	290451	WORD	n/a	wordpools/wordpool_EN.txt	BOOK	7	6	n/a	n/a	pyFR	2	UP011
720.848	2.624	291517	WORD	n/a	wordpools/wordpool_EN.txt	DRUM	8	6	n/a	n/a	pyFR	2	UP011
723.472	2.654	292567	WORD	n/a	wordpools/wordpool_EN.txt	FISH	9	6	n/a	n/a	pyFR	2	UP011
726.126	2.716	293628	WORD	n/a	wordpools/wordpool_EN.txt	ROCK	10	6	n/a	n/a	pyFR	2	UP011
728.842	2.463	294715	WORD	n/a	wordpools/wordpool_EN.txt	CONE	11	6	n/a	n/a	pyFR	2	UP011
731.305	2.764	295700	WORD	n/a	wordpools/wordpool_EN.txt	SNAKE	12	6	n/a	n/a	pyFR	2	UP011
734.069	2.436	296805	WORD	n/a	wordpools/wordpool_EN.txt	RUG	13	6	n/a	n/a	pyFR	2	UP011
736.505	2.458	297780	WORD	n/a	wordpools/wordpool_EN.txt	CALF	14	6	n/a	n/a	pyFR	2	UP011
738.963	1.625	298763	WORD	n/a	wordpools/wordpool_EN.txt	FOAM	15	6	n/a	n/a	pyFR	2	UP011
740.588	0.865	299413	START	n/a	n/a	n/a	n/a	6	[-999 -999 -999]	-999	pyFR	2	UP011
741.453	7.48	299759	PROB	7.399	n/a	n/a	n/a	6	[7 5 3]	15	pyFR	2	UP011
748.933	4.42	302751	PROB	4.357	n/a	n/a	n/a	6	[1 8 2]	11	pyFR	2	UP011
753.353	2.021	304519	PROB	1.926	n/a	n/a	n/a	6	[7 1 3]	11	pyFR	2	UP011
755.374	2.307	305327	PROB	2.23	n/a	n/a	n/a	6	[6 6 6]	18	pyFR	2	UP011
757.681	4.251	306250	PROB	4.251	n/a	n/a	n/a	6	[5 8 3]	17	pyFR	2	UP011
761.932	1.205	307950	STOP	n/a	n/a	n/a	n/a	6	[-999 -999 -999]	-999	pyFR	2	UP011
763.137	1.59	308432	REC_START	n/a	n/a	n/a	-999	-999	n/a	n/a	pyFR	2	UP011
764.727	0.97	309068	REC_WORD	1.59	n/a	BEAR	-999	6	n/a	n/a	pyFR	2	UP011
765.697	3.274	309456	REC_WORD	2.56	n/a	GRASS	-999	6	n/a	n/a	pyFR	2	UP011
768.971	3.013	310766	REC_WORD	5.834	n/a	CALF	-999	6	n/a	n/a	pyFR	2	UP011
771.984	0.755	311971	REC_WORD	8.847	n/a	CONE	-999	6	n/a	n/a	pyFR	2	UP011
772.739	2.034	312273	REC_WORD	9.602	n/a	SNAKE	-999	6	n/a	n/a	pyFR	2	UP011
774.773	0.801	313086	REC_WORD	11.636	n/a	TOY	-999	6	n/a	n/a	pyFR	2	UP011
775.574	4.183	313407	REC_WORD	12.437	n/a	TRUCK	-999	6	n/a	n/a	pyFR	2	UP011
779.757	4.719	315080	REC_WORD	16.62	n/a	BOOK	-999	6	n/a	n/a	pyFR	2	UP011
784.476	1.486	316967	REC_WORD	21.339	n/a	FOAM	-999	6	n/a	n/a	pyFR	2	UP011
785.962	24.272	317562	REC_WORD	22.825	n/a	RUG	-999	6	n/a	n/a	pyFR	2	UP011
810.234	0.019	327270	TRIAL	n/a	n/a	n/a	-999	-999	n/a	n/a	pyFR	2	UP011
810.253	2.811	327278	ORIENT	n/a	n/a	n/a	-999	-999	n/a	n/a	pyFR	2	UP011
813.064	2.621	328402	WORD	n/a	wordpools/wordpool_EN.txt	JEEP	1	7	n/a	n/a	pyFR	2	UP011
815.685	2.461	329451	WORD	n/a	wordpools/wordpool_EN.txt	BED	2	7	n/a	n/a	pyFR	2	UP011
818.146	2.744	330435	WORD	n/a	wordpools/wordpool_EN.txt	BROOM	3	7	n/a	n/a	pyFR	2	UP011
820.89	2.792	331533	WORD	n/a	wordpools/wordpool_EN.txt	DEER	4	7	n/a	n/a	pyFR	2	UP011
823.682	2.7	332649	WORD	n/a	wordpools/wordpool_EN.txt	LEG	5	7	n/a	n/a	pyFR	2	UP011
826.382	2.787	333729	WORD	n/a	wordpools/wordpool_EN.txt	WORM	6	7	n/a	n/a	pyFR	2	UP011
829.169	2.495	334844	WORD	n/a	wordpools/wordpool_EN.txt	STORM	7	7	n/a	n/a	pyFR	2	UP011
831.664	2.451	335842	WORD	n/a	wordpools/wordpool_EN.txt	RAKE	8	7	n/a	n/a	pyFR	2	UP011
834.115	2.67	336822	WORD	n/a	wordpools/wordpool_EN.txt	MAZE	9	7	n/a	n/a	pyFR	2	UP011
836.785	2.66	337890	WORD	n/a	wordpools/wordpool_EN.txt	FOOD	10	7	n/a	n/a	pyFR	2	UP011
839.445	2.464	338954	WORD	n/a	wordpools/wordpool_EN.txt	HORN	11	7	n/a	n/a	pyFR	2	UP011
841.909	2.694	339940	WORD	n/a	wordpools/wordpool_EN.txt	DIME	12	7	n/a	n/a	pyFR	2	UP011
844.603	2.685	341017	WORD	n/a	wordpools/wordpool_EN.txt	WAND	13	7	n/a	n/a	pyFR	2	UP011
847.288	2.793	342091	WORD	n/a	wordpools/wordpool_EN.txt	TOAD	14	7	n/a	n/a	pyFR	2	UP011
850.081	1.625	343208	WORD	n/a	wordpools/wordpool_EN.txt	PET	15	7	n/a	n/a	pyFR	2	UP011
851.706	1.123	343858	START	n/a	n/a	n/a	n/a	7	[-999 -999 -999]	-999	pyFR	2	UP011
852.829	3.287	344308	PROB	3.206	n/a	n/a	n/a	7	[5 9 4]	18	pyFR	2	UP011
856.116	3.8	345622	PROB	3.718	n/a	n/a	n/a	7	[9 4 5]	18	pyFR	2	UP011
859.916	7.145	347142	PROB	7.056	n/a	n/a	n/a	7	[6 7 9]	22	pyFR	2	UP011
867.061	2.993	350000	PROB	2.911	n/a	n/a	n/a	7	[8 3 3]	14	pyFR	2	UP011
870.054	2.946	351197	PROB	2.946	n/a	n/a	n/a	7	[2 2 8]	12	pyFR	2	UP011
873.0	1.057	352376	STOP	n/a	n/a	n/a	n/a	7	[-999 -999 -999]	-999	pyFR	2	UP011
874.057	6.431	352799	REC_START	n/a	n/a	n/a	-999	-999	n/a	n/a	pyFR	2	UP011
880.488	4.494	355371	REC_WORD	6.431	n/a	JEEP	-999	7	n/a	n/a	pyFR	2	UP011
884.982	0.789	357168	REC_WORD	10.925	n/a	BED	-999	7	n/a	n/a	pyFR	2	UP011
885.771	11.912	357484	REC_WORD	11.714	n/a	BROOM	-999	7	n/a	n/a	pyFR	2	UP011
897.683	0.767	362249	REC_WORD	23.626	n/a	LEG	-999	7	n/a	n/a	pyFR	2	UP011
898.45	22.584	362555	REC_WORD	24.393	n/a	WORM	-999	7	n/a	n/a	pyFR	2	UP011
921.034	0.018	371589	TRIAL	n/a	n/a	n/a	-999	-999	n/a	n/a	pyFR	2	UP011
921.052	2.713	371596	ORIENT	n/a	n/a	n/a	-999	-999	n/a	n/a	pyFR	2	UP011
923.765	2.727	372681	WORD	n/a	wordpools/wordpool_EN.txt	SHRIMP	1	8	n/a	n/a	pyFR	2	UP011
926.492	2.61	373772	WORD	n/a	wordpools/wordpool_EN.txt	ANT	2	8	n/a	n/a	pyFR	2	UP011
929.102	2.729	374816	WORD	n/a	wordpools/wordpool_EN.txt	CARD	3	8	n/a	n/a	pyFR	2	UP011
931.831	2.523	375907	WORD	n/a	wordpools/wordpool_EN.txt	CLOTH	4	8	n/a	n/a	pyFR	2	UP011
934.354	2.507	376916	WORD	n/a	wordpools/wordpool_EN.txt	MAT	5	8	n/a	n/a	pyFR	2	UP011
936.861	2.715	377919	WORD	n/a	wordpools/wordpool_EN.txt	BOAT	6	8	n/a	n/a	pyFR	2	UP011
939.576	2.684	379005	WORD	n/a	wordpools/wordpool_EN.txt	TOOL	7	8	n/a	n/a	pyFR	2	UP011
942.26	2.624	380079	WORD	n/a	wordpools/wordpool_EN.txt	PEARL	8	8	n/a	n/a	pyFR	2	UP011
944.884	2.659	381128	WORD	n/a	wordpools/wordpool_EN.txt	SHELL	9	8	n/a	n/a	pyFR	2	UP011
947.543	2.73	382192	WORD	n/a	wordpools/wordpool_EN.txt	OAR	10	8	n/a	n/a	pyFR	2	UP011
950.273	2.559	383284	WORD	n/a	wordpools/wordpool_EN.txt	CLIFF	11	8	n/a	n/a	pyFR	2	UP011
952.832	2.515	384307	WORD	n/a	wordpools/wordpool_EN.txt	LAND	12	8	n/a	n/a	pyFR	2	UP011
955.347	2.642	385313	WORD	n/a	wordpools/wordpool_EN.txt	SALT	13	8	n/a	n/a	pyFR	2	UP011
957.989	2.789	386370	WORD	n/a	wordpools/wordpool_EN.txt	BALL	14	8	n/a	n/a	pyFR	2	UP011
960.778	1.627	387486	WORD	n/a	wordpools/wordpool_EN.txt	SPEAR	15	8	n/a	n/a	pyFR	2	UP011
962.405	1.116	388136	START	n/a	n/a	n/a	n/a	8	[-999 -999 -999]	-999	pyFR	2	UP011
963.521	4.751	388583	PROB	4.661	n/a	n/a	n/a	8	[5 2 4]	11	pyFR	2	UP011
968.272	3.136	390483	PROB	3.059	n/a	n/a	n/a	8	[7 8 4]	19	pyFR	2	UP011
971.408	3.02	391737	PROB	2.942	n/a	n/a	n/a	8	[6 8 6]	20	pyFR	2	UP011
974.428	4.107	392945	PROB	4.031	n/a	n/a	n/a	8	[5 8 2]	16	pyFR	2	UP011
978.535	4.633	394588	PROB	4.633	n/a	n/a	n/a	8	[1 1 4]	6	pyFR	2	UP011
983.168	1.1	396441	STOP	n/a	n/a	n/a	n/a	8	[-999 -999 -999]	-999	pyFR	2	UP011
984.268	1.561	396881	REC_START	n/a	n/a	n/a	-999	-999	n/a	n/a	pyFR	2	UP011
985.829	0.581	397506	REC_WORD	1.561	n/a	ANT	-999	8	n/a	n/a	pyFR	2	UP011
986.41	0.923	397738	REC_WORD	2.142	n/a	SHRIMP	-999	8	n/a	n/a	pyFR	2	UP011
987.333	1.562	398107	REC_WORD	3.065	n/a	CARD	-999	8	n/a	n/a	pyFR	2	UP011
988.895	0.865	398732	REC_WORD	4.627	n/a	RUG	-999	8	n/a	n/a	pyFR	2	UP011
989.76	2.943	399078	REC_WORD	5.492	n/a	CLOTH	-999	8	n/a	n/a	pyFR	2	UP011
992.703	2.055	400255	REC_WORD	8.435	n/a	BALL	-999	8	n/a	n/a	pyFR	2	UP011
994.758	7.988	401077	REC_WORD	10.49	n/a	SHELL	-999	8	n/a	n/a	pyFR	2	UP011
1002.746	1.086	404272	REC_WORD	18.478	n/a	CLIFF	-999	8	n/a	n/a	pyFR	2	UP011
1003.832	3.303	404707	REC_WORD	19.564	n/a	LAND	-999	8	n/a	n/a	pyFR	2	UP011
1007.135	11.639	406028	REC_WORD	22.867	n/a	OAR	-999	8	n/a	n/a	pyFR	2	UP011
1018.774	13.06	410683	REC_WORD	34.506	n/a	PEARL	-999	8	n/a	n/a	pyFR	2	UP011
1031.834	0.02	415907	TRIAL	n/a	n/a	n/a	-999	-999	n/a	n/a	pyFR	2	UP011
1031.854	2.894	415915	ORIENT	n/a	n/a	n/a	-999	-999	n/a	n/a	pyFR	2	UP011
1034.748	2.404	417072	WORD	n/a	wordpools/wordpool_EN.txt	COIN	1	9	n/a	n/a	pyFR	2	UP011
1037.152	2.809	418034	WORD	n/a	wordpools/wordpool_EN.txt	TRAY	2	9	n/a	n/a	pyFR	2	UP011
1039.961	2.635	419158	WORD	n/a	wordpools/wordpool_EN.txt	HEN	3	9	n/a	n/a	pyFR	2	UP011
1042.596	2.457	420212	WORD	n/a	wordpools/wordpool_EN.txt	NEST	4	9	n/a	n/a	pyFR	2	UP011
1045.053	2.467	421194	WORD	n/a	wordpools/wordpool_EN.txt	PALM	5	9	n/a	n/a	pyFR	2	UP011
1047.52	2.767	422181	WORD	n/a	wordpools/wordpool_EN.txt	SEED	6	9	n/a	n/a	pyFR	2	UP011
1050.287	2.796	423288	WORD	n/a	wordpools/wordpool_EN.txt	BRANCH	7	9	n/a	n/a	pyFR	2	UP011
1053.083	2.765	424406	WORD	n/a	wordpools/wordpool_EN.txt	FLOOR	8	9	n/a	n/a	pyFR	2	UP011
1055.848	2.582	425512	WORD	n/a	wordpools/wordpool_EN.txt	JET	9	9	n/a	n/a	pyFR	2	UP011
1058.43	2.454	426545	WORD	n/a	wordpools/wordpool_EN.txt	CUP	10	9	n/a	n/a	pyFR	2	UP011
1060.884	2.708	427526	WORD	n/a	wordpools/wordpool_EN.txt	THUMB	11	9	n/a	n/a	pyFR	2	UP011
1063.592	2.569	428610	WORD	n/a	wordpools/wordpool_EN.txt	SOCK	12	9	n/a	n/a	pyFR	2	UP011
1066.161	2.436	429637	WORD	n/a	wordpools/wordpool_EN.txt	GOLD	13	9	n/a	n/a	pyFR	2	UP011
1068.597	2.501	430612	WORD	n/a	wordpools/wordpool_EN.txt	CAT	14	9	n/a	n/a	pyFR	2	UP011
1071.098	1.609	431612	WORD	n/a	wordpools/wordpool_EN.txt	TIE	15	9	n/a	n/a	pyFR	2	UP011
1072.707	0.917	432256	START	n/a	n/a	n/a	n/a	9	[-999 -999 -999]	-999	pyFR	2	UP011
1073.624	5.347	432622	PROB	5.255	n/a	n/a	n/a	9	[8 1 9]	18	pyFR	2	UP011
1078.971	3.296	434761	PROB	3.213	n/a	n/a	n/a	9	[5 4 5]	14	pyFR	2	UP011
1082.267	2.559	436079	PROB	2.466	n/a	n/a	n/a	9	[4 2 7]	13	pyFR	2	UP011
1084.826	2.766	437103	PROB	2.706	n/a	n/a	n/a	9	[1 8 9]	18	pyFR	2	UP011
1087.592	4.482	438209	PROB	4.309	n/a	n/a	n/a	9	[4 3 8]	15	pyFR	2	UP011
1092.074	2.701	440002	PROB	2.701	n/a	n/a	n/a	9	[6 8 8]	22	pyFR	2	UP011
1094.775	1.18	441082	STOP	n/a	n/a	n/a	n/a	9	[-999 -999 -999]	-999	pyFR	2	UP011
1095.955	1.811	441554	REC_START	n/a	n/a	n/a	-999	-999	n/a	n/a	pyFR	2	UP011
1097.766	13.548	442279	REC_WORD	1.811	n/a	CUP	-999	9	n/a	n/a	pyFR	2	UP011
1111.314	0.721	447698	REC_WORD	15.359	n/a	OWL	-999	9	n/a	n/a	pyFR	2	UP011
1112.035	2.479	447986	REC_WORD	16.08	n/a	NEST	-999	9	n/a	n/a	pyFR	2	UP011
1114.514	1.074	448978	REC_WORD	18.559	n/a	SEED	-999	9	n/a	n/a	pyFR	2	UP011
1115.588	2.88	449407	REC_WORD	19.633	n/a	BRANCH	-999	9	n/a	n/a	pyFR	2	UP011
1118.468	0.714	450559	REC_WORD	22.513	n/a	CAT	-999	9	n/a	n/a	pyFR	2	UP011
1119.182	3.71	450845	REC_WORD	23.227	n/a	TIE	-999	9	n/a	n/a	pyFR	2	UP011
1122.892	1.05	452329	REC_WORD	26.937	n/a	COIN	-999	9	n/a	n/a	pyFR	2	UP011
1123.942	8.737	452749	REC_WORD	27.987	n/a	TRAY	-999	9	n/a	n/a	pyFR	2	UP011
1132.679	10.624	456243	REC_WORD	36.724	n/a	PALM	-999	9	n/a	n/a	pyFR	2	UP011
1143.303	0.019	460493	TRIAL	n/a	n/a	n/a	-999	-999	n/a	n/a	pyFR	2	UP011
1143.322	2.993	460500	ORIENT	n/a	n/a	n/a	-999	-999	n/a	n/a	pyFR	2	UP011
1146.315	2.794	461698	WORD	n/a	wordpools/wordpool_EN.txt	ROOT	1	10	n/a	n/a	pyFR	2	UP011
1149.109	2.456	462815	WORD	n/a	wordpools/wordpool_EN.txt	GEESE	2	10	n/a	n/a	pyFR	2	UP011
1151.565	2.768	463798	WORD	n/a	wordpools/wordpool_EN.txt	BATH	3	10	n/a	n/a	pyFR	2	UP011
1154.333	2.697	464905	WORD	n/a	wordpools/wordpool_EN.txt	JUDGE	4	10	n/a	n/a	pyFR	2	UP011
1157.03	2.52	465983	WORD	n/a	wordpools/wordpool_EN.txt	WOOD	5	10	n/a	n/a	pyFR	2	UP011
1159.55	2.69	466991	WORD	n/a	wordpools/wordpool_EN.txt	FUR	6	10	n/a	n/a	pyFR	2	UP011
1162.24	2.604	468067	WORD	n/a	wordpools/wordpool_EN.txt	STAR	7	10	n/a	n/a	pyFR	2	UP011
1164.844	2.541	469109	WORD	n/a	wordpools/wordpool_EN.txt	ROPE	8	10	n/a	n/a	pyFR	2	UP011
1167.385	2.722	470125	WORD	n/a	wordpools/wordpool_EN.txt	BENCH	9	10	n/a	n/a	pyFR	2	UP011
1170.107	2.485	471214	WORD	n/a	wordpools/wordpool_EN.txt	PEN	10	10	n/a	n/a	pyFR	2	UP011
1172.592	2.539	472208	WORD	n/a	wordpools/wordpool_EN.txt	SHARK	11	10	n/a	n/a	pyFR	2	UP011
1175.131	2.549	473224	WORD	n/a	wordpools/wordpool_EN.txt	SCHOOL	12	10	n/a	n/a	pyFR	2	UP011
1177.68	2.65	474243	WORD	n/a	wordpools/wordpool_EN.txt	CAGE	13	10	n/a	n/a	pyFR	2	UP011
1180.33	2.751	475303	WORD	n/a	wordpools/wordpool_EN.txt	DITCH	14	10	n/a	n/a	pyFR	2	UP011
1183.081	1.626	476403	WORD	n/a	wordpools/wordpool_EN.txt	SHEET	15	10	n/a	n/a	pyFR	2	UP011
1184.707	0.949	477054	START	n/a	n/a	n/a	n/a	10	[-999 -999 -999]	-999	pyFR	2	UP011
1185.656	3.279	477433	PROB	3.192	n/a	n/a	n/a	10	[2 7 3]	12	pyFR	2	UP011
1188.935	5.536	478745	PROB	5.451	n/a	n/a	n/a	10	[9 1 5]	15	pyFR	2	UP011
1194.471	3.565	480959	PROB	3.474	n/a	n/a	n/a	10	[5 5 5]	15	pyFR	2	UP011
1198.036	4.116	482385	PROB	4.029	n/a	n/a	n/a	10	[9 4 1]	14	pyFR	2	UP011
1202.152	2.391	484032	PROB	2.301	n/a	n/a	n/a	10	[1 3 8]	12	pyFR	2	UP011
1204.543	3.339	484988	PROB	3.339	n/a	n/a	n/a	10	[2 4 3]	9	pyFR	2	UP011
1207.882	1.232	486323	STOP	n/a	n/a	n/a	n/a	10	[-999 -999 -999]	-999	pyFR	2	UP011
1209.114	1.445	486816	REC_START	n/a	n/a	n/a	-999	-999	n/a	n/a	pyFR	2	UP011
1210.559	0.674	487394	REC_WORD	1.445	n/a	DITCH	-999	10	n/a	n/a	pyFR	2	UP011
1211.233	47.789	487664	REC_WORD	2.119	n/a	CAGE	-999	10	n/a	n/a	pyFR	2	UP011
1259.022	0.02	506779	TRIAL	n/a	n/a	n/a	-999	-999	n/a	n/a	pyFR	2	UP011
1259.042	2.793	506787	ORIENT	n/a	n/a	n/a	-999	-999	n/a	n/a	pyFR	2	UP011
1261.835	2.653	507904	WORD	n/a	wordpools/wordpool_EN.txt	MOUTH	1	11	n/a	n/a	pyFR	2	UP011
1264.488	2.761	508965	WORD	n/a	wordpools/wordpool_EN.txt	SKUNK	2	11	n/a	n/a	pyFR	2	UP011
1267.249	2.514	510069	WORD	n/a	wordpools/wordpool_EN.txt	SHIP	3	11	n/a	n/a	pyFR	2	UP011
1269.763	2.757	511075	WORD	n/a	wordpools/wordpool_EN.txt	PARK	4	11	n/a	n/a	pyFR	2	UP011
1272.52	2.613	512178	WORD	n/a	wordpools/wordpool_EN.txt	PRINCE	5	11	n/a	n/a	pyFR	2	UP011
1275.133	2.72	513223	WORD	n/a	wordpools/wordpool_EN.txt	PASTE	6	11	n/a	n/a	pyFR	2	UP011
1277.853	2.77	514311	WORD	n/a	wordpools/wordpool_EN.txt	CUBE	7	11	n/a	n/a	pyFR	2	UP011
1280.623	2.725	515419	WORD	n/a	wordpools/wordpool_EN.txt	EEL	8	11	n/a	n/a	pyFR	2	UP011
1283.348	2.569	516509	WORD	n/a	wordpools/wordpool_EN.txt	FORT	9	11	n/a	n/a	pyFR	2	UP011
1285.917	2.67	517536	WORD	n/a	wordpools/wordpool_EN.txt	HAT	10	11	n/a	n/a	pyFR	2	UP011
1288.587	2.735	518604	WORD	n/a	wordpools/wordpool_EN.txt	STRING	11	11	n/a	n/a	pyFR	2	UP011
1291.322	2.703	519698	WORD	n/a	wordpools/wordpool_EN.txt	DOOR	12	11	n/a	n/a	pyFR	2	UP011
1294.025	2.695	520779	WORD	n/a	wordpools/wordpool_EN.txt	PLATE	13	11	n/a	n/a	pyFR	2	UP011
1296.72	2.643	521857	WORD	n/a	wordpools/wordpool_EN.txt	ZOO	14	11	n/a	n/a	pyFR	2	UP011
1299.363	1.615	522914	WORD	n/a	wordpools/wordpool_EN.txt	PEA	15	11	n/a	n/a	pyFR	2	UP011
1300.978	1.079	523560	START	n/a	n/a	n/a	n/a	11	[-999 -999 -999]	-999	pyFR	2	UP011
1302.057	2.294	523992	PROB	2.207	n/a	n/a	n/a	11	[1 4 1]	6	pyFR	2	UP011
1304.351	2.979	524910	PROB	2.892	n/a	n/a	n/a	11	[5 6 7]	18	pyFR	2	UP011
1307.33	2.993	526101	PROB	2.902	n/a	n/a	n/a	11	[2 3 2]	7	pyFR	2	UP011
1310.323	3.37	527298	PROB	3.318	n/a	n/a	n/a	11	[5 5 4]	14	pyFR	2	UP011
1313.693	3.608	528646	PROB	3.527	n/a	n/a	n/a	11	[3 3 9]	15	pyFR	2	UP011
1317.301	3.53	530089	PROB	3.448	n/a	n/a	n/a	11	[3 5 9]	17	pyFR	2	UP011
1320.831	1.817	531501	PROB	1.817	n/a	n/a	n/a	11	[5 5 4]	14	pyFR	2	UP011
1322.648	1.195	532228	STOP	n/a	n/a	n/a	n/a	11	[-999 -999 -999]	-999	pyFR	2	UP011
1323.843	1.068	532706	REC_START	n/a	n/a	n/a	-999	-999	n/a	n/a	pyFR	2	UP011
1324.911	1.351	533133	REC_WORD	1.068	n/a	STRING	-999	11	n/a	n/a	pyFR	2	UP011
1326.262	13.09	533674	REC_WORD	2.419	n/a	DOOR	-999	11	n/a	n/a	pyFR	2	UP011
1339.352	4.238	538909	REC_WORD	15.509	n/a	MOUTH	-999	11	n/a	n/a	pyFR	2	UP011
1343.59	4.603	540605	REC_WORD	19.747	n/a	EEL	-999	11	n/a	n/a	pyFR	2	UP011
1348.193	2.7	542446	REC_WORD	24.35	n/a	PLATE	-999	11	n/a	n/a	pyFR	2	UP011
1350.893	0.912	543526	REC_WORD	27.05	n/a	PEA	-999	11	n/a	n/a	pyFR	2	UP011
1351.805	19.59	543890	REC_WORD	27.962	n/a	ZOO	-999	11	n/a	n/a	pyFR	2	UP011
1371.395	0.019	551726	TRIAL	n/a	n/a	n/a	-999	-999	n/a	n/a	pyFR	2	UP011
1371.414	2.89	551734	ORIENT	n/a	n/a	n/a	-999	-999	n/a	n/a	pyFR	2	UP011
1374.304	2.744	552890	WORD	n/a	wordpools/wordpool_EN.txt	RIB	1	12	n/a	n/a	pyFR	2	UP011
1377.048	2.606	553987	WORD	n/a	wordpools/wordpool_EN.txt	COUCH	2	12	n/a	n/a	pyFR	2	UP011
1379.654	2.451	555030	WORD	n/a	wordpools/wordpool_EN.txt	STOOL	3	12	n/a	n/a	pyFR	2	UP011
1382.105	2.509	556010	WORD	n/a	wordpools/wordpool_EN.txt	RAT	4	12	n/a	n/a	pyFR	2	UP011
1384.614	2.745	557014	WORD	n/a	wordpools/wordpool_EN.txt	BEACH	5	12	n/a	n/a	pyFR	2	UP011
1387.359	2.724	558112	WORD	n/a	wordpools/wordpool_EN.txt	VAN	6	12	n/a	n/a	pyFR	2	UP011
1390.083	2.713	559201	WORD	n/a	wordpools/wordpool_EN.txt	SNOW	7	12	n/a	n/a	pyFR	2	UP011
1392.796	2.605	560286	WORD	n/a	wordpools/wordpool_EN.txt	BAG	8	12	n/a	n/a	pyFR	2	UP011
1395.401	2.735	561328	WORD	n/a	wordpools/wordpool_EN.txt	ICE	9	12	n/a	n/a	pyFR	2	UP011
1398.136	2.77	562422	WORD	n/a	wordpools/wordpool_EN.txt	ROSE	10	12	n/a	n/a	pyFR	2	UP011
1400.906	2.442	563530	WORD	n/a	wordpools/wordpool_EN.txt	SHEEP	11	12	n/a	n/a	pyFR	2	UP011
1403.348	2.662	564507	WORD	n/a	wordpools/wordpool_EN.txt	SEAT	12	12	n/a	n/a	pyFR	2	UP011
1406.01	2.699	565572	WORD	n/a	wordpools/wordpool_EN.txt	SHIELD	13	12	n/a	n/a	pyFR	2	UP011
1408.709	2.443	566651	WORD	n/a	wordpools/wordpool_EN.txt	ROOF	14	12	n/a	n/a	pyFR	2	UP011
1411.152	1.609	567628	WORD	n/a	wordpools/wordpool_EN.txt	CHALK	15	12	n/a	n/a	pyFR	2	UP011
1412.761	0.923	568272	START	n/a	n/a	n/a	n/a	12	[-999 -999 -999]	-999	pyFR	2	UP011
1413.684	8.411	568641	PROB	8.325	n/a	n/a	n/a	12	[7 1 5]	13	pyFR	2	UP011
1422.095	2.744	572005	PROB	2.668	n/a	n/a	n/a	12	[2 5 7]	14	pyFR	2	UP011
1424.839	2.443	573103	PROB	2.363	n/a	n/a	n/a	12	[7 1 7]	15	pyFR	2	UP011
1427.282	3.079	574080	PROB	3.0	n/a	n/a	n/a	12	[9 2 4]	15	pyFR	2	UP011
1430.361	2.376	575312	PROB	2.281	n/a	n/a	n/a	12	[2 8 9]	19	pyFR	2	UP011
1432.737	3.374	576262	PROB	3.374	n/a	n/a	n/a	12	[6 9 6]	21	pyFR	2	UP011
1436.111	1.134	577612	STOP	n/a	n/a	n/a	n/a	12	[-999 -999 -999]	-999	pyFR	2	UP011
1437.245	1.381	578065	REC_START	n/a	n/a	n/a	-999	-999	n/a	n/a	pyFR	2	UP011
1438.626	5.504	578618	REC_WORD	1.381	n/a	STOOL	-999	12	n/a	n/a	pyFR	2	UP011
1444.13	3.947	580819	REC_WORD	6.885	n/a	RAT	-999	12	n/a	n/a	pyFR	2	UP011
1448.077	0.91	582398	REC_WORD	10.832	n/a	COUCH	-999	12	n/a	n/a	pyFR	2	UP011
1448.987	1.057	582762	REC_WORD	11.742	n/a	WING	-999	12	n/a	n/a	pyFR	2	UP011
1450.044	0.273	583185	REC_WORD_VV	12.799	n/a	VV	-999	12	n/a	n/a	pyFR	2	UP011
1450.317	3.78	583294	REC_WORD	13.072	n/a	RIB	-999	12	n/a	n/a	pyFR	2	UP011
1454.097	0.674	584806	REC_WORD	16.852	n/a	BEACH	-999	12	n/a	n/a	pyFR	2	UP011
1454.771	5.619	585075	REC_WORD	17.526	n/a	VAN	-999	12	n/a	n/a	pyFR	2	UP011
1460.39	26.104	587323	REC_WORD	23.145	n/a	SEAT	-999	12	n/a	n/a	pyFR	2	UP011
1486.494	0.016	597764	TRIAL	n/a	n/a	n/a	-999	-999	n/a	n/a	pyFR	2	UP011
1486.51	2.755	597770	ORIENT	n/a	n/a	n/a	-999	-999	n/a	n/a	pyFR	2	UP011
1489.265	2.47	598872	WORD	n/a	wordpools/wordpool_EN.txt	LIP	1	13	n/a	n/a	pyFR	2	UP011
1491.735	2.574	599860	WORD	n/a	wordpools/wordpool_EN.txt	CLAY	2	13	n/a	n/a	pyFR	2	UP011
1494.309	2.464	600890	WORD	n/a	wordpools/wordpool_EN.txt	BLOOM	3	13	n/a	n/a	pyFR	2	UP011
1496.773	2.639	601875	WORD	n/a	wordpools/wordpool_EN.txt	ROOM	4	13	n/a	n/a	pyFR	2	UP011
1499.412	2.767	602931	WORD	n/a	wordpools/wordpool_EN.txt	HAND	5	13	n/a	n/a	pyFR	2	UP011
1502.179	2.694	604038	WORD	n/a	wordpools/wordpool_EN.txt	MAIL	6	13	n/a	n/a	pyFR	2	UP011
1504.873	2.645	605115	WORD	n/a	wordpools/wordpool_EN.txt	PIPE	7	13	n/a	n/a	pyFR	2	UP011
1507.518	2.645	606173	WORD	n/a	wordpools/wordpool_EN.txt	BRIDGE	8	13	n/a	n/a	pyFR	2	UP011
1510.163	2.709	607231	WORD	n/a	wordpools/wordpool_EN.txt	NAIL	9	13	n/a	n/a	pyFR	2	UP011
1512.872	2.437	608315	WORD	n/a	wordpools/wordpool_EN.txt	TOE	10	13	n/a	n/a	pyFR	2	UP011
1515.309	2.433	609290	WORD	n/a	wordpools/wordpool_EN.txt	STEAK	11	13	n/a	n/a	pyFR	2	UP011
1517.742	2.776	610263	WORD	n/a	wordpools/wordpool_EN.txt	EGG	12	13	n/a	n/a	pyFR	2	UP011
1520.518	2.767	611373	WORD	n/a	wordpools/wordpool_EN.txt	HEART	13	13	n/a	n/a	pyFR	2	UP011
1523.285	2.716	612480	WORD	n/a	wordpools/wordpool_EN.txt	FLUTE	14	13	n/a	n/a	pyFR	2	UP011
1526.001	1.612	613566	WORD	n/a	wordpools/wordpool_EN.txt	SLUSH	15	13	n/a	n/a	pyFR	2	UP011
1527.613	0.958	614211	START	n/a	n/a	n/a	n/a	13	[-999 -999 -999]	-999	pyFR	2	UP011
1528.571	3.505	614594	PROB	3.422	n/a	n/a	n/a	13	[8 5 8]	22	pyFR	2	UP011
1532.076	4.266	615996	PROB	4.186	n/a	n/a	n/a	13	[9 7 5]	21	pyFR	2	UP011
1536.342	2.593	617702	PROB	2.498	n/a	n/a	n/a	13	[2 4 7]	13	pyFR	2	UP011
1538.935	1.973	618740	PROB	1.894	n/a	n/a	n/a	13	[4 1 6]	11	pyFR	2	UP011
1540.908	2.493	619529	PROB	2.402	n/a	n/a	n/a	13	[9 5 5]	19	pyFR	2	UP011
1543.401	1.974	620526	PROB	1.883	n/a	n/a	n/a	13	[5 3 1]	9	pyFR	2	UP011
1545.375	2.226	621316	PROB	2.148	n/a	n/a	n/a	13	[6 2 4]	12	pyFR	2	UP011
1547.601	1.831	622206	PROB	1.831	n/a	n/a	n/a	13	[8 8 1]	17	pyFR	2	UP011
1549.432	1.132	622938	STOP	n/a	n/a	n/a	n/a	13	[-999 -999 -999]	-999	pyFR	2	UP011
1550.564	15.946	623391	REC_START	n/a	n/a	n/a	-999	-999	n/a	n/a	pyFR	2	UP011
1566.51	0.912	629769	REC_WORD	15.946	n/a	TOE	-999	13	n/a	n/a	pyFR	2	UP011
1567.422	31.026	630134	REC_WORD	16.858	n/a	NAIL	-999	13	n/a	n/a	pyFR	2	UP011
1598.448	0.02	642544	TRIAL	n/a	n/a	n/a	-999	-999	n/a	n/a	pyFR	2	UP011
1598.468	2.724	642552	ORIENT	n/a	n/a	n/a	-999	-999	n/a	n/a	pyFR	2	UP011
1601.192	2.716	643641	WORD	n/a	wordpools/wordpool_EN.txt	TAIL	1	14	n/a	n/a	pyFR	2	UP011
1603.908	2.449	644728	WORD	n/a	wordpools/wordpool_EN.txt	HOOK	2	14	n/a	n/a	pyFR	2	UP011
1606.357	2.675	645707	WORD	n/a	wordpools/wordpool_EN.txt	FLEA	3	14	n/a	n/a	pyFR	2	UP011
1609.032	2.711	646777	WORD	n/a	wordpools/wordpool_EN.txt	TOAST	4	14	n/a	n/a	pyFR	2	UP011
1611.743	2.503	647862	WORD	n/a	wordpools/wordpool_EN.txt	PURSE	5	14	n/a	n/a	pyFR	2	UP011
1614.246	2.5	648863	WORD	n/a	wordpools/wordpool_EN.txt	APE	6	14	n/a	n/a	pyFR	2	UP011
1616.746	2.788	649863	WORD	n/a	wordpools/wordpool_EN.txt	CROWN	7	14	n/a	n/a	pyFR	2	UP011
1619.534	2.412	650978	WORD	n/a	wordpools/wordpool_EN.txt	CART	8	14	n/a	n/a	pyFR	2	UP011
1621.946	2.656	651943	WORD	n/a	wordpools/wordpool_EN.txt	SLIME	9	14	n/a	n/a	pyFR	2	UP011
1624.602	2.745	653005	WORD	n/a	wordpools/wordpool_EN.txt	FLAG	10	14	n/a	n/a	pyFR	2	UP011
1627.347	2.452	654103	WORD	n/a	wordpools/wordpool_EN.txt	CAKE	11	14	n/a	n/a	pyFR	2	UP011
1629.799	2.736	655084	WORD	n/a	wordpools/wordpool_EN.txt	BELL	12	14	n/a	n/a	pyFR	2	UP011
1632.535	2.642	656178	WORD	n/a	wordpools/wordpool_EN.txt	HOOF	13	14	n/a	n/a	pyFR	2	UP011
1635.177	2.673	657235	WORD	n/a	wordpools/wordpool_EN.txt	FARM	14	14	n/a	n/a	pyFR	2	UP011
1637.85	1.609	658304	WORD	n/a	wordpools/wordpool_EN.txt	POOL	15	14	n/a	n/a	pyFR	2	UP011
1639.459	1.164	658948	START	n/a	n/a	n/a	n/a	14	[-999 -999 -999]	-999	pyFR	2	UP011
1640.623	4.912	659413	PROB	4.831	n/a	n/a	n/a	14	[5 7 6]	18	pyFR	2	UP011
1645.535	2.175	661378	PROB	2.089	n/a	n/a	n/a	14	[4 3 7]	14	pyFR	2	UP011
1647.71	3.196	662248	PROB	3.103	n/a	n/a	n/a	14	[5 2 3]	10	pyFR	2	UP011
1650.906	3.462	663526	PROB	3.371	n/a	n/a	n/a	14	[6 9 5]	20	pyFR	2	UP011
1654.368	3.297	664911	PROB	3.213	n/a	n/a	n/a	14	[3 5 1]	9	pyFR	2	UP011
1657.665	4.339	666230	PROB	4.339	n/a	n/a	n/a	14	[9 4 2]	15	pyFR	2	UP011
1662.004	1.154	667965	STOP	n/a	n/a	n/a	n/a	14	[-999 -999 -999]	-999	pyFR	2	UP011
1663.158	0.603	668427	REC_START	n/a	n/a	n/a	-999	-999	n/a	n/a	pyFR	2	UP011
1663.761	0.703	668668	REC_WORD	0.603	n/a	POOL	-999	14	n/a	n/a	pyFR	2	UP011
1664.464	0.909	668949	REC_WORD	1.306	n/a	FARM	-999	14	n/a	n/a	pyFR	2	UP011
1665.373	3.285	669313	REC_WORD	2.215	n/a	HOOF	-999	14	n/a	n/a	pyFR	2	UP011
1668.658	1.784	670627	REC_WORD	5.5	n/a	FLAG	-999	14	n/a	n/a	pyFR	2	UP011
1670.442	3.193	671340	REC_WORD	7.284	n/a	SLIME	-999	14	n/a	n/a	pyFR	2	UP011
1673.635	1.875	672618	REC_WORD	10.477	n/a	CAKE	-999	14	n/a	n/a	pyFR	2	UP011
1675.51	36.917	673368	REC_WORD	12.352	n/a	BELL	-999	14	n/a	n/a	pyFR	2	UP011
1712.427	0.019	688134	TRIAL	n/a	n/a	n/a	-999	-999	n/a	n/a	pyFR	2	UP011
1712.446	2.904	688141	ORIENT	n/a	n/a	n/a	-999	-999	n/a	n/a	pyFR	2	UP011
1715.35	2.593	689303	WORD	n/a	wordpools/wordpool_EN.txt	YARD	1	15	n/a	n/a	pyFR	2	UP011
1717.943	2.668	690340	WORD	n/a	wordpools/wordpool_EN.txt	HILL	2	15	n/a	n/a	pyFR	2	UP011
1720.611	2.547	691407	WORD	n/a	wordpools/wordpool_EN.txt	STEM	3	15	n/a	n/a	pyFR	2	UP011
1723.158	2.53	692426	WORD	n/a	wordpools/wordpool_EN.txt	BIRD	4	15	n/a	n/a	pyFR	2	UP011
1725.688	2.55	693438	WORD	n/a	wordpools/wordpool_EN.txt	CHIEF	5	15	n/a	n/a	pyFR	2	UP011
1728.238	2.795	694458	WORD	n/a	wordpools/wordpool_EN.txt	STAIR	6	15	n/a	n/a	pyFR	2	UP011
1731.033	2.526	695576	WORD	n/a	wordpools/wordpool_EN.txt	HAWK	7	15	n/a	n/a	pyFR	2	UP011
1733.559	2.42	696586	WORD	n/a	wordpools/wordpool_EN.txt	DAD	8	15	n/a	n/a	pyFR	2	UP011
1735.979	2.718	697554	WORD	n/a	wordpools/wordpool_EN.txt	THREAD	9	15	n/a	n/a	pyFR	2	UP011
1738.697	2.59	698641	WORD	n/a	wordpools/wordpool_EN.txt	TENT	10	15	n/a	n/a	pyFR	2	UP011
1741.287	2.63	699677	WORD	n/a	wordpools/wordpool_EN.txt	SPONGE	11	15	n/a	n/a	pyFR	2	UP011
1743.917	2.737	700729	WORD	n/a	wordpools/wordpool_EN.txt	SUN	12	15	n/a	n/a	pyFR	2	UP011
1746.654	2.516	701824	WORD	n/a	wordpools/wordpool_EN.txt	FACE	13	15	n/a	n/a	pyFR	2	UP011
1749.17	2.429	702830	WORD	n/a	wordpools/wordpool_EN.txt	STEAM	14	15	n/a	n/a	pyFR	2	UP011
1751.599	1.612	703802	WORD	n/a	wordpools/wordpool_EN.txt	LAMB	15	15	n/a	n/a	pyFR	2	UP011
1753.211	1.046	704447	START	n/a	n/a	n/a	n/a	15	[-999 -999 -999]	-999	pyFR	2	UP011
1754.257	18.593	704865	PROB	18.505	n/a	n/a	n/a	15	[5 9 9]	23	pyFR	2	UP011
1772.85	3.792	712302	PROB	3.792	n/a	n/a	n/a	15	[3 7 6]	16	pyFR	2	UP011
1776.642	1.077	713819	STOP	n/a	n/a	n/a	n/a	15	[-999 -999 -999]	-999	pyFR	2	UP011
1777.719	5.985	714250	REC_START	n/a	n/a	n/a	-999	-999	n/a	n/a	pyFR	2	UP011
1783.704	1.173	716643	REC_WORD	5.985	n/a	YARD	-999	15	n/a	n/a	pyFR	2	UP011
1784.877	4.223	717113	REC_WORD	7.158	n/a	HILL	-999	15	n/a	n/a	pyFR	2	UP011
1789.1	14.432	718802	REC_WORD	11.381	n/a	DAD	-999	15	n/a	n/a	pyFR	2	UP011
1803.532	0.975	724574	REC_WORD	25.813	n/a	THREAD	-999	15	n/a	n/a	pyFR	2	UP011
1804.507	0.732	724964	REC_WORD	26.788	n/a	FACE	-999	15	n/a	n/a	pyFR	2	UP011
1805.239	9.543	725257	REC_WORD	27.52	n/a	SUN	-999	15	n/a	n/a	pyFR	2	UP011
1814.782	6.279	729074	REC_WORD	37.063	n/a	YARD	-999	15	n/a	n/a	pyFR	2	UP011
1821.061	33.103	731586	REC_WORD	43.342	n/a	STAIR	-999	15	n/a	n/a	pyFR	2	UP011
1854.164	0.02	744826	TRIAL	n/a	n/a	n/a	-999	-999	n/a	n/a	pyFR	2	UP011
1854.184	2.905	744834	ORIENT	n/a	n/a	n/a	-999	-999	n/a	n/a	pyFR	2	UP011
1857.089	2.428	745996	WORD	n/a	wordpools/wordpool_EN.txt	DUCK	1	16	n/a	n/a	pyFR	2	UP011
1859.517	2.735	746968	WORD	n/a	wordpools/wordpool_EN.txt	TRASH	2	16	n/a	n/a	pyFR	2	UP011
1862.252	2.474	748061	WORD	n/a	wordpools/wordpool_EN.txt	BAT	3	16	n/a	n/a	pyFR	2	UP011
1864.726	2.462	749051	WORD	n/a	wordpools/wordpool_EN.txt	BOOT	4	16	n/a	n/a	pyFR	2	UP011
1867.188	2.669	750036	WORD	n/a	wordpools/wordpool_EN.txt	DOLL	5	16	n/a	n/a	pyFR	2	UP011
1869.857	2.803	751103	WORD	n/a	wordpools/wordpool_EN.txt	VINE	6	16	n/a	n/a	pyFR	2	UP011
1872.66	2.426	752225	WORD	n/a	wordpools/wordpool_EN.txt	CLOWN	7	16	n/a	n/a	pyFR	2	UP011
1875.086	2.563	753195	WORD	n/a	wordpools/wordpool_EN.txt	CRANE	8	16	n/a	n/a	pyFR	2	UP011
1877.649	2.694	754220	WORD	n/a	wordpools/wordpool_EN.txt	SAIL	9	16	n/a	n/a	pyFR	2	UP011
1880.343	2.625	755298	WORD	n/a	wordpools/wordpool_EN.txt	SEA	10	16	n/a	n/a	pyFR	2	UP011
1882.968	2.654	756348	WORD	n/a	wordpools/wordpool_EN.txt	HOUSE	11	16	n/a	n/a	pyFR	2	UP011
1885.622	2.513	757409	WORD	n/a	wordpools/wordpool_EN.txt	CASH	12	16	n/a	n/a	pyFR	2	UP011
1888.135	2.463	758414	WORD	n/a	wordpools/wordpool_EN.txt	BANK	13	16	n/a	n/a	pyFR	2	UP011
1890.598	2.537	759399	WORD	n/a	wordpools/wordpool_EN.txt	QUEEN	14	16	n/a	n/a	pyFR	2	UP011
1893.135	1.613	760414	WORD	n/a	wordpools/wordpool_EN.txt	HORSE	15	16	n/a	n/a	pyFR	2	UP011
1894.748	1.119	761059	START	n/a	n/a	n/a	n/a	16	[-999 -999 -999]	-999	pyFR	2	UP011
1895.867	3.878	761507	PROB	3.788	n/a	n/a	n/a	16	[1 3 1]	5	pyFR	2	UP011
1899.745	1.522	763058	PROB	1.43	n/a	n/a	n/a	16	[4 1 1]	6	pyFR	2	UP011
1901.267	2.076	763667	PROB	1.987	n/a	n/a	n/a	16	[9 5 5]	19	pyFR	2	UP011
1903.343	2.692	764497	PROB	2.6	n/a	n/a	n/a	16	[6 8 6]	20	pyFR	2	UP011
1906.035	2.058	765574	PROB	1.978	n/a	n/a	n/a	16	[4 6 5]	15	pyFR	2	UP011
1908.093	3.252	766397	PROB	3.189	n/a	n/a	n/a	16	[6 8 3]	17	pyFR	2	UP011
1911.345	2.512	767698	PROB	2.436	n/a	n/a	n/a	16	[8 5 5]	18	pyFR	2	UP011
1913.857	3.893	768703	PROB	3.893	n/a	n/a	n/a	16	[6 8 6]	20	pyFR	2	UP011
1917.75	1.154	770260	STOP	n/a	n/a	n/a	n/a	16	[-999 -999 -999]	-999	pyFR	2	UP011
1918.904	11.461	770721	REC_START	n/a	n/a	n/a	-999	-999	n/a	n/a	pyFR	2	UP011
1930.365	7.849	775306	REC_WORD	11.461	n/a	BAT	-999	16	n/a	n/a	pyFR	2	UP011
1938.214	3.402	778445	REC_WORD	19.31	n/a	CLOWN	-999	16	n/a	n/a	pyFR	2	UP011
1941.616	9.021	779806	REC_WORD	22.712	n/a	BOOT	-999	16	n/a	n/a	pyFR	2	UP011
1950.637	570.871	783414	REC_WORD	31.733	n/a	VINE	-999	16	n/a	n/a	pyFR	2	UP011
2521.508	0.0	1011754	SESS_END	n/a	n/a	n/a	-999	-999	n/a	n/a	pyFR	2	UP011
2521.508	0.0	1011754	E	n/a	n/a	n/a	-999	-999	n/a	n/a	pyFR	2	UP011
