onset	duration	sample	trial_type	response_time	stim_file	item_name	serialpos	list	test	answer	experiment	session	subject
0.0	0.0	1940519	SESS_START	n/a	n/a	n/a	-999.0	-999	n/a	n/a	pyFR	0	TJ066
0.0	108.452	1940519	B	n/a	n/a	n/a	-999.0	-999	n/a	n/a	pyFR	0	TJ066
108.452	0.024	2048971	START	n/a	n/a	n/a	n/a	0	[-999 -999 -999]	-999.0	pyFR	0	TJ066
108.476	25.175	2048995	PROB	25.137	n/a	n/a	n/a	0	[6 6 8]	20.0	pyFR	0	TJ066
133.651	6.41	2074170	PROB	6.41	n/a	n/a	n/a	0	[5 2 1]	8.0	pyFR	0	TJ066
140.061	81.419	2080580	STOP	n/a	n/a	n/a	n/a	0	[-999 -999 -999]	-999.0	pyFR	0	TJ066
221.48	0.016	2161998	TRIAL	n/a	n/a	n/a	-999.0	1	n/a	n/a	pyFR	0	TJ066
221.496	1.6	2162014	ORIENT	n/a	n/a	n/a	-999.0	1	n/a	n/a	pyFR	0	TJ066
224.351	1.6	2164869	WORD	n/a	wordpools/wordpool_EN.txt	PEARL	1.0	1	n/a	n/a	pyFR	0	TJ066
227.155	1.6	2167673	WORD	n/a	wordpools/wordpool_EN.txt	SHELL	2.0	1	n/a	n/a	pyFR	0	TJ066
229.709	1.6	2170227	WORD	n/a	wordpools/wordpool_EN.txt	BOARD	3.0	1	n/a	n/a	pyFR	0	TJ066
232.464	1.6	2172982	WORD	n/a	wordpools/wordpool_EN.txt	SOCK	4.0	1	n/a	n/a	pyFR	0	TJ066
235.017	1.6	2175535	WORD	n/a	wordpools/wordpool_EN.txt	CLOCK	5.0	1	n/a	n/a	pyFR	0	TJ066
237.656	1.6	2178174	WORD	n/a	wordpools/wordpool_EN.txt	BIRD	6.0	1	n/a	n/a	pyFR	0	TJ066
240.11	1.6	2180628	WORD	n/a	wordpools/wordpool_EN.txt	CAKE	7.0	1	n/a	n/a	pyFR	0	TJ066
242.764	1.6	2183282	WORD	n/a	wordpools/wordpool_EN.txt	TOOTH	8.0	1	n/a	n/a	pyFR	0	TJ066
245.419	1.6	2185937	WORD	n/a	wordpools/wordpool_EN.txt	STORE	9.0	1	n/a	n/a	pyFR	0	TJ066
248.006	1.6	2188524	WORD	n/a	wordpools/wordpool_EN.txt	JUICE	10.0	1	n/a	n/a	pyFR	0	TJ066
250.793	1.6	2191311	WORD	n/a	wordpools/wordpool_EN.txt	LOCK	11.0	1	n/a	n/a	pyFR	0	TJ066
253.382	1.6	2193900	WORD	n/a	wordpools/wordpool_EN.txt	WALL	12.0	1	n/a	n/a	pyFR	0	TJ066
256.07	1.6	2196588	WORD	n/a	wordpools/wordpool_EN.txt	VASE	13.0	1	n/a	n/a	pyFR	0	TJ066
258.807	1.6	2199325	WORD	n/a	wordpools/wordpool_EN.txt	MAP	14.0	1	n/a	n/a	pyFR	0	TJ066
261.429	1.6	2201947	WORD	n/a	wordpools/wordpool_EN.txt	NAIL	15.0	1	n/a	n/a	pyFR	0	TJ066
263.049	0.966	2203567	START	n/a	n/a	n/a	n/a	1	[-999 -999 -999]	-999.0	pyFR	0	TJ066
264.015	7.597	2204533	PROB	7.57	n/a	n/a	n/a	1	[5 5 5]	15.0	pyFR	0	TJ066
271.612	3.656	2212130	PROB	3.621	n/a	n/a	n/a	1	[9 1 1]	11.0	pyFR	0	TJ066
275.268	3.94	2215786	PROB	3.916	n/a	n/a	n/a	1	[1 7 2]	10.0	pyFR	0	TJ066
279.208	5.305	2219726	PROB	5.305	n/a	n/a	n/a	1	[5 4 9]	18.0	pyFR	0	TJ066
284.513	1.123	2225031	STOP	n/a	n/a	n/a	n/a	1	[-999 -999 -999]	-999.0	pyFR	0	TJ066
285.636	2.657	2226154	REC_START	n/a	n/a	n/a	-999.0	1	n/a	n/a	pyFR	0	TJ066
288.293	0.644	2228811	REC_WORD	2.657	n/a	SHELL	-999.0	1	n/a	n/a	pyFR	0	TJ066
288.937	0.521	2229455	REC_WORD	3.301	n/a	PEARL	-999.0	1	n/a	n/a	pyFR	0	TJ066
289.458	0.535	2229976	REC_WORD	3.822	n/a	CLOCK	-999.0	1	n/a	n/a	pyFR	0	TJ066
289.993	1.568	2230511	REC_WORD	4.357	n/a	WALL	-999.0	1	n/a	n/a	pyFR	0	TJ066
291.561	42.989	2232079	REC_WORD	5.925	n/a	SOCK	-999.0	1	n/a	n/a	pyFR	0	TJ066
334.55	0.016	2275068	TRIAL	n/a	n/a	n/a	-999.0	2	n/a	n/a	pyFR	0	TJ066
334.566	1.6	2275084	ORIENT	n/a	n/a	n/a	-999.0	2	n/a	n/a	pyFR	0	TJ066
337.204	1.6	2277722	WORD	n/a	wordpools/wordpool_EN.txt	CAT	1.0	2	n/a	n/a	pyFR	0	TJ066
339.84	1.6	2280358	WORD	n/a	wordpools/wordpool_EN.txt	DEER	2.0	2	n/a	n/a	pyFR	0	TJ066
342.579	1.6	2283097	WORD	n/a	wordpools/wordpool_EN.txt	SLIME	3.0	2	n/a	n/a	pyFR	0	TJ066
345.217	1.6	2285735	WORD	n/a	wordpools/wordpool_EN.txt	FRUIT	4.0	2	n/a	n/a	pyFR	0	TJ066
347.737	1.6	2288255	WORD	n/a	wordpools/wordpool_EN.txt	TEA	5.0	2	n/a	n/a	pyFR	0	TJ066
350.359	1.6	2290877	WORD	n/a	wordpools/wordpool_EN.txt	SOUP	6.0	2	n/a	n/a	pyFR	0	TJ066
353.047	1.6	2293565	WORD	n/a	wordpools/wordpool_EN.txt	CHEEK	7.0	2	n/a	n/a	pyFR	0	TJ066
355.834	1.6	2296352	WORD	n/a	wordpools/wordpool_EN.txt	STOOL	8.0	2	n/a	n/a	pyFR	0	TJ066
358.322	1.6	2298840	WORD	n/a	wordpools/wordpool_EN.txt	FUDGE	9.0	2	n/a	n/a	pyFR	0	TJ066
360.975	1.6	2301493	WORD	n/a	wordpools/wordpool_EN.txt	SUN	10.0	2	n/a	n/a	pyFR	0	TJ066
363.514	1.6	2304032	WORD	n/a	wordpools/wordpool_EN.txt	FOOD	11.0	2	n/a	n/a	pyFR	0	TJ066
366.168	1.6	2306686	WORD	n/a	wordpools/wordpool_EN.txt	GRAPE	12.0	2	n/a	n/a	pyFR	0	TJ066
368.972	1.6	2309490	WORD	n/a	wordpools/wordpool_EN.txt	SPONGE	13.0	2	n/a	n/a	pyFR	0	TJ066
371.427	1.6	2311945	WORD	n/a	wordpools/wordpool_EN.txt	CLAY	14.0	2	n/a	n/a	pyFR	0	TJ066
374.181	1.6	2314699	WORD	n/a	wordpools/wordpool_EN.txt	NOSE	15.0	2	n/a	n/a	pyFR	0	TJ066
375.801	0.95	2316319	START	n/a	n/a	n/a	n/a	2	[-999 -999 -999]	-999.0	pyFR	0	TJ066
376.751	6.027	2317269	PROB	5.997	n/a	n/a	n/a	2	[5 3 2]	10.0	pyFR	0	TJ066
382.778	8.298	2323296	PROB	8.258	n/a	n/a	n/a	2	[4 6 3]	13.0	pyFR	0	TJ066
391.076	3.672	2331594	PROB	3.648	n/a	n/a	n/a	2	[1 1 8]	10.0	pyFR	0	TJ066
394.748	4.449	2335266	PROB	4.449	n/a	n/a	n/a	2	[6 4 8]	18.0	pyFR	0	TJ066
399.197	1.211	2339715	STOP	n/a	n/a	n/a	n/a	2	[-999 -999 -999]	-999.0	pyFR	0	TJ066
400.408	3.167	2340926	REC_START	n/a	n/a	n/a	-999.0	2	n/a	n/a	pyFR	0	TJ066
403.575	2.391	2344093	REC_WORD_VV	3.167	n/a	<>	-999.0	2	n/a	n/a	pyFR	0	TJ066
405.966	0.889	2346484	REC_WORD	5.558	n/a	SLUDGE	-999.0	2	n/a	n/a	pyFR	0	TJ066
406.855	6.02	2347373	REC_WORD	6.447	n/a	CHEEK	-999.0	2	n/a	n/a	pyFR	0	TJ066
412.875	57.064	2353393	REC_WORD	12.467	n/a	DEER	-999.0	2	n/a	n/a	pyFR	0	TJ066
469.939	0.016	2410456	TRIAL	n/a	n/a	n/a	-999.0	3	n/a	n/a	pyFR	0	TJ066
469.955	1.6	2410472	ORIENT	n/a	n/a	n/a	-999.0	3	n/a	n/a	pyFR	0	TJ066
472.927	1.6	2413444	WORD	n/a	wordpools/wordpool_EN.txt	KITE	1.0	3	n/a	n/a	pyFR	0	TJ066
475.532	1.6	2416049	WORD	n/a	wordpools/wordpool_EN.txt	JAR	2.0	3	n/a	n/a	pyFR	0	TJ066
478.002	1.6	2418519	WORD	n/a	wordpools/wordpool_EN.txt	SPRING	3.0	3	n/a	n/a	pyFR	0	TJ066
480.69	1.6	2421207	WORD	n/a	wordpools/wordpool_EN.txt	SKI	4.0	3	n/a	n/a	pyFR	0	TJ066
483.428	1.6	2423945	WORD	n/a	wordpools/wordpool_EN.txt	PHONE	5.0	3	n/a	n/a	pyFR	0	TJ066
486.133	1.6	2426650	WORD	n/a	wordpools/wordpool_EN.txt	HORN	6.0	3	n/a	n/a	pyFR	0	TJ066
488.821	1.6	2429338	WORD	n/a	wordpools/wordpool_EN.txt	TRASH	7.0	3	n/a	n/a	pyFR	0	TJ066
491.325	1.6	2431842	WORD	n/a	wordpools/wordpool_EN.txt	DUCK	8.0	3	n/a	n/a	pyFR	0	TJ066
494.113	1.6	2434630	WORD	n/a	wordpools/wordpool_EN.txt	CHIN	9.0	3	n/a	n/a	pyFR	0	TJ066
496.883	1.6	2437400	WORD	n/a	wordpools/wordpool_EN.txt	SWAMP	10.0	3	n/a	n/a	pyFR	0	TJ066
499.455	1.6	2439972	WORD	n/a	wordpools/wordpool_EN.txt	PEA	11.0	3	n/a	n/a	pyFR	0	TJ066
502.008	1.6	2442525	WORD	n/a	wordpools/wordpool_EN.txt	BEE	12.0	3	n/a	n/a	pyFR	0	TJ066
504.68	1.6	2445197	WORD	n/a	wordpools/wordpool_EN.txt	PEN	13.0	3	n/a	n/a	pyFR	0	TJ066
507.151	1.6	2447668	WORD	n/a	wordpools/wordpool_EN.txt	BED	14.0	3	n/a	n/a	pyFR	0	TJ066
509.638	1.6	2450155	WORD	n/a	wordpools/wordpool_EN.txt	LAWN	15.0	3	n/a	n/a	pyFR	0	TJ066
511.259	1.001	2451776	START	n/a	n/a	n/a	n/a	3	[-999 -999 -999]	-999.0	pyFR	0	TJ066
512.26	9.215	2452777	PROB	9.181	n/a	n/a	n/a	3	[7 3 2]	12.0	pyFR	0	TJ066
521.475	14.42	2461992	PROB	14.42	n/a	n/a	n/a	3	[7 9 7]	23.0	pyFR	0	TJ066
535.895	1.071	2476412	STOP	n/a	n/a	n/a	n/a	3	[-999 -999 -999]	-999.0	pyFR	0	TJ066
536.966	14.556	2477483	REC_START	n/a	n/a	n/a	-999.0	3	n/a	n/a	pyFR	0	TJ066
551.522	119.016	2492039	REC_WORD	14.556	n/a	LAWN	-999.0	3	n/a	n/a	pyFR	0	TJ066
670.538	0.016	2611055	TRIAL	n/a	n/a	n/a	-999.0	4	n/a	n/a	pyFR	0	TJ066
670.554	1.6	2611071	ORIENT	n/a	n/a	n/a	-999.0	4	n/a	n/a	pyFR	0	TJ066
673.225	1.6	2613742	WORD	n/a	wordpools/wordpool_EN.txt	FLOOR	1.0	4	n/a	n/a	pyFR	0	TJ066
675.812	1.6	2616329	WORD	n/a	wordpools/wordpool_EN.txt	COIN	2.0	4	n/a	n/a	pyFR	0	TJ066
678.367	1.6	2618884	WORD	n/a	wordpools/wordpool_EN.txt	WING	3.0	4	n/a	n/a	pyFR	0	TJ066
680.92	1.6	2621437	WORD	n/a	wordpools/wordpool_EN.txt	CASH	4.0	4	n/a	n/a	pyFR	0	TJ066
683.375	1.6	2623892	WORD	n/a	wordpools/wordpool_EN.txt	HOLE	5.0	4	n/a	n/a	pyFR	0	TJ066
686.096	1.6	2626613	WORD	n/a	wordpools/wordpool_EN.txt	JAIL	6.0	4	n/a	n/a	pyFR	0	TJ066
688.8	1.6	2629317	WORD	n/a	wordpools/wordpool_EN.txt	DESK	7.0	4	n/a	n/a	pyFR	0	TJ066
691.405	1.6	2631921	WORD	n/a	wordpools/wordpool_EN.txt	CANE	8.0	4	n/a	n/a	pyFR	0	TJ066
694.143	1.6	2634659	WORD	n/a	wordpools/wordpool_EN.txt	PURSE	9.0	4	n/a	n/a	pyFR	0	TJ066
696.779	1.6	2637295	WORD	n/a	wordpools/wordpool_EN.txt	MOON	10.0	4	n/a	n/a	pyFR	0	TJ066
699.285	1.6	2639801	WORD	n/a	wordpools/wordpool_EN.txt	BELL	11.0	4	n/a	n/a	pyFR	0	TJ066
702.005	1.6	2642521	WORD	n/a	wordpools/wordpool_EN.txt	CORD	12.0	4	n/a	n/a	pyFR	0	TJ066
704.793	1.6	2645309	WORD	n/a	wordpools/wordpool_EN.txt	GIRL	13.0	4	n/a	n/a	pyFR	0	TJ066
707.298	1.6	2647814	WORD	n/a	wordpools/wordpool_EN.txt	SNAIL	14.0	4	n/a	n/a	pyFR	0	TJ066
710.018	1.6	2650534	WORD	n/a	wordpools/wordpool_EN.txt	SAIL	15.0	4	n/a	n/a	pyFR	0	TJ066
711.639	0.884	2652155	START	n/a	n/a	n/a	n/a	4	[-999 -999 -999]	-999.0	pyFR	0	TJ066
712.523	9.181	2653039	PROB	9.151	n/a	n/a	n/a	4	[6 7 5]	18.0	pyFR	0	TJ066
721.704	6.495	2662220	PROB	6.466	n/a	n/a	n/a	4	[9 2 2]	13.0	pyFR	0	TJ066
728.199	8.987	2668715	PROB	8.987	n/a	n/a	n/a	4	[9 5 8]	22.0	pyFR	0	TJ066
737.186	1.18	2677702	STOP	n/a	n/a	n/a	n/a	4	[-999 -999 -999]	-999.0	pyFR	0	TJ066
738.366	2.273	2678882	REC_START	n/a	n/a	n/a	-999.0	4	n/a	n/a	pyFR	0	TJ066
740.639	0.441	2681155	REC_WORD	2.273	n/a	BELL	-999.0	4	n/a	n/a	pyFR	0	TJ066
741.08	1.183	2681596	REC_WORD	2.714	n/a	FLOOR	-999.0	4	n/a	n/a	pyFR	0	TJ066
742.263	1.221	2682779	REC_WORD	3.897	n/a	GIRL	-999.0	4	n/a	n/a	pyFR	0	TJ066
743.484	12.77	2684000	REC_WORD	5.118	n/a	MOON	-999.0	4	n/a	n/a	pyFR	0	TJ066
756.254	38.721	2696770	REC_WORD	17.888	n/a	SNAIL	-999.0	4	n/a	n/a	pyFR	0	TJ066
794.975	0.016	2735491	TRIAL	n/a	n/a	n/a	-999.0	5	n/a	n/a	pyFR	0	TJ066
794.991	1.6	2735507	ORIENT	n/a	n/a	n/a	-999.0	5	n/a	n/a	pyFR	0	TJ066
797.664	1.6	2738180	WORD	n/a	wordpools/wordpool_EN.txt	DOOR	1.0	5	n/a	n/a	pyFR	0	TJ066
800.118	1.6	2740634	WORD	n/a	wordpools/wordpool_EN.txt	GOAT	2.0	5	n/a	n/a	pyFR	0	TJ066
802.588	1.6	2743104	WORD	n/a	wordpools/wordpool_EN.txt	WHEEL	3.0	5	n/a	n/a	pyFR	0	TJ066
805.36	1.6	2745876	WORD	n/a	wordpools/wordpool_EN.txt	SHEEP	4.0	5	n/a	n/a	pyFR	0	TJ066
808.181	1.6	2748697	WORD	n/a	wordpools/wordpool_EN.txt	PALM	5.0	5	n/a	n/a	pyFR	0	TJ066
810.985	1.6	2751501	WORD	n/a	wordpools/wordpool_EN.txt	FOG	6.0	5	n/a	n/a	pyFR	0	TJ066
813.64	1.6	2754156	WORD	n/a	wordpools/wordpool_EN.txt	BEACH	7.0	5	n/a	n/a	pyFR	0	TJ066
816.411	1.6	2756927	WORD	n/a	wordpools/wordpool_EN.txt	ROAD	8.0	5	n/a	n/a	pyFR	0	TJ066
819.166	1.6	2759682	WORD	n/a	wordpools/wordpool_EN.txt	COW	9.0	5	n/a	n/a	pyFR	0	TJ066
821.685	1.6	2762201	WORD	n/a	wordpools/wordpool_EN.txt	HOUSE	10.0	5	n/a	n/a	pyFR	0	TJ066
824.441	1.6	2764957	WORD	n/a	wordpools/wordpool_EN.txt	PRINCE	11.0	5	n/a	n/a	pyFR	0	TJ066
827.162	1.6	2767678	WORD	n/a	wordpools/wordpool_EN.txt	LAMP	12.0	5	n/a	n/a	pyFR	0	TJ066
829.783	1.6	2770299	WORD	n/a	wordpools/wordpool_EN.txt	SWORD	13.0	5	n/a	n/a	pyFR	0	TJ066
832.521	1.6	2773037	WORD	n/a	wordpools/wordpool_EN.txt	STRAW	14.0	5	n/a	n/a	pyFR	0	TJ066
835.109	1.6	2775625	WORD	n/a	wordpools/wordpool_EN.txt	TAIL	15.0	5	n/a	n/a	pyFR	0	TJ066
836.728	0.901	2777244	START	n/a	n/a	n/a	n/a	5	[-999 -999 -999]	-999.0	pyFR	0	TJ066
837.629	7.228	2778145	PROB	7.193	n/a	n/a	n/a	5	[4 2 5]	11.0	pyFR	0	TJ066
844.857	8.532	2785373	PROB	8.509	n/a	n/a	n/a	5	[4 1 8]	13.0	pyFR	0	TJ066
853.389	3.088	2793905	PROB	3.065	n/a	n/a	n/a	5	[3 3 3]	9.0	pyFR	0	TJ066
856.477	4.121	2796993	PROB	4.121	n/a	n/a	n/a	5	[1 4 2]	7.0	pyFR	0	TJ066
860.598	1.204	2801114	STOP	n/a	n/a	n/a	n/a	5	[-999 -999 -999]	-999.0	pyFR	0	TJ066
861.802	5.175	2802318	REC_START	n/a	n/a	n/a	-999.0	5	n/a	n/a	pyFR	0	TJ066
866.977	1.251	2807493	REC_WORD	5.175	n/a	GOAT	-999.0	5	n/a	n/a	pyFR	0	TJ066
868.228	29.828	2808744	REC_WORD	6.426	n/a	SHEEP	-999.0	5	n/a	n/a	pyFR	0	TJ066
898.056	92.41	2838572	REC_WORD	36.254	n/a	HOUSE	-999.0	5	n/a	n/a	pyFR	0	TJ066
990.466	0.016	2930981	TRIAL	n/a	n/a	n/a	-999.0	6	n/a	n/a	pyFR	0	TJ066
990.482	1.6	2930997	ORIENT	n/a	n/a	n/a	-999.0	6	n/a	n/a	pyFR	0	TJ066
993.386	1.6	2933901	WORD	n/a	wordpools/wordpool_EN.txt	MAZE	1.0	6	n/a	n/a	pyFR	0	TJ066
996.091	1.6	2936606	WORD	n/a	wordpools/wordpool_EN.txt	SEED	2.0	6	n/a	n/a	pyFR	0	TJ066
998.694	1.6	2939209	WORD	n/a	wordpools/wordpool_EN.txt	PANTS	3.0	6	n/a	n/a	pyFR	0	TJ066
1001.199	1.6	2941714	WORD	n/a	wordpools/wordpool_EN.txt	SMOKE	4.0	6	n/a	n/a	pyFR	0	TJ066
1003.702	1.6	2944217	WORD	n/a	wordpools/wordpool_EN.txt	MUG	5.0	6	n/a	n/a	pyFR	0	TJ066
1006.325	1.6	2946840	WORD	n/a	wordpools/wordpool_EN.txt	OAK	6.0	6	n/a	n/a	pyFR	0	TJ066
1008.811	1.6	2949326	WORD	n/a	wordpools/wordpool_EN.txt	SCHOOL	7.0	6	n/a	n/a	pyFR	0	TJ066
1011.233	1.6	2951748	WORD	n/a	wordpools/wordpool_EN.txt	CLOWN	8.0	6	n/a	n/a	pyFR	0	TJ066
1013.953	1.6	2954468	WORD	n/a	wordpools/wordpool_EN.txt	WORM	9.0	6	n/a	n/a	pyFR	0	TJ066
1016.724	1.6	2957239	WORD	n/a	wordpools/wordpool_EN.txt	FLAG	10.0	6	n/a	n/a	pyFR	0	TJ066
1019.396	1.6	2959911	WORD	n/a	wordpools/wordpool_EN.txt	STEAK	11.0	6	n/a	n/a	pyFR	0	TJ066
1022.067	1.6	2962582	WORD	n/a	wordpools/wordpool_EN.txt	SHIRT	12.0	6	n/a	n/a	pyFR	0	TJ066
1024.837	1.6	2965352	WORD	n/a	wordpools/wordpool_EN.txt	SHEET	13.0	6	n/a	n/a	pyFR	0	TJ066
1027.377	1.6	2967892	WORD	n/a	wordpools/wordpool_EN.txt	COAT	14.0	6	n/a	n/a	pyFR	0	TJ066
1030.164	1.6	2970679	WORD	n/a	wordpools/wordpool_EN.txt	JUDGE	15.0	6	n/a	n/a	pyFR	0	TJ066
1031.783	1.051	2972298	START	n/a	n/a	n/a	n/a	6	[-999 -999 -999]	-999.0	pyFR	0	TJ066
1032.834	9.933	2973349	PROB	9.909	n/a	n/a	n/a	6	[5 7 7]	19.0	pyFR	0	TJ066
1042.767	4.558	2983282	PROB	4.529	n/a	n/a	n/a	6	[1 9 2]	12.0	pyFR	0	TJ066
1047.325	3.672	2987840	PROB	3.65	n/a	n/a	n/a	6	[2 2 5]	9.0	pyFR	0	TJ066
1050.997	3.523	2991512	PROB	3.523	n/a	n/a	n/a	6	[2 4 1]	7.0	pyFR	0	TJ066
1054.52	1.086	2995035	STOP	n/a	n/a	n/a	n/a	6	[-999 -999 -999]	-999.0	pyFR	0	TJ066
1055.606	5.689	2996121	REC_START	n/a	n/a	n/a	-999.0	6	n/a	n/a	pyFR	0	TJ066
1061.295	416.809	3001810	REC_WORD	5.689	n/a	MAZE	-999.0	6	n/a	n/a	pyFR	0	TJ066
1478.104	0.016	3418618	TRIAL	n/a	n/a	n/a	-999.0	7	n/a	n/a	pyFR	0	TJ066
1478.12	1.6	3418634	ORIENT	n/a	n/a	n/a	-999.0	7	n/a	n/a	pyFR	0	TJ066
1481.125	1.6	3421638	WORD	n/a	wordpools/wordpool_EN.txt	SPEAR	1.0	7	n/a	n/a	pyFR	0	TJ066
1483.711	1.6	3424224	WORD	n/a	wordpools/wordpool_EN.txt	GRASS	2.0	7	n/a	n/a	pyFR	0	TJ066
1486.283	1.6	3426796	WORD	n/a	wordpools/wordpool_EN.txt	ANT	3.0	7	n/a	n/a	pyFR	0	TJ066
1489.02	1.6	3429533	WORD	n/a	wordpools/wordpool_EN.txt	COUCH	4.0	7	n/a	n/a	pyFR	0	TJ066
1491.775	1.6	3432288	WORD	n/a	wordpools/wordpool_EN.txt	YARD	5.0	7	n/a	n/a	pyFR	0	TJ066
1494.247	1.6	3434760	WORD	n/a	wordpools/wordpool_EN.txt	BAT	6.0	7	n/a	n/a	pyFR	0	TJ066
1496.983	1.6	3437496	WORD	n/a	wordpools/wordpool_EN.txt	SHARK	7.0	7	n/a	n/a	pyFR	0	TJ066
1499.655	1.6	3440168	WORD	n/a	wordpools/wordpool_EN.txt	BLUSH	8.0	7	n/a	n/a	pyFR	0	TJ066
1502.36	1.6	3442873	WORD	n/a	wordpools/wordpool_EN.txt	GEESE	9.0	7	n/a	n/a	pyFR	0	TJ066
1505.047	1.6	3445560	WORD	n/a	wordpools/wordpool_EN.txt	ROOF	10.0	7	n/a	n/a	pyFR	0	TJ066
1507.801	1.6	3448314	WORD	n/a	wordpools/wordpool_EN.txt	MOUTH	11.0	7	n/a	n/a	pyFR	0	TJ066
1510.407	1.6	3450920	WORD	n/a	wordpools/wordpool_EN.txt	BAG	12.0	7	n/a	n/a	pyFR	0	TJ066
1513.061	1.6	3453574	WORD	n/a	wordpools/wordpool_EN.txt	TIE	13.0	7	n/a	n/a	pyFR	0	TJ066
1515.515	1.6	3456028	WORD	n/a	wordpools/wordpool_EN.txt	GLOVE	14.0	7	n/a	n/a	pyFR	0	TJ066
1517.968	1.6	3458481	WORD	n/a	wordpools/wordpool_EN.txt	BOOT	15.0	7	n/a	n/a	pyFR	0	TJ066
1519.589	1.183	3460102	START	n/a	n/a	n/a	n/a	7	[-999 -999 -999]	-999.0	pyFR	0	TJ066
1520.772	9.684	3461285	PROB	9.652	n/a	n/a	n/a	7	[5 8 2]	15.0	pyFR	0	TJ066
1530.456	6.476	3470969	PROB	6.447	n/a	n/a	n/a	7	[1 7 4]	12.0	pyFR	0	TJ066
1536.932	5.348	3477445	PROB	5.348	n/a	n/a	n/a	7	[8 1 6]	15.0	pyFR	0	TJ066
1542.28	1.131	3482793	STOP	n/a	n/a	n/a	n/a	7	[-999 -999 -999]	-999.0	pyFR	0	TJ066
1543.411	5.823	3483924	REC_START	n/a	n/a	n/a	-999.0	7	n/a	n/a	pyFR	0	TJ066
1549.234	14.578	3489747	REC_WORD	5.823	n/a	GEESE	-999.0	7	n/a	n/a	pyFR	0	TJ066
1563.812	1.0	3504325	REC_WORD_VV	20.401	n/a	<>	-999.0	7	n/a	n/a	pyFR	0	TJ066
1564.812	17.002	3505325	REC_WORD_VV	21.401	n/a	<>	-999.0	7	n/a	n/a	pyFR	0	TJ066
1581.814	35.803	3522327	REC_WORD	38.403	n/a	MOUTH	-999.0	7	n/a	n/a	pyFR	0	TJ066
1617.617	0.016	3558130	TRIAL	n/a	n/a	n/a	-999.0	8	n/a	n/a	pyFR	0	TJ066
1617.633	1.6	3558146	ORIENT	n/a	n/a	n/a	-999.0	8	n/a	n/a	pyFR	0	TJ066
1620.271	1.6	3560784	WORD	n/a	wordpools/wordpool_EN.txt	OAR	1.0	8	n/a	n/a	pyFR	0	TJ066
1623.076	1.6	3563589	WORD	n/a	wordpools/wordpool_EN.txt	BADGE	2.0	8	n/a	n/a	pyFR	0	TJ066
1625.746	1.6	3566259	WORD	n/a	wordpools/wordpool_EN.txt	SKUNK	3.0	8	n/a	n/a	pyFR	0	TJ066
1628.268	1.6	3568781	WORD	n/a	wordpools/wordpool_EN.txt	CAR	4.0	8	n/a	n/a	pyFR	0	TJ066
1630.754	1.6	3571267	WORD	n/a	wordpools/wordpool_EN.txt	SNAKE	5.0	8	n/a	n/a	pyFR	0	TJ066
1633.209	1.6	3573722	WORD	n/a	wordpools/wordpool_EN.txt	PLANT	6.0	8	n/a	n/a	pyFR	0	TJ066
1635.68	1.6	3576193	WORD	n/a	wordpools/wordpool_EN.txt	DOG	7.0	8	n/a	n/a	pyFR	0	TJ066
1638.368	1.6	3578881	WORD	n/a	wordpools/wordpool_EN.txt	MOOSE	8.0	8	n/a	n/a	pyFR	0	TJ066
1640.937	1.6	3581450	WORD	n/a	wordpools/wordpool_EN.txt	CONE	9.0	8	n/a	n/a	pyFR	0	TJ066
1643.56	1.6	3584073	WORD	n/a	wordpools/wordpool_EN.txt	RAKE	10.0	8	n/a	n/a	pyFR	0	TJ066
1646.215	1.6	3586728	WORD	n/a	wordpools/wordpool_EN.txt	FAN	11.0	8	n/a	n/a	pyFR	0	TJ066
1648.684	1.6	3589197	WORD	n/a	wordpools/wordpool_EN.txt	CARD	12.0	8	n/a	n/a	pyFR	0	TJ066
1651.255	1.6	3591768	WORD	n/a	wordpools/wordpool_EN.txt	STAIR	13.0	8	n/a	n/a	pyFR	0	TJ066
1653.742	1.6	3594255	WORD	n/a	wordpools/wordpool_EN.txt	CHIEF	14.0	8	n/a	n/a	pyFR	0	TJ066
1656.497	1.6	3597010	WORD	n/a	wordpools/wordpool_EN.txt	PEACH	15.0	8	n/a	n/a	pyFR	0	TJ066
1658.118	1.0	3598631	START	n/a	n/a	n/a	n/a	8	[-999 -999 -999]	-999.0	pyFR	0	TJ066
1659.118	6.261	3599631	PROB	6.23	n/a	n/a	n/a	8	[7 2 4]	13.0	pyFR	0	TJ066
1665.379	9.648	3605892	PROB	9.624	n/a	n/a	n/a	8	[6 7 8]	20.0	pyFR	0	TJ066
1675.027	5.687	3615540	PROB	5.687	n/a	n/a	n/a	8	[3 2 1]	9.0	pyFR	0	TJ066
1680.714	1.225	3621227	STOP	n/a	n/a	n/a	n/a	8	[-999 -999 -999]	-999.0	pyFR	0	TJ066
1681.939	4.307	3622452	REC_START	n/a	n/a	n/a	-999.0	8	n/a	n/a	pyFR	0	TJ066
1686.246	1.345	3626759	REC_WORD	4.307	n/a	OAR	-999.0	8	n/a	n/a	pyFR	0	TJ066
1687.591	21.285	3628104	REC_WORD	5.652	n/a	SKUNK	-999.0	8	n/a	n/a	pyFR	0	TJ066
1708.876	144.313	3649389	REC_WORD	26.937	n/a	BELL	-999.0	8	n/a	n/a	pyFR	0	TJ066
1853.189	0.016	3793701	TRIAL	n/a	n/a	n/a	-999.0	9	n/a	n/a	pyFR	0	TJ066
1853.205	1.6	3793717	ORIENT	n/a	n/a	n/a	-999.0	9	n/a	n/a	pyFR	0	TJ066
1855.959	1.6	3796471	WORD	n/a	wordpools/wordpool_EN.txt	TRUCK	1.0	9	n/a	n/a	pyFR	0	TJ066
1858.514	1.6	3799026	WORD	n/a	wordpools/wordpool_EN.txt	GLASS	2.0	9	n/a	n/a	pyFR	0	TJ066
1861.302	1.6	3801814	WORD	n/a	wordpools/wordpool_EN.txt	CAGE	3.0	9	n/a	n/a	pyFR	0	TJ066
1863.955	1.6	3804467	WORD	n/a	wordpools/wordpool_EN.txt	TRAY	4.0	9	n/a	n/a	pyFR	0	TJ066
1866.577	1.6	3807089	WORD	n/a	wordpools/wordpool_EN.txt	TENT	5.0	9	n/a	n/a	pyFR	0	TJ066
1869.066	1.6	3809578	WORD	n/a	wordpools/wordpool_EN.txt	PLANE	6.0	9	n/a	n/a	pyFR	0	TJ066
1871.885	1.6	3812397	WORD	n/a	wordpools/wordpool_EN.txt	PIN	7.0	9	n/a	n/a	pyFR	0	TJ066
1874.624	1.6	3815136	WORD	n/a	wordpools/wordpool_EN.txt	HOOK	8.0	9	n/a	n/a	pyFR	0	TJ066
1877.345	1.6	3817857	WORD	n/a	wordpools/wordpool_EN.txt	CHAIR	9.0	9	n/a	n/a	pyFR	0	TJ066
1879.782	1.6	3820294	WORD	n/a	wordpools/wordpool_EN.txt	HEN	10.0	9	n/a	n/a	pyFR	0	TJ066
1882.47	1.6	3822982	WORD	n/a	wordpools/wordpool_EN.txt	FLEA	11.0	9	n/a	n/a	pyFR	0	TJ066
1885.258	1.6	3825770	WORD	n/a	wordpools/wordpool_EN.txt	SIGN	12.0	9	n/a	n/a	pyFR	0	TJ066
1887.912	1.6	3828424	WORD	n/a	wordpools/wordpool_EN.txt	VEST	13.0	9	n/a	n/a	pyFR	0	TJ066
1890.634	1.6	3831146	WORD	n/a	wordpools/wordpool_EN.txt	MOLE	14.0	9	n/a	n/a	pyFR	0	TJ066
1893.405	1.6	3833917	WORD	n/a	wordpools/wordpool_EN.txt	TREE	15.0	9	n/a	n/a	pyFR	0	TJ066
1895.024	1.102	3835536	START	n/a	n/a	n/a	n/a	9	[-999 -999 -999]	-999.0	pyFR	0	TJ066
1896.126	7.662	3836638	PROB	7.629	n/a	n/a	n/a	9	[9 6 9]	24.0	pyFR	0	TJ066
1903.788	5.91	3844300	PROB	5.888	n/a	n/a	n/a	9	[7 5 5]	17.0	pyFR	0	TJ066
1909.698	5.024	3850210	PROB	5.001	n/a	n/a	n/a	9	[7 6 3]	16.0	pyFR	0	TJ066
1914.722	4.89	3855234	PROB	4.89	n/a	n/a	n/a	9	[1 5 6]	14.0	pyFR	0	TJ066
1919.612	1.238	3860124	STOP	n/a	n/a	n/a	n/a	9	[-999 -999 -999]	-999.0	pyFR	0	TJ066
1920.85	2.644	3861362	REC_START	n/a	n/a	n/a	-999.0	9	n/a	n/a	pyFR	0	TJ066
1923.494	3.99	3864006	REC_WORD	2.644	n/a	TRUCK	-999.0	9	n/a	n/a	pyFR	0	TJ066
1927.484	9.489	3867996	REC_WORD	6.634	n/a	SNAKE	-999.0	9	n/a	n/a	pyFR	0	TJ066
1936.973	79.252	3877485	REC_WORD	16.123	n/a	GEESE	-999.0	9	n/a	n/a	pyFR	0	TJ066
2016.225	0.016	3956736	TRIAL	n/a	n/a	n/a	-999.0	10	n/a	n/a	pyFR	0	TJ066
2016.241	1.6	3956752	ORIENT	n/a	n/a	n/a	-999.0	10	n/a	n/a	pyFR	0	TJ066
2019.079	1.6	3959590	WORD	n/a	wordpools/wordpool_EN.txt	HORSE	1.0	10	n/a	n/a	pyFR	0	TJ066
2021.766	1.6	3962277	WORD	n/a	wordpools/wordpool_EN.txt	HAT	2.0	10	n/a	n/a	pyFR	0	TJ066
2024.388	1.6	3964899	WORD	n/a	wordpools/wordpool_EN.txt	SPARK	3.0	10	n/a	n/a	pyFR	0	TJ066
2027.059	1.6	3967570	WORD	n/a	wordpools/wordpool_EN.txt	BOY	4.0	10	n/a	n/a	pyFR	0	TJ066
2029.563	1.6	3970074	WORD	n/a	wordpools/wordpool_EN.txt	LAND	5.0	10	n/a	n/a	pyFR	0	TJ066
2032.218	1.6	3972729	WORD	n/a	wordpools/wordpool_EN.txt	PIG	6.0	10	n/a	n/a	pyFR	0	TJ066
2034.687	1.6	3975198	WORD	n/a	wordpools/wordpool_EN.txt	THUMB	7.0	10	n/a	n/a	pyFR	0	TJ066
2037.343	1.6	3977854	WORD	n/a	wordpools/wordpool_EN.txt	TOY	8.0	10	n/a	n/a	pyFR	0	TJ066
2039.896	1.6	3980407	WORD	n/a	wordpools/wordpool_EN.txt	ROPE	9.0	10	n/a	n/a	pyFR	0	TJ066
2042.635	1.6	3983146	WORD	n/a	wordpools/wordpool_EN.txt	CUP	10.0	10	n/a	n/a	pyFR	0	TJ066
2045.189	1.6	3985700	WORD	n/a	wordpools/wordpool_EN.txt	TOOL	11.0	10	n/a	n/a	pyFR	0	TJ066
2047.876	1.6	3988387	WORD	n/a	wordpools/wordpool_EN.txt	FORK	12.0	10	n/a	n/a	pyFR	0	TJ066
2050.697	1.6	3991208	WORD	n/a	wordpools/wordpool_EN.txt	SNOW	13.0	10	n/a	n/a	pyFR	0	TJ066
2053.285	1.6	3993796	WORD	n/a	wordpools/wordpool_EN.txt	FILM	14.0	10	n/a	n/a	pyFR	0	TJ066
2056.022	1.6	3996533	WORD	n/a	wordpools/wordpool_EN.txt	PLATE	15.0	10	n/a	n/a	pyFR	0	TJ066
2057.627	1.116	3998138	START	n/a	n/a	n/a	n/a	10	[-999 -999 -999]	-999.0	pyFR	0	TJ066
2058.743	5.41	3999254	PROB	5.376	n/a	n/a	n/a	10	[5 5 3]	13.0	pyFR	0	TJ066
2064.153	8.398	4004664	PROB	8.374	n/a	n/a	n/a	10	[4 9 4]	17.0	pyFR	0	TJ066
2072.551	7.055	4013062	PROB	7.055	n/a	n/a	n/a	10	[2 8 5]	15.0	pyFR	0	TJ066
2079.606	1.124	4020117	STOP	n/a	n/a	n/a	n/a	10	[-999 -999 -999]	-999.0	pyFR	0	TJ066
2080.73	1.722	4021241	REC_START	n/a	n/a	n/a	-999.0	10	n/a	n/a	pyFR	0	TJ066
2082.452	2.29	4022963	REC_WORD	1.722	n/a	BOY	-999.0	10	n/a	n/a	pyFR	0	TJ066
2084.742	1.39	4025253	REC_WORD	4.012	n/a	PIG	-999.0	10	n/a	n/a	pyFR	0	TJ066
2086.132	2.382	4026643	REC_WORD	5.402	n/a	FORK	-999.0	10	n/a	n/a	pyFR	0	TJ066
2088.514	19.672	4029025	REC_WORD	7.784	n/a	SNOW	-999.0	10	n/a	n/a	pyFR	0	TJ066
2108.186	49.788	4048697	REC_WORD	27.456	n/a	SNAKE	-999.0	10	n/a	n/a	pyFR	0	TJ066
2157.974	0.017	4098485	TRIAL	n/a	n/a	n/a	-999.0	11	n/a	n/a	pyFR	0	TJ066
2157.991	1.6	4098502	ORIENT	n/a	n/a	n/a	-999.0	11	n/a	n/a	pyFR	0	TJ066
2160.745	1.6	4101256	WORD	n/a	wordpools/wordpool_EN.txt	VAN	1.0	11	n/a	n/a	pyFR	0	TJ066
2163.517	1.6	4104028	WORD	n/a	wordpools/wordpool_EN.txt	HAWK	2.0	11	n/a	n/a	pyFR	0	TJ066
2166.289	1.6	4106800	WORD	n/a	wordpools/wordpool_EN.txt	HEART	3.0	11	n/a	n/a	pyFR	0	TJ066
2168.942	1.6	4109453	WORD	n/a	wordpools/wordpool_EN.txt	ROSE	4.0	11	n/a	n/a	pyFR	0	TJ066
2171.498	1.6	4112009	WORD	n/a	wordpools/wordpool_EN.txt	WAVE	5.0	11	n/a	n/a	pyFR	0	TJ066
2174.302	1.6	4114813	WORD	n/a	wordpools/wordpool_EN.txt	CLOTH	6.0	11	n/a	n/a	pyFR	0	TJ066
2176.872	1.6	4117383	WORD	n/a	wordpools/wordpool_EN.txt	CAPE	7.0	11	n/a	n/a	pyFR	0	TJ066
2179.294	1.6	4119805	WORD	n/a	wordpools/wordpool_EN.txt	QUEEN	8.0	11	n/a	n/a	pyFR	0	TJ066
2181.897	1.6	4122408	WORD	n/a	wordpools/wordpool_EN.txt	TANK	9.0	11	n/a	n/a	pyFR	0	TJ066
2184.318	1.6	4124829	WORD	n/a	wordpools/wordpool_EN.txt	SOAP	10.0	11	n/a	n/a	pyFR	0	TJ066
2187.106	1.6	4127617	WORD	n/a	wordpools/wordpool_EN.txt	BOMB	11.0	11	n/a	n/a	pyFR	0	TJ066
2189.544	1.6	4130055	WORD	n/a	wordpools/wordpool_EN.txt	SUIT	12.0	11	n/a	n/a	pyFR	0	TJ066
2192.215	1.6	4132726	WORD	n/a	wordpools/wordpool_EN.txt	CUBE	13.0	11	n/a	n/a	pyFR	0	TJ066
2194.918	1.6	4135429	WORD	n/a	wordpools/wordpool_EN.txt	STONE	14.0	11	n/a	n/a	pyFR	0	TJ066
2197.689	1.6	4138200	WORD	n/a	wordpools/wordpool_EN.txt	BOX	15.0	11	n/a	n/a	pyFR	0	TJ066
2199.294	0.818	4139805	START	n/a	n/a	n/a	n/a	11	[-999 -999 -999]	-999.0	pyFR	0	TJ066
2200.112	5.274	4140623	PROB	5.242	n/a	n/a	n/a	11	[7 1 9]	17.0	pyFR	0	TJ066
2205.386	6.695	4145897	PROB	6.664	n/a	n/a	n/a	11	[3 8 5]	16.0	pyFR	0	TJ066
2212.081	3.506	4152592	PROB	3.482	n/a	n/a	n/a	11	[1 1 6]	8.0	pyFR	0	TJ066
2215.587	4.318	4156098	PROB	4.318	n/a	n/a	n/a	11	[3 1 4]	8.0	pyFR	0	TJ066
2219.905	1.107	4160416	STOP	n/a	n/a	n/a	n/a	11	[-999 -999 -999]	-999.0	pyFR	0	TJ066
2221.012	6.403	4161523	REC_START	n/a	n/a	n/a	-999.0	11	n/a	n/a	pyFR	0	TJ066
2227.415	1.81	4167926	REC_WORD	6.403	n/a	BUS	-999.0	11	n/a	n/a	pyFR	0	TJ066
2229.225	156.642	4169736	REC_WORD	8.213	n/a	VAN	-999.0	11	n/a	n/a	pyFR	0	TJ066
2385.867	0.016	4326377	TRIAL	n/a	n/a	n/a	-999.0	12	n/a	n/a	pyFR	0	TJ066
2385.883	1.6	4326393	ORIENT	n/a	n/a	n/a	-999.0	12	n/a	n/a	pyFR	0	TJ066
2388.888	1.6	4329398	WORD	n/a	wordpools/wordpool_EN.txt	BRANCH	1.0	12	n/a	n/a	pyFR	0	TJ066
2391.577	1.6	4332087	WORD	n/a	wordpools/wordpool_EN.txt	TAPE	2.0	12	n/a	n/a	pyFR	0	TJ066
2394.098	1.6	4334608	WORD	n/a	wordpools/wordpool_EN.txt	BOAT	3.0	12	n/a	n/a	pyFR	0	TJ066
2396.652	1.6	4337162	WORD	n/a	wordpools/wordpool_EN.txt	BENCH	4.0	12	n/a	n/a	pyFR	0	TJ066
2399.373	1.6	4339883	WORD	n/a	wordpools/wordpool_EN.txt	SEAL	5.0	12	n/a	n/a	pyFR	0	TJ066
2402.01	1.6	4342520	WORD	n/a	wordpools/wordpool_EN.txt	KING	6.0	12	n/a	n/a	pyFR	0	TJ066
2404.465	1.6	4344975	WORD	n/a	wordpools/wordpool_EN.txt	SKY	7.0	12	n/a	n/a	pyFR	0	TJ066
2406.968	1.6	4347478	WORD	n/a	wordpools/wordpool_EN.txt	FOX	8.0	12	n/a	n/a	pyFR	0	TJ066
2409.473	1.6	4349983	WORD	n/a	wordpools/wordpool_EN.txt	SINK	9.0	12	n/a	n/a	pyFR	0	TJ066
2412.061	1.6	4352571	WORD	n/a	wordpools/wordpool_EN.txt	BROOM	10.0	12	n/a	n/a	pyFR	0	TJ066
2414.814	1.6	4355324	WORD	n/a	wordpools/wordpool_EN.txt	STAR	11.0	12	n/a	n/a	pyFR	0	TJ066
2417.37	1.6	4357880	WORD	n/a	wordpools/wordpool_EN.txt	CORN	12.0	12	n/a	n/a	pyFR	0	TJ066
2419.99	1.6	4360500	WORD	n/a	wordpools/wordpool_EN.txt	MILK	13.0	12	n/a	n/a	pyFR	0	TJ066
2422.728	1.6	4363238	WORD	n/a	wordpools/wordpool_EN.txt	MAT	14.0	12	n/a	n/a	pyFR	0	TJ066
2425.483	1.6	4365993	WORD	n/a	wordpools/wordpool_EN.txt	FACE	15.0	12	n/a	n/a	pyFR	0	TJ066
2427.103	1.201	4367613	START	n/a	n/a	n/a	n/a	12	[-999 -999 -999]	-999.0	pyFR	0	TJ066
2428.304	15.059	4368814	PROB	15.027	n/a	n/a	n/a	12	[7 8 7]	22.0	pyFR	0	TJ066
2443.363	5.494	4383873	PROB	5.494	n/a	n/a	n/a	12	[3 5 2]	10.0	pyFR	0	TJ066
2448.857	1.099	4389367	STOP	n/a	n/a	n/a	n/a	12	[-999 -999 -999]	-999.0	pyFR	0	TJ066
2449.956	2.92	4390466	REC_START	n/a	n/a	n/a	-999.0	12	n/a	n/a	pyFR	0	TJ066
2452.876	1.271	4393386	REC_WORD	2.92	n/a	MAT	-999.0	12	n/a	n/a	pyFR	0	TJ066
2454.147	3.883	4394657	REC_WORD_VV	4.191	n/a	<>	-999.0	12	n/a	n/a	pyFR	0	TJ066
2458.03	4.236	4398540	REC_WORD_VV	8.074	n/a	<>	-999.0	12	n/a	n/a	pyFR	0	TJ066
2462.266	0.466	4402776	REC_WORD_VV	12.31	n/a	<>	-999.0	12	n/a	n/a	pyFR	0	TJ066
2462.732	1.0	4403242	REC_WORD	12.776	n/a	ROSE	-999.0	12	n/a	n/a	pyFR	0	TJ066
2463.732	143.902	4404242	REC_WORD_VV	13.776	n/a	<>	-999.0	12	n/a	n/a	pyFR	0	TJ066
2607.634	0.016	4548143	TRIAL	n/a	n/a	n/a	-999.0	13	n/a	n/a	pyFR	0	TJ066
2607.65	1.6	4548159	ORIENT	n/a	n/a	n/a	-999.0	13	n/a	n/a	pyFR	0	TJ066
2610.555	1.6	4551064	WORD	n/a	wordpools/wordpool_EN.txt	FOOT	1.0	13	n/a	n/a	pyFR	0	TJ066
2613.36	1.6	4553869	WORD	n/a	wordpools/wordpool_EN.txt	FISH	2.0	13	n/a	n/a	pyFR	0	TJ066
2615.846	1.6	4556355	WORD	n/a	wordpools/wordpool_EN.txt	SMILE	3.0	13	n/a	n/a	pyFR	0	TJ066
2618.552	1.6	4559061	WORD	n/a	wordpools/wordpool_EN.txt	DITCH	4.0	13	n/a	n/a	pyFR	0	TJ066
2621.256	1.6	4561765	WORD	n/a	wordpools/wordpool_EN.txt	KEY	5.0	13	n/a	n/a	pyFR	0	TJ066
2623.809	1.6	4564318	WORD	n/a	wordpools/wordpool_EN.txt	RUG	6.0	13	n/a	n/a	pyFR	0	TJ066
2626.331	1.6	4566840	WORD	n/a	wordpools/wordpool_EN.txt	TRAIN	7.0	13	n/a	n/a	pyFR	0	TJ066
2629.052	1.6	4569561	WORD	n/a	wordpools/wordpool_EN.txt	BALL	8.0	13	n/a	n/a	pyFR	0	TJ066
2631.54	1.6	4572049	WORD	n/a	wordpools/wordpool_EN.txt	SHIP	9.0	13	n/a	n/a	pyFR	0	TJ066
2634.344	1.6	4574853	WORD	n/a	wordpools/wordpool_EN.txt	SLEEVE	10.0	13	n/a	n/a	pyFR	0	TJ066
2636.981	1.6	4577490	WORD	n/a	wordpools/wordpool_EN.txt	NEST	11.0	13	n/a	n/a	pyFR	0	TJ066
2639.702	1.6	4580211	WORD	n/a	wordpools/wordpool_EN.txt	CAVE	12.0	13	n/a	n/a	pyFR	0	TJ066
2642.291	1.6	4582800	WORD	n/a	wordpools/wordpool_EN.txt	PEAR	13.0	13	n/a	n/a	pyFR	0	TJ066
2645.045	1.6	4585554	WORD	n/a	wordpools/wordpool_EN.txt	FORT	14.0	13	n/a	n/a	pyFR	0	TJ066
2647.599	1.6	4588108	WORD	n/a	wordpools/wordpool_EN.txt	AXE	15.0	13	n/a	n/a	pyFR	0	TJ066
2649.22	1.117	4589729	START	n/a	n/a	n/a	n/a	13	[-999 -999 -999]	-999.0	pyFR	0	TJ066
2650.337	5.793	4590846	PROB	5.763	n/a	n/a	n/a	13	[7 4 1]	12.0	pyFR	0	TJ066
2656.13	5.692	4596639	PROB	5.657	n/a	n/a	n/a	13	[2 6 5]	15.0	pyFR	0	TJ066
2661.822	6.595	4602331	PROB	6.558	n/a	n/a	n/a	13	[3 1 8]	12.0	pyFR	0	TJ066
2668.417	7.297	4608926	PROB	7.297	n/a	n/a	n/a	13	[9 1 6]	16.0	pyFR	0	TJ066
2675.714	1.183	4616223	STOP	n/a	n/a	n/a	n/a	13	[-999 -999 -999]	-999.0	pyFR	0	TJ066
2676.897	3.204	4617406	REC_START	n/a	n/a	n/a	-999.0	13	n/a	n/a	pyFR	0	TJ066
2680.101	4.654	4620610	REC_WORD	3.204	n/a	SMILE	-999.0	13	n/a	n/a	pyFR	0	TJ066
2684.755	12.384	4625264	REC_WORD_VV	7.858	n/a	<>	-999.0	13	n/a	n/a	pyFR	0	TJ066
2697.139	64.215	4637648	REC_WORD	20.242	n/a	FOOT	-999.0	13	n/a	n/a	pyFR	0	TJ066
2761.354	0.017	4701863	TRIAL	n/a	n/a	n/a	-999.0	14	n/a	n/a	pyFR	0	TJ066
2761.371	1.6	4701880	ORIENT	n/a	n/a	n/a	-999.0	14	n/a	n/a	pyFR	0	TJ066
2764.024	1.6	4704533	WORD	n/a	wordpools/wordpool_EN.txt	BEAK	1.0	14	n/a	n/a	pyFR	0	TJ066
2766.562	1.6	4707071	WORD	n/a	wordpools/wordpool_EN.txt	DRESS	2.0	14	n/a	n/a	pyFR	0	TJ066
2769.217	1.6	4709726	WORD	n/a	wordpools/wordpool_EN.txt	HAND	3.0	14	n/a	n/a	pyFR	0	TJ066
2771.887	1.6	4712396	WORD	n/a	wordpools/wordpool_EN.txt	FARM	4.0	14	n/a	n/a	pyFR	0	TJ066
2774.576	1.6	4715085	WORD	n/a	wordpools/wordpool_EN.txt	HOOF	5.0	14	n/a	n/a	pyFR	0	TJ066
2777.063	1.6	4717572	WORD	n/a	wordpools/wordpool_EN.txt	EAR	6.0	14	n/a	n/a	pyFR	0	TJ066
2779.5	1.6	4720009	WORD	n/a	wordpools/wordpool_EN.txt	DOLL	7.0	14	n/a	n/a	pyFR	0	TJ066
2782.172	1.6	4722681	WORD	n/a	wordpools/wordpool_EN.txt	EGG	8.0	14	n/a	n/a	pyFR	0	TJ066
2784.758	1.6	4725267	WORD	n/a	wordpools/wordpool_EN.txt	POLE	9.0	14	n/a	n/a	pyFR	0	TJ066
2787.28	1.6	4727789	WORD	n/a	wordpools/wordpool_EN.txt	CROWN	10.0	14	n/a	n/a	pyFR	0	TJ066
2789.933	1.6	4730442	WORD	n/a	wordpools/wordpool_EN.txt	POOL	11.0	14	n/a	n/a	pyFR	0	TJ066
2792.522	1.6	4733031	WORD	n/a	wordpools/wordpool_EN.txt	MULE	12.0	14	n/a	n/a	pyFR	0	TJ066
2795.11	1.6	4735619	WORD	n/a	wordpools/wordpool_EN.txt	ELF	13.0	14	n/a	n/a	pyFR	0	TJ066
2797.796	1.6	4738304	WORD	n/a	wordpools/wordpool_EN.txt	CROW	14.0	14	n/a	n/a	pyFR	0	TJ066
2800.602	1.6	4741110	WORD	n/a	wordpools/wordpool_EN.txt	BARN	15.0	14	n/a	n/a	pyFR	0	TJ066
2802.222	1.068	4742730	START	n/a	n/a	n/a	n/a	14	[-999 -999 -999]	-999.0	pyFR	0	TJ066
2803.29	7.561	4743798	PROB	7.532	n/a	n/a	n/a	14	[6 8 3]	17.0	pyFR	0	TJ066
2810.851	12.556	4751359	PROB	12.556	n/a	n/a	n/a	14	[8 7 5]	20.0	pyFR	0	TJ066
2823.407	1.135	4763915	STOP	n/a	n/a	n/a	n/a	14	[-999 -999 -999]	-999.0	pyFR	0	TJ066
2824.542	3.347	4765050	REC_START	n/a	n/a	n/a	-999.0	14	n/a	n/a	pyFR	0	TJ066
2827.889	2.087	4768397	REC_WORD_VV	3.347	n/a	<>	-999.0	14	n/a	n/a	pyFR	0	TJ066
2829.976	0.662	4770484	REC_WORD	5.434	n/a	EGG	-999.0	14	n/a	n/a	pyFR	0	TJ066
2830.638	8.861	4771146	REC_WORD	6.096	n/a	MULE	-999.0	14	n/a	n/a	pyFR	0	TJ066
2839.499	10.582	4780007	REC_WORD	14.957	n/a	DOLL	-999.0	14	n/a	n/a	pyFR	0	TJ066
2850.081	30.203	4790589	REC_WORD	25.539	n/a	POOL	-999.0	14	n/a	n/a	pyFR	0	TJ066
2880.284	0.016	4820792	TRIAL	n/a	n/a	n/a	-999.0	15	n/a	n/a	pyFR	0	TJ066
2880.3	1.6	4820808	ORIENT	n/a	n/a	n/a	-999.0	15	n/a	n/a	pyFR	0	TJ066
2883.155	1.6	4823663	WORD	n/a	wordpools/wordpool_EN.txt	LEG	1.0	15	n/a	n/a	pyFR	0	TJ066
2885.792	1.6	4826300	WORD	n/a	wordpools/wordpool_EN.txt	TOAD	2.0	15	n/a	n/a	pyFR	0	TJ066
2888.247	1.6	4828755	WORD	n/a	wordpools/wordpool_EN.txt	LAKE	3.0	15	n/a	n/a	pyFR	0	TJ066
2891.034	1.6	4831542	WORD	n/a	wordpools/wordpool_EN.txt	WEED	4.0	15	n/a	n/a	pyFR	0	TJ066
2893.606	1.6	4834114	WORD	n/a	wordpools/wordpool_EN.txt	SQUARE	5.0	15	n/a	n/a	pyFR	0	TJ066
2896.293	1.6	4836801	WORD	n/a	wordpools/wordpool_EN.txt	STICK	6.0	15	n/a	n/a	pyFR	0	TJ066
2898.897	1.6	4839405	WORD	n/a	wordpools/wordpool_EN.txt	DART	7.0	15	n/a	n/a	pyFR	0	TJ066
2901.552	1.6	4842060	WORD	n/a	wordpools/wordpool_EN.txt	ICE	8.0	15	n/a	n/a	pyFR	0	TJ066
2904.373	1.6	4844881	WORD	n/a	wordpools/wordpool_EN.txt	STREET	9.0	15	n/a	n/a	pyFR	0	TJ066
2907.094	1.6	4847602	WORD	n/a	wordpools/wordpool_EN.txt	DOCK	10.0	15	n/a	n/a	pyFR	0	TJ066
2909.665	1.6	4850173	WORD	n/a	wordpools/wordpool_EN.txt	CLIFF	11.0	15	n/a	n/a	pyFR	0	TJ066
2912.303	1.6	4852811	WORD	n/a	wordpools/wordpool_EN.txt	BOWL	12.0	15	n/a	n/a	pyFR	0	TJ066
2914.823	1.6	4855331	WORD	n/a	wordpools/wordpool_EN.txt	ARK	13.0	15	n/a	n/a	pyFR	0	TJ066
2917.378	1.6	4857886	WORD	n/a	wordpools/wordpool_EN.txt	RAT	14.0	15	n/a	n/a	pyFR	0	TJ066
2919.848	1.6	4860356	WORD	n/a	wordpools/wordpool_EN.txt	HOSE	15.0	15	n/a	n/a	pyFR	0	TJ066
2921.452	0.918	4861960	START	n/a	n/a	n/a	n/a	15	[-999 -999 -999]	-999.0	pyFR	0	TJ066
2922.37	8.563	4862878	PROB	8.536	n/a	n/a	n/a	15	[4 6 9]	19.0	pyFR	0	TJ066
2930.933	3.973	4871441	PROB	3.941	n/a	n/a	n/a	15	[1 1 8]	10.0	pyFR	0	TJ066
2934.906	4.608	4875414	PROB	4.577	n/a	n/a	n/a	15	[2 8 7]	17.0	pyFR	0	TJ066
2939.514	4.912	4880022	PROB	4.912	n/a	n/a	n/a	15	[2 6 8]	16.0	pyFR	0	TJ066
2944.426	1.066	4884934	STOP	n/a	n/a	n/a	n/a	15	[-999 -999 -999]	-999.0	pyFR	0	TJ066
2945.492	2.443	4886000	REC_START	n/a	n/a	n/a	-999.0	15	n/a	n/a	pyFR	0	TJ066
2947.935	0.365	4888443	REC_WORD_VV	2.443	n/a	<>	-999.0	15	n/a	n/a	pyFR	0	TJ066
2948.3	0.819	4888808	REC_WORD	2.808	n/a	ARK	-999.0	15	n/a	n/a	pyFR	0	TJ066
2949.119	54.818	4889627	REC_WORD	3.627	n/a	RAT	-999.0	15	n/a	n/a	pyFR	0	TJ066
3003.937	0.016	4944445	TRIAL	n/a	n/a	n/a	-999.0	16	n/a	n/a	pyFR	0	TJ066
3003.953	1.6	4944461	ORIENT	n/a	n/a	n/a	-999.0	16	n/a	n/a	pyFR	0	TJ066
3006.841	1.6	4947349	WORD	n/a	wordpools/wordpool_EN.txt	SEA	1.0	16	n/a	n/a	pyFR	0	TJ066
3009.647	1.6	4950155	WORD	n/a	wordpools/wordpool_EN.txt	BOOK	2.0	16	n/a	n/a	pyFR	0	TJ066
3012.385	1.6	4952893	WORD	n/a	wordpools/wordpool_EN.txt	WAND	3.0	16	n/a	n/a	pyFR	0	TJ066
3015.056	1.6	4955564	WORD	n/a	wordpools/wordpool_EN.txt	POND	4.0	16	n/a	n/a	pyFR	0	TJ066
3017.577	1.6	4958085	WORD	n/a	wordpools/wordpool_EN.txt	PIE	5.0	16	n/a	n/a	pyFR	0	TJ066
3020.331	1.6	4960839	WORD	n/a	wordpools/wordpool_EN.txt	ROCK	6.0	16	n/a	n/a	pyFR	0	TJ066
3022.884	1.6	4963392	WORD	n/a	wordpools/wordpool_EN.txt	CALF	7.0	16	n/a	n/a	pyFR	0	TJ066
3025.323	1.6	4965831	WORD	n/a	wordpools/wordpool_EN.txt	MOUSE	8.0	16	n/a	n/a	pyFR	0	TJ066
3028.144	1.6	4968652	WORD	n/a	wordpools/wordpool_EN.txt	OWL	9.0	16	n/a	n/a	pyFR	0	TJ066
3030.898	1.6	4971406	WORD	n/a	wordpools/wordpool_EN.txt	BLOOM	10.0	16	n/a	n/a	pyFR	0	TJ066
3033.419	1.6	4973927	WORD	n/a	wordpools/wordpool_EN.txt	ARM	11.0	16	n/a	n/a	pyFR	0	TJ066
3035.889	1.6	4976397	WORD	n/a	wordpools/wordpool_EN.txt	BATH	12.0	16	n/a	n/a	pyFR	0	TJ066
3038.611	1.6	4979119	WORD	n/a	wordpools/wordpool_EN.txt	FLAME	13.0	16	n/a	n/a	pyFR	0	TJ066
3041.333	1.6	4981841	WORD	n/a	wordpools/wordpool_EN.txt	WOLF	14.0	16	n/a	n/a	pyFR	0	TJ066
3044.036	1.6	4984544	WORD	n/a	wordpools/wordpool_EN.txt	FLUTE	15.0	16	n/a	n/a	pyFR	0	TJ066
3045.641	1.183	4986149	START	n/a	n/a	n/a	n/a	16	[-999 -999 -999]	-999.0	pyFR	0	TJ066
3046.824	5.293	4987332	PROB	5.263	n/a	n/a	n/a	16	[1 5 9]	15.0	pyFR	0	TJ066
3052.117	6.377	4992625	PROB	6.346	n/a	n/a	n/a	16	[4 8 8]	20.0	pyFR	0	TJ066
3058.494	7.079	4999002	PROB	7.049	n/a	n/a	n/a	16	[3 6 8]	17.0	pyFR	0	TJ066
3065.573	5.145	5006080	PROB	5.145	n/a	n/a	n/a	16	[7 1 7]	15.0	pyFR	0	TJ066
3070.718	1.131	5011225	STOP	n/a	n/a	n/a	n/a	16	[-999 -999 -999]	-999.0	pyFR	0	TJ066
3071.849	2.982	5012356	REC_START	n/a	n/a	n/a	-999.0	16	n/a	n/a	pyFR	0	TJ066
3074.831	1.563	5015338	REC_WORD	2.982	n/a	FLAME	-999.0	16	n/a	n/a	pyFR	0	TJ066
3076.394	562.877	5016901	REC_WORD	4.545	n/a	WOLF	-999.0	16	n/a	n/a	pyFR	0	TJ066
3639.271	0.073	5579776	SESS_END	n/a	n/a	n/a	-999.0	16	n/a	n/a	pyFR	0	TJ066
3639.344	0.0	5579849	E	n/a	n/a	n/a	-999.0	16	n/a	n/a	pyFR	0	TJ066
