onset	duration	sample	trial_type	response_time	stim_file	item_name	serialpos	list	test	answer	experiment	session	subject
0.0	0.0	1940519	SESS_START	n/a	n/a	n/a	-999	-999	n/a	n/a	pyFR	0	TJ066
0.0	108.452	1940519	B	n/a	n/a	n/a	-999	-999	n/a	n/a	pyFR	0	TJ066
108.452	0.024	2048971	START	n/a	n/a	n/a	n/a	0	[-999 -999 -999]	-999	pyFR	0	TJ066
108.476	25.175	2048995	PROB	n/a	n/a	n/a	n/a	0	[6 6 8]	20	pyFR	0	TJ066
133.651	6.41	2074170	PROB	n/a	n/a	n/a	n/a	0	[5 2 1]	8	pyFR	0	TJ066
140.061	81.419	2080580	STOP	n/a	n/a	n/a	n/a	0	[-999 -999 -999]	-999	pyFR	0	TJ066
221.48	0.016	2161998	TRIAL	n/a	n/a	n/a	-999	1	n/a	n/a	pyFR	0	TJ066
221.496	2.855	2162014	ORIENT	n/a	n/a	n/a	-999	1	n/a	n/a	pyFR	0	TJ066
224.351	2.804	2164869	WORD	n/a	wordpools/wordpool_EN.txt	PEARL	1	1	n/a	n/a	pyFR	0	TJ066
227.155	2.554	2167673	WORD	n/a	wordpools/wordpool_EN.txt	SHELL	2	1	n/a	n/a	pyFR	0	TJ066
229.709	2.755	2170227	WORD	n/a	wordpools/wordpool_EN.txt	BOARD	3	1	n/a	n/a	pyFR	0	TJ066
232.464	2.553	2172982	WORD	n/a	wordpools/wordpool_EN.txt	SOCK	4	1	n/a	n/a	pyFR	0	TJ066
235.017	2.639	2175535	WORD	n/a	wordpools/wordpool_EN.txt	CLOCK	5	1	n/a	n/a	pyFR	0	TJ066
237.656	2.454	2178174	WORD	n/a	wordpools/wordpool_EN.txt	BIRD	6	1	n/a	n/a	pyFR	0	TJ066
240.11	2.654	2180628	WORD	n/a	wordpools/wordpool_EN.txt	CAKE	7	1	n/a	n/a	pyFR	0	TJ066
242.764	2.655	2183282	WORD	n/a	wordpools/wordpool_EN.txt	TOOTH	8	1	n/a	n/a	pyFR	0	TJ066
245.419	2.587	2185937	WORD	n/a	wordpools/wordpool_EN.txt	STORE	9	1	n/a	n/a	pyFR	0	TJ066
248.006	2.787	2188524	WORD	n/a	wordpools/wordpool_EN.txt	JUICE	10	1	n/a	n/a	pyFR	0	TJ066
250.793	2.589	2191311	WORD	n/a	wordpools/wordpool_EN.txt	LOCK	11	1	n/a	n/a	pyFR	0	TJ066
253.382	2.688	2193900	WORD	n/a	wordpools/wordpool_EN.txt	WALL	12	1	n/a	n/a	pyFR	0	TJ066
256.07	2.737	2196588	WORD	n/a	wordpools/wordpool_EN.txt	VASE	13	1	n/a	n/a	pyFR	0	TJ066
258.807	2.622	2199325	WORD	n/a	wordpools/wordpool_EN.txt	MAP	14	1	n/a	n/a	pyFR	0	TJ066
261.429	1.62	2201947	WORD	n/a	wordpools/wordpool_EN.txt	NAIL	15	1	n/a	n/a	pyFR	0	TJ066
263.049	0.966	2203567	START	n/a	n/a	n/a	n/a	1	[-999 -999 -999]	-999	pyFR	0	TJ066
264.015	7.597	2204533	PROB	n/a	n/a	n/a	n/a	1	[5 5 5]	15	pyFR	0	TJ066
271.612	3.656	2212130	PROB	n/a	n/a	n/a	n/a	1	[9 1 1]	11	pyFR	0	TJ066
275.268	3.94	2215786	PROB	n/a	n/a	n/a	n/a	1	[1 7 2]	10	pyFR	0	TJ066
279.208	5.305	2219726	PROB	n/a	n/a	n/a	n/a	1	[5 4 9]	18	pyFR	0	TJ066
284.513	1.123	2225031	STOP	n/a	n/a	n/a	n/a	1	[-999 -999 -999]	-999	pyFR	0	TJ066
285.636	2.657	2226154	REC_START	n/a	n/a	n/a	-999	1	n/a	n/a	pyFR	0	TJ066
288.293	0.644	2228811	REC_WORD	0.644	n/a	SHELL	-999	1	n/a	n/a	pyFR	0	TJ066
288.937	0.521	2229455	REC_WORD	0.521	n/a	PEARL	-999	1	n/a	n/a	pyFR	0	TJ066
289.458	0.535	2229976	REC_WORD	0.535	n/a	CLOCK	-999	1	n/a	n/a	pyFR	0	TJ066
289.993	1.568	2230511	REC_WORD	1.568	n/a	WALL	-999	1	n/a	n/a	pyFR	0	TJ066
291.561	42.989	2232079	REC_WORD	42.989	n/a	SOCK	-999	1	n/a	n/a	pyFR	0	TJ066
334.55	0.016	2275068	TRIAL	n/a	n/a	n/a	-999	2	n/a	n/a	pyFR	0	TJ066
334.566	2.638	2275084	ORIENT	n/a	n/a	n/a	-999	2	n/a	n/a	pyFR	0	TJ066
337.204	2.636	2277722	WORD	n/a	wordpools/wordpool_EN.txt	CAT	1	2	n/a	n/a	pyFR	0	TJ066
339.84	2.739	2280358	WORD	n/a	wordpools/wordpool_EN.txt	DEER	2	2	n/a	n/a	pyFR	0	TJ066
342.579	2.638	2283097	WORD	n/a	wordpools/wordpool_EN.txt	SLIME	3	2	n/a	n/a	pyFR	0	TJ066
345.217	2.52	2285735	WORD	n/a	wordpools/wordpool_EN.txt	FRUIT	4	2	n/a	n/a	pyFR	0	TJ066
347.737	2.622	2288255	WORD	n/a	wordpools/wordpool_EN.txt	TEA	5	2	n/a	n/a	pyFR	0	TJ066
350.359	2.688	2290877	WORD	n/a	wordpools/wordpool_EN.txt	SOUP	6	2	n/a	n/a	pyFR	0	TJ066
353.047	2.787	2293565	WORD	n/a	wordpools/wordpool_EN.txt	CHEEK	7	2	n/a	n/a	pyFR	0	TJ066
355.834	2.488	2296352	WORD	n/a	wordpools/wordpool_EN.txt	STOOL	8	2	n/a	n/a	pyFR	0	TJ066
358.322	2.653	2298840	WORD	n/a	wordpools/wordpool_EN.txt	FUDGE	9	2	n/a	n/a	pyFR	0	TJ066
360.975	2.539	2301493	WORD	n/a	wordpools/wordpool_EN.txt	SUN	10	2	n/a	n/a	pyFR	0	TJ066
363.514	2.654	2304032	WORD	n/a	wordpools/wordpool_EN.txt	FOOD	11	2	n/a	n/a	pyFR	0	TJ066
366.168	2.804	2306686	WORD	n/a	wordpools/wordpool_EN.txt	GRAPE	12	2	n/a	n/a	pyFR	0	TJ066
368.972	2.455	2309490	WORD	n/a	wordpools/wordpool_EN.txt	SPONGE	13	2	n/a	n/a	pyFR	0	TJ066
371.427	2.754	2311945	WORD	n/a	wordpools/wordpool_EN.txt	CLAY	14	2	n/a	n/a	pyFR	0	TJ066
374.181	1.62	2314699	WORD	n/a	wordpools/wordpool_EN.txt	NOSE	15	2	n/a	n/a	pyFR	0	TJ066
375.801	0.95	2316319	START	n/a	n/a	n/a	n/a	2	[-999 -999 -999]	-999	pyFR	0	TJ066
376.751	6.027	2317269	PROB	n/a	n/a	n/a	n/a	2	[5 3 2]	10	pyFR	0	TJ066
382.778	8.298	2323296	PROB	n/a	n/a	n/a	n/a	2	[4 6 3]	13	pyFR	0	TJ066
391.076	3.672	2331594	PROB	n/a	n/a	n/a	n/a	2	[1 1 8]	10	pyFR	0	TJ066
394.748	4.449	2335266	PROB	n/a	n/a	n/a	n/a	2	[6 4 8]	18	pyFR	0	TJ066
399.197	1.211	2339715	STOP	n/a	n/a	n/a	n/a	2	[-999 -999 -999]	-999	pyFR	0	TJ066
400.408	3.167	2340926	REC_START	n/a	n/a	n/a	-999	2	n/a	n/a	pyFR	0	TJ066
403.575	2.391	2344093	REC_WORD_VV	2.391	n/a	<>	-999	2	n/a	n/a	pyFR	0	TJ066
405.966	0.889	2346484	REC_WORD	0.889	n/a	SLUDGE	-999	2	n/a	n/a	pyFR	0	TJ066
406.855	6.02	2347373	REC_WORD	6.02	n/a	CHEEK	-999	2	n/a	n/a	pyFR	0	TJ066
412.875	57.064	2353393	REC_WORD	57.064	n/a	DEER	-999	2	n/a	n/a	pyFR	0	TJ066
469.939	0.016	2410456	TRIAL	n/a	n/a	n/a	-999	3	n/a	n/a	pyFR	0	TJ066
469.955	2.972	2410472	ORIENT	n/a	n/a	n/a	-999	3	n/a	n/a	pyFR	0	TJ066
472.927	2.605	2413444	WORD	n/a	wordpools/wordpool_EN.txt	KITE	1	3	n/a	n/a	pyFR	0	TJ066
475.532	2.47	2416049	WORD	n/a	wordpools/wordpool_EN.txt	JAR	2	3	n/a	n/a	pyFR	0	TJ066
478.002	2.688	2418519	WORD	n/a	wordpools/wordpool_EN.txt	SPRING	3	3	n/a	n/a	pyFR	0	TJ066
480.69	2.738	2421207	WORD	n/a	wordpools/wordpool_EN.txt	SKI	4	3	n/a	n/a	pyFR	0	TJ066
483.428	2.705	2423945	WORD	n/a	wordpools/wordpool_EN.txt	PHONE	5	3	n/a	n/a	pyFR	0	TJ066
486.133	2.688	2426650	WORD	n/a	wordpools/wordpool_EN.txt	HORN	6	3	n/a	n/a	pyFR	0	TJ066
488.821	2.504	2429338	WORD	n/a	wordpools/wordpool_EN.txt	TRASH	7	3	n/a	n/a	pyFR	0	TJ066
491.325	2.788	2431842	WORD	n/a	wordpools/wordpool_EN.txt	DUCK	8	3	n/a	n/a	pyFR	0	TJ066
494.113	2.77	2434630	WORD	n/a	wordpools/wordpool_EN.txt	CHIN	9	3	n/a	n/a	pyFR	0	TJ066
496.883	2.572	2437400	WORD	n/a	wordpools/wordpool_EN.txt	SWAMP	10	3	n/a	n/a	pyFR	0	TJ066
499.455	2.553	2439972	WORD	n/a	wordpools/wordpool_EN.txt	PEA	11	3	n/a	n/a	pyFR	0	TJ066
502.008	2.672	2442525	WORD	n/a	wordpools/wordpool_EN.txt	BEE	12	3	n/a	n/a	pyFR	0	TJ066
504.68	2.471	2445197	WORD	n/a	wordpools/wordpool_EN.txt	PEN	13	3	n/a	n/a	pyFR	0	TJ066
507.151	2.487	2447668	WORD	n/a	wordpools/wordpool_EN.txt	BED	14	3	n/a	n/a	pyFR	0	TJ066
509.638	1.621	2450155	WORD	n/a	wordpools/wordpool_EN.txt	LAWN	15	3	n/a	n/a	pyFR	0	TJ066
511.259	1.001	2451776	START	n/a	n/a	n/a	n/a	3	[-999 -999 -999]	-999	pyFR	0	TJ066
512.26	9.215	2452777	PROB	n/a	n/a	n/a	n/a	3	[7 3 2]	12	pyFR	0	TJ066
521.475	14.42	2461992	PROB	n/a	n/a	n/a	n/a	3	[7 9 7]	23	pyFR	0	TJ066
535.895	1.071	2476412	STOP	n/a	n/a	n/a	n/a	3	[-999 -999 -999]	-999	pyFR	0	TJ066
536.966	14.556	2477483	REC_START	n/a	n/a	n/a	-999	3	n/a	n/a	pyFR	0	TJ066
551.522	119.016	2492039	REC_WORD	119.016	n/a	LAWN	-999	3	n/a	n/a	pyFR	0	TJ066
670.538	0.016	2611055	TRIAL	n/a	n/a	n/a	-999	4	n/a	n/a	pyFR	0	TJ066
670.554	2.671	2611071	ORIENT	n/a	n/a	n/a	-999	4	n/a	n/a	pyFR	0	TJ066
673.225	2.587	2613742	WORD	n/a	wordpools/wordpool_EN.txt	FLOOR	1	4	n/a	n/a	pyFR	0	TJ066
675.812	2.555	2616329	WORD	n/a	wordpools/wordpool_EN.txt	COIN	2	4	n/a	n/a	pyFR	0	TJ066
678.367	2.553	2618884	WORD	n/a	wordpools/wordpool_EN.txt	WING	3	4	n/a	n/a	pyFR	0	TJ066
680.92	2.455	2621437	WORD	n/a	wordpools/wordpool_EN.txt	CASH	4	4	n/a	n/a	pyFR	0	TJ066
683.375	2.721	2623892	WORD	n/a	wordpools/wordpool_EN.txt	HOLE	5	4	n/a	n/a	pyFR	0	TJ066
686.096	2.704	2626613	WORD	n/a	wordpools/wordpool_EN.txt	JAIL	6	4	n/a	n/a	pyFR	0	TJ066
688.8	2.605	2629317	WORD	n/a	wordpools/wordpool_EN.txt	DESK	7	4	n/a	n/a	pyFR	0	TJ066
691.405	2.738	2631921	WORD	n/a	wordpools/wordpool_EN.txt	CANE	8	4	n/a	n/a	pyFR	0	TJ066
694.143	2.636	2634659	WORD	n/a	wordpools/wordpool_EN.txt	PURSE	9	4	n/a	n/a	pyFR	0	TJ066
696.779	2.506	2637295	WORD	n/a	wordpools/wordpool_EN.txt	MOON	10	4	n/a	n/a	pyFR	0	TJ066
699.285	2.72	2639801	WORD	n/a	wordpools/wordpool_EN.txt	BELL	11	4	n/a	n/a	pyFR	0	TJ066
702.005	2.788	2642521	WORD	n/a	wordpools/wordpool_EN.txt	CORD	12	4	n/a	n/a	pyFR	0	TJ066
704.793	2.505	2645309	WORD	n/a	wordpools/wordpool_EN.txt	GIRL	13	4	n/a	n/a	pyFR	0	TJ066
707.298	2.72	2647814	WORD	n/a	wordpools/wordpool_EN.txt	SNAIL	14	4	n/a	n/a	pyFR	0	TJ066
710.018	1.621	2650534	WORD	n/a	wordpools/wordpool_EN.txt	SAIL	15	4	n/a	n/a	pyFR	0	TJ066
711.639	0.884	2652155	START	n/a	n/a	n/a	n/a	4	[-999 -999 -999]	-999	pyFR	0	TJ066
712.523	9.181	2653039	PROB	n/a	n/a	n/a	n/a	4	[6 7 5]	18	pyFR	0	TJ066
721.704	6.495	2662220	PROB	n/a	n/a	n/a	n/a	4	[9 2 2]	13	pyFR	0	TJ066
728.199	8.987	2668715	PROB	n/a	n/a	n/a	n/a	4	[9 5 8]	22	pyFR	0	TJ066
737.186	1.18	2677702	STOP	n/a	n/a	n/a	n/a	4	[-999 -999 -999]	-999	pyFR	0	TJ066
738.366	2.273	2678882	REC_START	n/a	n/a	n/a	-999	4	n/a	n/a	pyFR	0	TJ066
740.639	0.441	2681155	REC_WORD	0.441	n/a	BELL	-999	4	n/a	n/a	pyFR	0	TJ066
741.08	1.183	2681596	REC_WORD	1.183	n/a	FLOOR	-999	4	n/a	n/a	pyFR	0	TJ066
742.263	1.221	2682779	REC_WORD	1.221	n/a	GIRL	-999	4	n/a	n/a	pyFR	0	TJ066
743.484	12.77	2684000	REC_WORD	12.77	n/a	MOON	-999	4	n/a	n/a	pyFR	0	TJ066
756.254	38.721	2696770	REC_WORD	38.721	n/a	SNAIL	-999	4	n/a	n/a	pyFR	0	TJ066
794.975	0.016	2735491	TRIAL	n/a	n/a	n/a	-999	5	n/a	n/a	pyFR	0	TJ066
794.991	2.673	2735507	ORIENT	n/a	n/a	n/a	-999	5	n/a	n/a	pyFR	0	TJ066
797.664	2.454	2738180	WORD	n/a	wordpools/wordpool_EN.txt	DOOR	1	5	n/a	n/a	pyFR	0	TJ066
800.118	2.47	2740634	WORD	n/a	wordpools/wordpool_EN.txt	GOAT	2	5	n/a	n/a	pyFR	0	TJ066
802.588	2.772	2743104	WORD	n/a	wordpools/wordpool_EN.txt	WHEEL	3	5	n/a	n/a	pyFR	0	TJ066
805.36	2.821	2745876	WORD	n/a	wordpools/wordpool_EN.txt	SHEEP	4	5	n/a	n/a	pyFR	0	TJ066
808.181	2.804	2748697	WORD	n/a	wordpools/wordpool_EN.txt	PALM	5	5	n/a	n/a	pyFR	0	TJ066
810.985	2.655	2751501	WORD	n/a	wordpools/wordpool_EN.txt	FOG	6	5	n/a	n/a	pyFR	0	TJ066
813.64	2.771	2754156	WORD	n/a	wordpools/wordpool_EN.txt	BEACH	7	5	n/a	n/a	pyFR	0	TJ066
816.411	2.755	2756927	WORD	n/a	wordpools/wordpool_EN.txt	ROAD	8	5	n/a	n/a	pyFR	0	TJ066
819.166	2.519	2759682	WORD	n/a	wordpools/wordpool_EN.txt	COW	9	5	n/a	n/a	pyFR	0	TJ066
821.685	2.756	2762201	WORD	n/a	wordpools/wordpool_EN.txt	HOUSE	10	5	n/a	n/a	pyFR	0	TJ066
824.441	2.721	2764957	WORD	n/a	wordpools/wordpool_EN.txt	PRINCE	11	5	n/a	n/a	pyFR	0	TJ066
827.162	2.621	2767678	WORD	n/a	wordpools/wordpool_EN.txt	LAMP	12	5	n/a	n/a	pyFR	0	TJ066
829.783	2.738	2770299	WORD	n/a	wordpools/wordpool_EN.txt	SWORD	13	5	n/a	n/a	pyFR	0	TJ066
832.521	2.588	2773037	WORD	n/a	wordpools/wordpool_EN.txt	STRAW	14	5	n/a	n/a	pyFR	0	TJ066
835.109	1.619	2775625	WORD	n/a	wordpools/wordpool_EN.txt	TAIL	15	5	n/a	n/a	pyFR	0	TJ066
836.728	0.901	2777244	START	n/a	n/a	n/a	n/a	5	[-999 -999 -999]	-999	pyFR	0	TJ066
837.629	7.228	2778145	PROB	n/a	n/a	n/a	n/a	5	[4 2 5]	11	pyFR	0	TJ066
844.857	8.532	2785373	PROB	n/a	n/a	n/a	n/a	5	[4 1 8]	13	pyFR	0	TJ066
853.389	3.088	2793905	PROB	n/a	n/a	n/a	n/a	5	[3 3 3]	9	pyFR	0	TJ066
856.477	4.121	2796993	PROB	n/a	n/a	n/a	n/a	5	[1 4 2]	7	pyFR	0	TJ066
860.598	1.204	2801114	STOP	n/a	n/a	n/a	n/a	5	[-999 -999 -999]	-999	pyFR	0	TJ066
861.802	5.175	2802318	REC_START	n/a	n/a	n/a	-999	5	n/a	n/a	pyFR	0	TJ066
866.977	1.251	2807493	REC_WORD	1.251	n/a	GOAT	-999	5	n/a	n/a	pyFR	0	TJ066
868.228	29.828	2808744	REC_WORD	29.828	n/a	SHEEP	-999	5	n/a	n/a	pyFR	0	TJ066
898.056	92.41	2838572	REC_WORD	92.41	n/a	HOUSE	-999	5	n/a	n/a	pyFR	0	TJ066
990.466	0.016	2930981	TRIAL	n/a	n/a	n/a	-999	6	n/a	n/a	pyFR	0	TJ066
990.482	2.904	2930997	ORIENT	n/a	n/a	n/a	-999	6	n/a	n/a	pyFR	0	TJ066
993.386	2.705	2933901	WORD	n/a	wordpools/wordpool_EN.txt	MAZE	1	6	n/a	n/a	pyFR	0	TJ066
996.091	2.603	2936606	WORD	n/a	wordpools/wordpool_EN.txt	SEED	2	6	n/a	n/a	pyFR	0	TJ066
998.694	2.505	2939209	WORD	n/a	wordpools/wordpool_EN.txt	PANTS	3	6	n/a	n/a	pyFR	0	TJ066
1001.199	2.503	2941714	WORD	n/a	wordpools/wordpool_EN.txt	SMOKE	4	6	n/a	n/a	pyFR	0	TJ066
1003.702	2.623	2944217	WORD	n/a	wordpools/wordpool_EN.txt	MUG	5	6	n/a	n/a	pyFR	0	TJ066
1006.325	2.486	2946840	WORD	n/a	wordpools/wordpool_EN.txt	OAK	6	6	n/a	n/a	pyFR	0	TJ066
1008.811	2.422	2949326	WORD	n/a	wordpools/wordpool_EN.txt	SCHOOL	7	6	n/a	n/a	pyFR	0	TJ066
1011.233	2.72	2951748	WORD	n/a	wordpools/wordpool_EN.txt	CLOWN	8	6	n/a	n/a	pyFR	0	TJ066
1013.953	2.771	2954468	WORD	n/a	wordpools/wordpool_EN.txt	WORM	9	6	n/a	n/a	pyFR	0	TJ066
1016.724	2.672	2957239	WORD	n/a	wordpools/wordpool_EN.txt	FLAG	10	6	n/a	n/a	pyFR	0	TJ066
1019.396	2.671	2959911	WORD	n/a	wordpools/wordpool_EN.txt	STEAK	11	6	n/a	n/a	pyFR	0	TJ066
1022.067	2.77	2962582	WORD	n/a	wordpools/wordpool_EN.txt	SHIRT	12	6	n/a	n/a	pyFR	0	TJ066
1024.837	2.54	2965352	WORD	n/a	wordpools/wordpool_EN.txt	SHEET	13	6	n/a	n/a	pyFR	0	TJ066
1027.377	2.787	2967892	WORD	n/a	wordpools/wordpool_EN.txt	COAT	14	6	n/a	n/a	pyFR	0	TJ066
1030.164	1.619	2970679	WORD	n/a	wordpools/wordpool_EN.txt	JUDGE	15	6	n/a	n/a	pyFR	0	TJ066
1031.783	1.051	2972298	START	n/a	n/a	n/a	n/a	6	[-999 -999 -999]	-999	pyFR	0	TJ066
1032.834	9.933	2973349	PROB	n/a	n/a	n/a	n/a	6	[5 7 7]	19	pyFR	0	TJ066
1042.767	4.558	2983282	PROB	n/a	n/a	n/a	n/a	6	[1 9 2]	12	pyFR	0	TJ066
1047.325	3.672	2987840	PROB	n/a	n/a	n/a	n/a	6	[2 2 5]	9	pyFR	0	TJ066
1050.997	3.523	2991512	PROB	n/a	n/a	n/a	n/a	6	[2 4 1]	7	pyFR	0	TJ066
1054.52	1.086	2995035	STOP	n/a	n/a	n/a	n/a	6	[-999 -999 -999]	-999	pyFR	0	TJ066
1055.606	5.689	2996121	REC_START	n/a	n/a	n/a	-999	6	n/a	n/a	pyFR	0	TJ066
1061.295	416.809	3001810	REC_WORD	416.809	n/a	MAZE	-999	6	n/a	n/a	pyFR	0	TJ066
1478.104	0.016	3418618	TRIAL	n/a	n/a	n/a	-999	7	n/a	n/a	pyFR	0	TJ066
1478.12	3.005	3418634	ORIENT	n/a	n/a	n/a	-999	7	n/a	n/a	pyFR	0	TJ066
1481.125	2.586	3421638	WORD	n/a	wordpools/wordpool_EN.txt	SPEAR	1	7	n/a	n/a	pyFR	0	TJ066
1483.711	2.572	3424224	WORD	n/a	wordpools/wordpool_EN.txt	GRASS	2	7	n/a	n/a	pyFR	0	TJ066
1486.283	2.737	3426796	WORD	n/a	wordpools/wordpool_EN.txt	ANT	3	7	n/a	n/a	pyFR	0	TJ066
1489.02	2.755	3429533	WORD	n/a	wordpools/wordpool_EN.txt	COUCH	4	7	n/a	n/a	pyFR	0	TJ066
1491.775	2.472	3432288	WORD	n/a	wordpools/wordpool_EN.txt	YARD	5	7	n/a	n/a	pyFR	0	TJ066
1494.247	2.736	3434760	WORD	n/a	wordpools/wordpool_EN.txt	BAT	6	7	n/a	n/a	pyFR	0	TJ066
1496.983	2.672	3437496	WORD	n/a	wordpools/wordpool_EN.txt	SHARK	7	7	n/a	n/a	pyFR	0	TJ066
1499.655	2.705	3440168	WORD	n/a	wordpools/wordpool_EN.txt	BLUSH	8	7	n/a	n/a	pyFR	0	TJ066
1502.36	2.687	3442873	WORD	n/a	wordpools/wordpool_EN.txt	GEESE	9	7	n/a	n/a	pyFR	0	TJ066
1505.047	2.754	3445560	WORD	n/a	wordpools/wordpool_EN.txt	ROOF	10	7	n/a	n/a	pyFR	0	TJ066
1507.801	2.606	3448314	WORD	n/a	wordpools/wordpool_EN.txt	MOUTH	11	7	n/a	n/a	pyFR	0	TJ066
1510.407	2.654	3450920	WORD	n/a	wordpools/wordpool_EN.txt	BAG	12	7	n/a	n/a	pyFR	0	TJ066
1513.061	2.454	3453574	WORD	n/a	wordpools/wordpool_EN.txt	TIE	13	7	n/a	n/a	pyFR	0	TJ066
1515.515	2.453	3456028	WORD	n/a	wordpools/wordpool_EN.txt	GLOVE	14	7	n/a	n/a	pyFR	0	TJ066
1517.968	1.621	3458481	WORD	n/a	wordpools/wordpool_EN.txt	BOOT	15	7	n/a	n/a	pyFR	0	TJ066
1519.589	1.183	3460102	START	n/a	n/a	n/a	n/a	7	[-999 -999 -999]	-999	pyFR	0	TJ066
1520.772	9.684	3461285	PROB	n/a	n/a	n/a	n/a	7	[5 8 2]	15	pyFR	0	TJ066
1530.456	6.476	3470969	PROB	n/a	n/a	n/a	n/a	7	[1 7 4]	12	pyFR	0	TJ066
1536.932	5.348	3477445	PROB	n/a	n/a	n/a	n/a	7	[8 1 6]	15	pyFR	0	TJ066
1542.28	1.131	3482793	STOP	n/a	n/a	n/a	n/a	7	[-999 -999 -999]	-999	pyFR	0	TJ066
1543.411	5.823	3483924	REC_START	n/a	n/a	n/a	-999	7	n/a	n/a	pyFR	0	TJ066
1549.234	14.578	3489747	REC_WORD	14.578	n/a	GEESE	-999	7	n/a	n/a	pyFR	0	TJ066
1563.812	1.0	3504325	REC_WORD_VV	1.0	n/a	<>	-999	7	n/a	n/a	pyFR	0	TJ066
1564.812	17.002	3505325	REC_WORD_VV	17.002	n/a	<>	-999	7	n/a	n/a	pyFR	0	TJ066
1581.814	35.803	3522327	REC_WORD	35.803	n/a	MOUTH	-999	7	n/a	n/a	pyFR	0	TJ066
1617.617	0.016	3558130	TRIAL	n/a	n/a	n/a	-999	8	n/a	n/a	pyFR	0	TJ066
1617.633	2.638	3558146	ORIENT	n/a	n/a	n/a	-999	8	n/a	n/a	pyFR	0	TJ066
1620.271	2.805	3560784	WORD	n/a	wordpools/wordpool_EN.txt	OAR	1	8	n/a	n/a	pyFR	0	TJ066
1623.076	2.67	3563589	WORD	n/a	wordpools/wordpool_EN.txt	BADGE	2	8	n/a	n/a	pyFR	0	TJ066
1625.746	2.522	3566259	WORD	n/a	wordpools/wordpool_EN.txt	SKUNK	3	8	n/a	n/a	pyFR	0	TJ066
1628.268	2.486	3568781	WORD	n/a	wordpools/wordpool_EN.txt	CAR	4	8	n/a	n/a	pyFR	0	TJ066
1630.754	2.455	3571267	WORD	n/a	wordpools/wordpool_EN.txt	SNAKE	5	8	n/a	n/a	pyFR	0	TJ066
1633.209	2.471	3573722	WORD	n/a	wordpools/wordpool_EN.txt	PLANT	6	8	n/a	n/a	pyFR	0	TJ066
1635.68	2.688	3576193	WORD	n/a	wordpools/wordpool_EN.txt	DOG	7	8	n/a	n/a	pyFR	0	TJ066
1638.368	2.569	3578881	WORD	n/a	wordpools/wordpool_EN.txt	MOOSE	8	8	n/a	n/a	pyFR	0	TJ066
1640.937	2.623	3581450	WORD	n/a	wordpools/wordpool_EN.txt	CONE	9	8	n/a	n/a	pyFR	0	TJ066
1643.56	2.655	3584073	WORD	n/a	wordpools/wordpool_EN.txt	RAKE	10	8	n/a	n/a	pyFR	0	TJ066
1646.215	2.469	3586728	WORD	n/a	wordpools/wordpool_EN.txt	FAN	11	8	n/a	n/a	pyFR	0	TJ066
1648.684	2.571	3589197	WORD	n/a	wordpools/wordpool_EN.txt	CARD	12	8	n/a	n/a	pyFR	0	TJ066
1651.255	2.487	3591768	WORD	n/a	wordpools/wordpool_EN.txt	STAIR	13	8	n/a	n/a	pyFR	0	TJ066
1653.742	2.755	3594255	WORD	n/a	wordpools/wordpool_EN.txt	CHIEF	14	8	n/a	n/a	pyFR	0	TJ066
1656.497	1.621	3597010	WORD	n/a	wordpools/wordpool_EN.txt	PEACH	15	8	n/a	n/a	pyFR	0	TJ066
1658.118	1.0	3598631	START	n/a	n/a	n/a	n/a	8	[-999 -999 -999]	-999	pyFR	0	TJ066
1659.118	6.261	3599631	PROB	n/a	n/a	n/a	n/a	8	[7 2 4]	13	pyFR	0	TJ066
1665.379	9.648	3605892	PROB	n/a	n/a	n/a	n/a	8	[6 7 8]	20	pyFR	0	TJ066
1675.027	5.687	3615540	PROB	n/a	n/a	n/a	n/a	8	[3 2 1]	9	pyFR	0	TJ066
1680.714	1.225	3621227	STOP	n/a	n/a	n/a	n/a	8	[-999 -999 -999]	-999	pyFR	0	TJ066
1681.939	4.307	3622452	REC_START	n/a	n/a	n/a	-999	8	n/a	n/a	pyFR	0	TJ066
1686.246	1.345	3626759	REC_WORD	1.345	n/a	OAR	-999	8	n/a	n/a	pyFR	0	TJ066
1687.591	21.285	3628104	REC_WORD	21.285	n/a	SKUNK	-999	8	n/a	n/a	pyFR	0	TJ066
1708.876	144.313	3649389	REC_WORD	144.313	n/a	BELL	-999	8	n/a	n/a	pyFR	0	TJ066
1853.189	0.016	3793701	TRIAL	n/a	n/a	n/a	-999	9	n/a	n/a	pyFR	0	TJ066
1853.205	2.754	3793717	ORIENT	n/a	n/a	n/a	-999	9	n/a	n/a	pyFR	0	TJ066
1855.959	2.555	3796471	WORD	n/a	wordpools/wordpool_EN.txt	TRUCK	1	9	n/a	n/a	pyFR	0	TJ066
1858.514	2.788	3799026	WORD	n/a	wordpools/wordpool_EN.txt	GLASS	2	9	n/a	n/a	pyFR	0	TJ066
1861.302	2.653	3801814	WORD	n/a	wordpools/wordpool_EN.txt	CAGE	3	9	n/a	n/a	pyFR	0	TJ066
1863.955	2.622	3804467	WORD	n/a	wordpools/wordpool_EN.txt	TRAY	4	9	n/a	n/a	pyFR	0	TJ066
1866.577	2.489	3807089	WORD	n/a	wordpools/wordpool_EN.txt	TENT	5	9	n/a	n/a	pyFR	0	TJ066
1869.066	2.819	3809578	WORD	n/a	wordpools/wordpool_EN.txt	PLANE	6	9	n/a	n/a	pyFR	0	TJ066
1871.885	2.739	3812397	WORD	n/a	wordpools/wordpool_EN.txt	PIN	7	9	n/a	n/a	pyFR	0	TJ066
1874.624	2.721	3815136	WORD	n/a	wordpools/wordpool_EN.txt	HOOK	8	9	n/a	n/a	pyFR	0	TJ066
1877.345	2.437	3817857	WORD	n/a	wordpools/wordpool_EN.txt	CHAIR	9	9	n/a	n/a	pyFR	0	TJ066
1879.782	2.688	3820294	WORD	n/a	wordpools/wordpool_EN.txt	HEN	10	9	n/a	n/a	pyFR	0	TJ066
1882.47	2.788	3822982	WORD	n/a	wordpools/wordpool_EN.txt	FLEA	11	9	n/a	n/a	pyFR	0	TJ066
1885.258	2.654	3825770	WORD	n/a	wordpools/wordpool_EN.txt	SIGN	12	9	n/a	n/a	pyFR	0	TJ066
1887.912	2.722	3828424	WORD	n/a	wordpools/wordpool_EN.txt	VEST	13	9	n/a	n/a	pyFR	0	TJ066
1890.634	2.771	3831146	WORD	n/a	wordpools/wordpool_EN.txt	MOLE	14	9	n/a	n/a	pyFR	0	TJ066
1893.405	1.619	3833917	WORD	n/a	wordpools/wordpool_EN.txt	TREE	15	9	n/a	n/a	pyFR	0	TJ066
1895.024	1.102	3835536	START	n/a	n/a	n/a	n/a	9	[-999 -999 -999]	-999	pyFR	0	TJ066
1896.126	7.662	3836638	PROB	n/a	n/a	n/a	n/a	9	[9 6 9]	24	pyFR	0	TJ066
1903.788	5.91	3844300	PROB	n/a	n/a	n/a	n/a	9	[7 5 5]	17	pyFR	0	TJ066
1909.698	5.024	3850210	PROB	n/a	n/a	n/a	n/a	9	[7 6 3]	16	pyFR	0	TJ066
1914.722	4.89	3855234	PROB	n/a	n/a	n/a	n/a	9	[1 5 6]	14	pyFR	0	TJ066
1919.612	1.238	3860124	STOP	n/a	n/a	n/a	n/a	9	[-999 -999 -999]	-999	pyFR	0	TJ066
1920.85	2.644	3861362	REC_START	n/a	n/a	n/a	-999	9	n/a	n/a	pyFR	0	TJ066
1923.494	3.99	3864006	REC_WORD	3.99	n/a	TRUCK	-999	9	n/a	n/a	pyFR	0	TJ066
1927.484	9.489	3867996	REC_WORD	9.489	n/a	SNAKE	-999	9	n/a	n/a	pyFR	0	TJ066
1936.973	79.252	3877485	REC_WORD	79.252	n/a	GEESE	-999	9	n/a	n/a	pyFR	0	TJ066
2016.225	0.016	3956736	TRIAL	n/a	n/a	n/a	-999	10	n/a	n/a	pyFR	0	TJ066
2016.241	2.838	3956752	ORIENT	n/a	n/a	n/a	-999	10	n/a	n/a	pyFR	0	TJ066
2019.079	2.687	3959590	WORD	n/a	wordpools/wordpool_EN.txt	HORSE	1	10	n/a	n/a	pyFR	0	TJ066
2021.766	2.622	3962277	WORD	n/a	wordpools/wordpool_EN.txt	HAT	2	10	n/a	n/a	pyFR	0	TJ066
2024.388	2.671	3964899	WORD	n/a	wordpools/wordpool_EN.txt	SPARK	3	10	n/a	n/a	pyFR	0	TJ066
2027.059	2.504	3967570	WORD	n/a	wordpools/wordpool_EN.txt	BOY	4	10	n/a	n/a	pyFR	0	TJ066
2029.563	2.655	3970074	WORD	n/a	wordpools/wordpool_EN.txt	LAND	5	10	n/a	n/a	pyFR	0	TJ066
2032.218	2.469	3972729	WORD	n/a	wordpools/wordpool_EN.txt	PIG	6	10	n/a	n/a	pyFR	0	TJ066
2034.687	2.656	3975198	WORD	n/a	wordpools/wordpool_EN.txt	THUMB	7	10	n/a	n/a	pyFR	0	TJ066
2037.343	2.553	3977854	WORD	n/a	wordpools/wordpool_EN.txt	TOY	8	10	n/a	n/a	pyFR	0	TJ066
2039.896	2.739	3980407	WORD	n/a	wordpools/wordpool_EN.txt	ROPE	9	10	n/a	n/a	pyFR	0	TJ066
2042.635	2.554	3983146	WORD	n/a	wordpools/wordpool_EN.txt	CUP	10	10	n/a	n/a	pyFR	0	TJ066
2045.189	2.687	3985700	WORD	n/a	wordpools/wordpool_EN.txt	TOOL	11	10	n/a	n/a	pyFR	0	TJ066
2047.876	2.821	3988387	WORD	n/a	wordpools/wordpool_EN.txt	FORK	12	10	n/a	n/a	pyFR	0	TJ066
2050.697	2.588	3991208	WORD	n/a	wordpools/wordpool_EN.txt	SNOW	13	10	n/a	n/a	pyFR	0	TJ066
2053.285	2.737	3993796	WORD	n/a	wordpools/wordpool_EN.txt	FILM	14	10	n/a	n/a	pyFR	0	TJ066
2056.022	1.605	3996533	WORD	n/a	wordpools/wordpool_EN.txt	PLATE	15	10	n/a	n/a	pyFR	0	TJ066
2057.627	1.116	3998138	START	n/a	n/a	n/a	n/a	10	[-999 -999 -999]	-999	pyFR	0	TJ066
2058.743	5.41	3999254	PROB	n/a	n/a	n/a	n/a	10	[5 5 3]	13	pyFR	0	TJ066
2064.153	8.398	4004664	PROB	n/a	n/a	n/a	n/a	10	[4 9 4]	17	pyFR	0	TJ066
2072.551	7.055	4013062	PROB	n/a	n/a	n/a	n/a	10	[2 8 5]	15	pyFR	0	TJ066
2079.606	1.124	4020117	STOP	n/a	n/a	n/a	n/a	10	[-999 -999 -999]	-999	pyFR	0	TJ066
2080.73	1.722	4021241	REC_START	n/a	n/a	n/a	-999	10	n/a	n/a	pyFR	0	TJ066
2082.452	2.29	4022963	REC_WORD	2.29	n/a	BOY	-999	10	n/a	n/a	pyFR	0	TJ066
2084.742	1.39	4025253	REC_WORD	1.39	n/a	PIG	-999	10	n/a	n/a	pyFR	0	TJ066
2086.132	2.382	4026643	REC_WORD	2.382	n/a	FORK	-999	10	n/a	n/a	pyFR	0	TJ066
2088.514	19.672	4029025	REC_WORD	19.672	n/a	SNOW	-999	10	n/a	n/a	pyFR	0	TJ066
2108.186	49.788	4048697	REC_WORD	49.788	n/a	SNAKE	-999	10	n/a	n/a	pyFR	0	TJ066
2157.974	0.017	4098485	TRIAL	n/a	n/a	n/a	-999	11	n/a	n/a	pyFR	0	TJ066
2157.991	2.754	4098502	ORIENT	n/a	n/a	n/a	-999	11	n/a	n/a	pyFR	0	TJ066
2160.745	2.772	4101256	WORD	n/a	wordpools/wordpool_EN.txt	VAN	1	11	n/a	n/a	pyFR	0	TJ066
2163.517	2.772	4104028	WORD	n/a	wordpools/wordpool_EN.txt	HAWK	2	11	n/a	n/a	pyFR	0	TJ066
2166.289	2.653	4106800	WORD	n/a	wordpools/wordpool_EN.txt	HEART	3	11	n/a	n/a	pyFR	0	TJ066
2168.942	2.556	4109453	WORD	n/a	wordpools/wordpool_EN.txt	ROSE	4	11	n/a	n/a	pyFR	0	TJ066
2171.498	2.804	4112009	WORD	n/a	wordpools/wordpool_EN.txt	WAVE	5	11	n/a	n/a	pyFR	0	TJ066
2174.302	2.57	4114813	WORD	n/a	wordpools/wordpool_EN.txt	CLOTH	6	11	n/a	n/a	pyFR	0	TJ066
2176.872	2.422	4117383	WORD	n/a	wordpools/wordpool_EN.txt	CAPE	7	11	n/a	n/a	pyFR	0	TJ066
2179.294	2.603	4119805	WORD	n/a	wordpools/wordpool_EN.txt	QUEEN	8	11	n/a	n/a	pyFR	0	TJ066
2181.897	2.421	4122408	WORD	n/a	wordpools/wordpool_EN.txt	TANK	9	11	n/a	n/a	pyFR	0	TJ066
2184.318	2.788	4124829	WORD	n/a	wordpools/wordpool_EN.txt	SOAP	10	11	n/a	n/a	pyFR	0	TJ066
2187.106	2.438	4127617	WORD	n/a	wordpools/wordpool_EN.txt	BOMB	11	11	n/a	n/a	pyFR	0	TJ066
2189.544	2.671	4130055	WORD	n/a	wordpools/wordpool_EN.txt	SUIT	12	11	n/a	n/a	pyFR	0	TJ066
2192.215	2.703	4132726	WORD	n/a	wordpools/wordpool_EN.txt	CUBE	13	11	n/a	n/a	pyFR	0	TJ066
2194.918	2.771	4135429	WORD	n/a	wordpools/wordpool_EN.txt	STONE	14	11	n/a	n/a	pyFR	0	TJ066
2197.689	1.605	4138200	WORD	n/a	wordpools/wordpool_EN.txt	BOX	15	11	n/a	n/a	pyFR	0	TJ066
2199.294	0.818	4139805	START	n/a	n/a	n/a	n/a	11	[-999 -999 -999]	-999	pyFR	0	TJ066
2200.112	5.274	4140623	PROB	n/a	n/a	n/a	n/a	11	[7 1 9]	17	pyFR	0	TJ066
2205.386	6.695	4145897	PROB	n/a	n/a	n/a	n/a	11	[3 8 5]	16	pyFR	0	TJ066
2212.081	3.506	4152592	PROB	n/a	n/a	n/a	n/a	11	[1 1 6]	8	pyFR	0	TJ066
2215.587	4.318	4156098	PROB	n/a	n/a	n/a	n/a	11	[3 1 4]	8	pyFR	0	TJ066
2219.905	1.107	4160416	STOP	n/a	n/a	n/a	n/a	11	[-999 -999 -999]	-999	pyFR	0	TJ066
2221.012	6.403	4161523	REC_START	n/a	n/a	n/a	-999	11	n/a	n/a	pyFR	0	TJ066
2227.415	1.81	4167926	REC_WORD	1.81	n/a	BUS	-999	11	n/a	n/a	pyFR	0	TJ066
2229.225	156.642	4169736	REC_WORD	156.642	n/a	VAN	-999	11	n/a	n/a	pyFR	0	TJ066
2385.867	0.016	4326377	TRIAL	n/a	n/a	n/a	-999	12	n/a	n/a	pyFR	0	TJ066
2385.883	3.005	4326393	ORIENT	n/a	n/a	n/a	-999	12	n/a	n/a	pyFR	0	TJ066
2388.888	2.689	4329398	WORD	n/a	wordpools/wordpool_EN.txt	BRANCH	1	12	n/a	n/a	pyFR	0	TJ066
2391.577	2.521	4332087	WORD	n/a	wordpools/wordpool_EN.txt	TAPE	2	12	n/a	n/a	pyFR	0	TJ066
2394.098	2.554	4334608	WORD	n/a	wordpools/wordpool_EN.txt	BOAT	3	12	n/a	n/a	pyFR	0	TJ066
2396.652	2.721	4337162	WORD	n/a	wordpools/wordpool_EN.txt	BENCH	4	12	n/a	n/a	pyFR	0	TJ066
2399.373	2.637	4339883	WORD	n/a	wordpools/wordpool_EN.txt	SEAL	5	12	n/a	n/a	pyFR	0	TJ066
2402.01	2.455	4342520	WORD	n/a	wordpools/wordpool_EN.txt	KING	6	12	n/a	n/a	pyFR	0	TJ066
2404.465	2.503	4344975	WORD	n/a	wordpools/wordpool_EN.txt	SKY	7	12	n/a	n/a	pyFR	0	TJ066
2406.968	2.505	4347478	WORD	n/a	wordpools/wordpool_EN.txt	FOX	8	12	n/a	n/a	pyFR	0	TJ066
2409.473	2.588	4349983	WORD	n/a	wordpools/wordpool_EN.txt	SINK	9	12	n/a	n/a	pyFR	0	TJ066
2412.061	2.753	4352571	WORD	n/a	wordpools/wordpool_EN.txt	BROOM	10	12	n/a	n/a	pyFR	0	TJ066
2414.814	2.556	4355324	WORD	n/a	wordpools/wordpool_EN.txt	STAR	11	12	n/a	n/a	pyFR	0	TJ066
2417.37	2.62	4357880	WORD	n/a	wordpools/wordpool_EN.txt	CORN	12	12	n/a	n/a	pyFR	0	TJ066
2419.99	2.738	4360500	WORD	n/a	wordpools/wordpool_EN.txt	MILK	13	12	n/a	n/a	pyFR	0	TJ066
2422.728	2.755	4363238	WORD	n/a	wordpools/wordpool_EN.txt	MAT	14	12	n/a	n/a	pyFR	0	TJ066
2425.483	1.62	4365993	WORD	n/a	wordpools/wordpool_EN.txt	FACE	15	12	n/a	n/a	pyFR	0	TJ066
2427.103	1.201	4367613	START	n/a	n/a	n/a	n/a	12	[-999 -999 -999]	-999	pyFR	0	TJ066
2428.304	15.059	4368814	PROB	n/a	n/a	n/a	n/a	12	[7 8 7]	22	pyFR	0	TJ066
2443.363	5.494	4383873	PROB	n/a	n/a	n/a	n/a	12	[3 5 2]	10	pyFR	0	TJ066
2448.857	1.099	4389367	STOP	n/a	n/a	n/a	n/a	12	[-999 -999 -999]	-999	pyFR	0	TJ066
2449.956	2.92	4390466	REC_START	n/a	n/a	n/a	-999	12	n/a	n/a	pyFR	0	TJ066
2452.876	1.271	4393386	REC_WORD	1.271	n/a	MAT	-999	12	n/a	n/a	pyFR	0	TJ066
2454.147	3.883	4394657	REC_WORD_VV	3.883	n/a	<>	-999	12	n/a	n/a	pyFR	0	TJ066
2458.03	4.236	4398540	REC_WORD_VV	4.236	n/a	<>	-999	12	n/a	n/a	pyFR	0	TJ066
2462.266	0.466	4402776	REC_WORD_VV	0.466	n/a	<>	-999	12	n/a	n/a	pyFR	0	TJ066
2462.732	1.0	4403242	REC_WORD	1.0	n/a	ROSE	-999	12	n/a	n/a	pyFR	0	TJ066
2463.732	143.902	4404242	REC_WORD_VV	143.902	n/a	<>	-999	12	n/a	n/a	pyFR	0	TJ066
2607.634	0.016	4548143	TRIAL	n/a	n/a	n/a	-999	13	n/a	n/a	pyFR	0	TJ066
2607.65	2.905	4548159	ORIENT	n/a	n/a	n/a	-999	13	n/a	n/a	pyFR	0	TJ066
2610.555	2.805	4551064	WORD	n/a	wordpools/wordpool_EN.txt	FOOT	1	13	n/a	n/a	pyFR	0	TJ066
2613.36	2.486	4553869	WORD	n/a	wordpools/wordpool_EN.txt	FISH	2	13	n/a	n/a	pyFR	0	TJ066
2615.846	2.706	4556355	WORD	n/a	wordpools/wordpool_EN.txt	SMILE	3	13	n/a	n/a	pyFR	0	TJ066
2618.552	2.704	4559061	WORD	n/a	wordpools/wordpool_EN.txt	DITCH	4	13	n/a	n/a	pyFR	0	TJ066
2621.256	2.553	4561765	WORD	n/a	wordpools/wordpool_EN.txt	KEY	5	13	n/a	n/a	pyFR	0	TJ066
2623.809	2.522	4564318	WORD	n/a	wordpools/wordpool_EN.txt	RUG	6	13	n/a	n/a	pyFR	0	TJ066
2626.331	2.721	4566840	WORD	n/a	wordpools/wordpool_EN.txt	TRAIN	7	13	n/a	n/a	pyFR	0	TJ066
2629.052	2.488	4569561	WORD	n/a	wordpools/wordpool_EN.txt	BALL	8	13	n/a	n/a	pyFR	0	TJ066
2631.54	2.804	4572049	WORD	n/a	wordpools/wordpool_EN.txt	SHIP	9	13	n/a	n/a	pyFR	0	TJ066
2634.344	2.637	4574853	WORD	n/a	wordpools/wordpool_EN.txt	SLEEVE	10	13	n/a	n/a	pyFR	0	TJ066
2636.981	2.721	4577490	WORD	n/a	wordpools/wordpool_EN.txt	NEST	11	13	n/a	n/a	pyFR	0	TJ066
2639.702	2.589	4580211	WORD	n/a	wordpools/wordpool_EN.txt	CAVE	12	13	n/a	n/a	pyFR	0	TJ066
2642.291	2.754	4582800	WORD	n/a	wordpools/wordpool_EN.txt	PEAR	13	13	n/a	n/a	pyFR	0	TJ066
2645.045	2.554	4585554	WORD	n/a	wordpools/wordpool_EN.txt	FORT	14	13	n/a	n/a	pyFR	0	TJ066
2647.599	1.621	4588108	WORD	n/a	wordpools/wordpool_EN.txt	AXE	15	13	n/a	n/a	pyFR	0	TJ066
2649.22	1.117	4589729	START	n/a	n/a	n/a	n/a	13	[-999 -999 -999]	-999	pyFR	0	TJ066
2650.337	5.793	4590846	PROB	n/a	n/a	n/a	n/a	13	[7 4 1]	12	pyFR	0	TJ066
2656.13	5.692	4596639	PROB	n/a	n/a	n/a	n/a	13	[2 6 5]	15	pyFR	0	TJ066
2661.822	6.595	4602331	PROB	n/a	n/a	n/a	n/a	13	[3 1 8]	12	pyFR	0	TJ066
2668.417	7.297	4608926	PROB	n/a	n/a	n/a	n/a	13	[9 1 6]	16	pyFR	0	TJ066
2675.714	1.183	4616223	STOP	n/a	n/a	n/a	n/a	13	[-999 -999 -999]	-999	pyFR	0	TJ066
2676.897	3.204	4617406	REC_START	n/a	n/a	n/a	-999	13	n/a	n/a	pyFR	0	TJ066
2680.101	4.654	4620610	REC_WORD	4.654	n/a	SMILE	-999	13	n/a	n/a	pyFR	0	TJ066
2684.755	12.384	4625264	REC_WORD_VV	12.384	n/a	<>	-999	13	n/a	n/a	pyFR	0	TJ066
2697.139	64.215	4637648	REC_WORD	64.215	n/a	FOOT	-999	13	n/a	n/a	pyFR	0	TJ066
2761.354	0.017	4701863	TRIAL	n/a	n/a	n/a	-999	14	n/a	n/a	pyFR	0	TJ066
2761.371	2.653	4701880	ORIENT	n/a	n/a	n/a	-999	14	n/a	n/a	pyFR	0	TJ066
2764.024	2.538	4704533	WORD	n/a	wordpools/wordpool_EN.txt	BEAK	1	14	n/a	n/a	pyFR	0	TJ066
2766.562	2.655	4707071	WORD	n/a	wordpools/wordpool_EN.txt	DRESS	2	14	n/a	n/a	pyFR	0	TJ066
2769.217	2.67	4709726	WORD	n/a	wordpools/wordpool_EN.txt	HAND	3	14	n/a	n/a	pyFR	0	TJ066
2771.887	2.689	4712396	WORD	n/a	wordpools/wordpool_EN.txt	FARM	4	14	n/a	n/a	pyFR	0	TJ066
2774.576	2.487	4715085	WORD	n/a	wordpools/wordpool_EN.txt	HOOF	5	14	n/a	n/a	pyFR	0	TJ066
2777.063	2.437	4717572	WORD	n/a	wordpools/wordpool_EN.txt	EAR	6	14	n/a	n/a	pyFR	0	TJ066
2779.5	2.672	4720009	WORD	n/a	wordpools/wordpool_EN.txt	DOLL	7	14	n/a	n/a	pyFR	0	TJ066
2782.172	2.586	4722681	WORD	n/a	wordpools/wordpool_EN.txt	EGG	8	14	n/a	n/a	pyFR	0	TJ066
2784.758	2.522	4725267	WORD	n/a	wordpools/wordpool_EN.txt	POLE	9	14	n/a	n/a	pyFR	0	TJ066
2787.28	2.653	4727789	WORD	n/a	wordpools/wordpool_EN.txt	CROWN	10	14	n/a	n/a	pyFR	0	TJ066
2789.933	2.589	4730442	WORD	n/a	wordpools/wordpool_EN.txt	POOL	11	14	n/a	n/a	pyFR	0	TJ066
2792.522	2.588	4733031	WORD	n/a	wordpools/wordpool_EN.txt	MULE	12	14	n/a	n/a	pyFR	0	TJ066
2795.11	2.686	4735619	WORD	n/a	wordpools/wordpool_EN.txt	ELF	13	14	n/a	n/a	pyFR	0	TJ066
2797.796	2.806	4738304	WORD	n/a	wordpools/wordpool_EN.txt	CROW	14	14	n/a	n/a	pyFR	0	TJ066
2800.602	1.62	4741110	WORD	n/a	wordpools/wordpool_EN.txt	BARN	15	14	n/a	n/a	pyFR	0	TJ066
2802.222	1.068	4742730	START	n/a	n/a	n/a	n/a	14	[-999 -999 -999]	-999	pyFR	0	TJ066
2803.29	7.561	4743798	PROB	n/a	n/a	n/a	n/a	14	[6 8 3]	17	pyFR	0	TJ066
2810.851	12.556	4751359	PROB	n/a	n/a	n/a	n/a	14	[8 7 5]	20	pyFR	0	TJ066
2823.407	1.135	4763915	STOP	n/a	n/a	n/a	n/a	14	[-999 -999 -999]	-999	pyFR	0	TJ066
2824.542	3.347	4765050	REC_START	n/a	n/a	n/a	-999	14	n/a	n/a	pyFR	0	TJ066
2827.889	2.087	4768397	REC_WORD_VV	2.087	n/a	<>	-999	14	n/a	n/a	pyFR	0	TJ066
2829.976	0.662	4770484	REC_WORD	0.662	n/a	EGG	-999	14	n/a	n/a	pyFR	0	TJ066
2830.638	8.861	4771146	REC_WORD	8.861	n/a	MULE	-999	14	n/a	n/a	pyFR	0	TJ066
2839.499	10.582	4780007	REC_WORD	10.582	n/a	DOLL	-999	14	n/a	n/a	pyFR	0	TJ066
2850.081	30.203	4790589	REC_WORD	30.203	n/a	POOL	-999	14	n/a	n/a	pyFR	0	TJ066
2880.284	0.016	4820792	TRIAL	n/a	n/a	n/a	-999	15	n/a	n/a	pyFR	0	TJ066
2880.3	2.855	4820808	ORIENT	n/a	n/a	n/a	-999	15	n/a	n/a	pyFR	0	TJ066
2883.155	2.637	4823663	WORD	n/a	wordpools/wordpool_EN.txt	LEG	1	15	n/a	n/a	pyFR	0	TJ066
2885.792	2.455	4826300	WORD	n/a	wordpools/wordpool_EN.txt	TOAD	2	15	n/a	n/a	pyFR	0	TJ066
2888.247	2.787	4828755	WORD	n/a	wordpools/wordpool_EN.txt	LAKE	3	15	n/a	n/a	pyFR	0	TJ066
2891.034	2.572	4831542	WORD	n/a	wordpools/wordpool_EN.txt	WEED	4	15	n/a	n/a	pyFR	0	TJ066
2893.606	2.687	4834114	WORD	n/a	wordpools/wordpool_EN.txt	SQUARE	5	15	n/a	n/a	pyFR	0	TJ066
2896.293	2.604	4836801	WORD	n/a	wordpools/wordpool_EN.txt	STICK	6	15	n/a	n/a	pyFR	0	TJ066
2898.897	2.655	4839405	WORD	n/a	wordpools/wordpool_EN.txt	DART	7	15	n/a	n/a	pyFR	0	TJ066
2901.552	2.821	4842060	WORD	n/a	wordpools/wordpool_EN.txt	ICE	8	15	n/a	n/a	pyFR	0	TJ066
2904.373	2.721	4844881	WORD	n/a	wordpools/wordpool_EN.txt	STREET	9	15	n/a	n/a	pyFR	0	TJ066
2907.094	2.571	4847602	WORD	n/a	wordpools/wordpool_EN.txt	DOCK	10	15	n/a	n/a	pyFR	0	TJ066
2909.665	2.638	4850173	WORD	n/a	wordpools/wordpool_EN.txt	CLIFF	11	15	n/a	n/a	pyFR	0	TJ066
2912.303	2.52	4852811	WORD	n/a	wordpools/wordpool_EN.txt	BOWL	12	15	n/a	n/a	pyFR	0	TJ066
2914.823	2.555	4855331	WORD	n/a	wordpools/wordpool_EN.txt	ARK	13	15	n/a	n/a	pyFR	0	TJ066
2917.378	2.47	4857886	WORD	n/a	wordpools/wordpool_EN.txt	RAT	14	15	n/a	n/a	pyFR	0	TJ066
2919.848	1.604	4860356	WORD	n/a	wordpools/wordpool_EN.txt	HOSE	15	15	n/a	n/a	pyFR	0	TJ066
2921.452	0.918	4861960	START	n/a	n/a	n/a	n/a	15	[-999 -999 -999]	-999	pyFR	0	TJ066
2922.37	8.563	4862878	PROB	n/a	n/a	n/a	n/a	15	[4 6 9]	19	pyFR	0	TJ066
2930.933	3.973	4871441	PROB	n/a	n/a	n/a	n/a	15	[1 1 8]	10	pyFR	0	TJ066
2934.906	4.608	4875414	PROB	n/a	n/a	n/a	n/a	15	[2 8 7]	17	pyFR	0	TJ066
2939.514	4.912	4880022	PROB	n/a	n/a	n/a	n/a	15	[2 6 8]	16	pyFR	0	TJ066
2944.426	1.066	4884934	STOP	n/a	n/a	n/a	n/a	15	[-999 -999 -999]	-999	pyFR	0	TJ066
2945.492	2.443	4886000	REC_START	n/a	n/a	n/a	-999	15	n/a	n/a	pyFR	0	TJ066
2947.935	0.365	4888443	REC_WORD_VV	0.365	n/a	<>	-999	15	n/a	n/a	pyFR	0	TJ066
2948.3	0.819	4888808	REC_WORD	0.819	n/a	ARK	-999	15	n/a	n/a	pyFR	0	TJ066
2949.119	54.818	4889627	REC_WORD	54.818	n/a	RAT	-999	15	n/a	n/a	pyFR	0	TJ066
3003.937	0.016	4944445	TRIAL	n/a	n/a	n/a	-999	16	n/a	n/a	pyFR	0	TJ066
3003.953	2.888	4944461	ORIENT	n/a	n/a	n/a	-999	16	n/a	n/a	pyFR	0	TJ066
3006.841	2.806	4947349	WORD	n/a	wordpools/wordpool_EN.txt	SEA	1	16	n/a	n/a	pyFR	0	TJ066
3009.647	2.738	4950155	WORD	n/a	wordpools/wordpool_EN.txt	BOOK	2	16	n/a	n/a	pyFR	0	TJ066
3012.385	2.671	4952893	WORD	n/a	wordpools/wordpool_EN.txt	WAND	3	16	n/a	n/a	pyFR	0	TJ066
3015.056	2.521	4955564	WORD	n/a	wordpools/wordpool_EN.txt	POND	4	16	n/a	n/a	pyFR	0	TJ066
3017.577	2.754	4958085	WORD	n/a	wordpools/wordpool_EN.txt	PIE	5	16	n/a	n/a	pyFR	0	TJ066
3020.331	2.553	4960839	WORD	n/a	wordpools/wordpool_EN.txt	ROCK	6	16	n/a	n/a	pyFR	0	TJ066
3022.884	2.439	4963392	WORD	n/a	wordpools/wordpool_EN.txt	CALF	7	16	n/a	n/a	pyFR	0	TJ066
3025.323	2.821	4965831	WORD	n/a	wordpools/wordpool_EN.txt	MOUSE	8	16	n/a	n/a	pyFR	0	TJ066
3028.144	2.754	4968652	WORD	n/a	wordpools/wordpool_EN.txt	OWL	9	16	n/a	n/a	pyFR	0	TJ066
3030.898	2.521	4971406	WORD	n/a	wordpools/wordpool_EN.txt	BLOOM	10	16	n/a	n/a	pyFR	0	TJ066
3033.419	2.47	4973927	WORD	n/a	wordpools/wordpool_EN.txt	ARM	11	16	n/a	n/a	pyFR	0	TJ066
3035.889	2.722	4976397	WORD	n/a	wordpools/wordpool_EN.txt	BATH	12	16	n/a	n/a	pyFR	0	TJ066
3038.611	2.722	4979119	WORD	n/a	wordpools/wordpool_EN.txt	FLAME	13	16	n/a	n/a	pyFR	0	TJ066
3041.333	2.703	4981841	WORD	n/a	wordpools/wordpool_EN.txt	WOLF	14	16	n/a	n/a	pyFR	0	TJ066
3044.036	1.605	4984544	WORD	n/a	wordpools/wordpool_EN.txt	FLUTE	15	16	n/a	n/a	pyFR	0	TJ066
3045.641	1.183	4986149	START	n/a	n/a	n/a	n/a	16	[-999 -999 -999]	-999	pyFR	0	TJ066
3046.824	5.293	4987332	PROB	n/a	n/a	n/a	n/a	16	[1 5 9]	15	pyFR	0	TJ066
3052.117	6.377	4992625	PROB	n/a	n/a	n/a	n/a	16	[4 8 8]	20	pyFR	0	TJ066
3058.494	7.079	4999002	PROB	n/a	n/a	n/a	n/a	16	[3 6 8]	17	pyFR	0	TJ066
3065.573	5.145	5006080	PROB	n/a	n/a	n/a	n/a	16	[7 1 7]	15	pyFR	0	TJ066
3070.718	1.131	5011225	STOP	n/a	n/a	n/a	n/a	16	[-999 -999 -999]	-999	pyFR	0	TJ066
3071.849	2.982	5012356	REC_START	n/a	n/a	n/a	-999	16	n/a	n/a	pyFR	0	TJ066
3074.831	1.563	5015338	REC_WORD	1.563	n/a	FLAME	-999	16	n/a	n/a	pyFR	0	TJ066
3076.394	562.877	5016901	REC_WORD	562.877	n/a	WOLF	-999	16	n/a	n/a	pyFR	0	TJ066
3639.271	0.073	5579776	SESS_END	n/a	n/a	n/a	-999	16	n/a	n/a	pyFR	0	TJ066
3639.344	0.0	5579849	E	n/a	n/a	n/a	-999	16	n/a	n/a	pyFR	0	TJ066
