onset	duration	sample	trial_type	response_time	stim_file	item_name	serialpos	list	test	answer	experiment	session	subject
0.0	0.0	648390	B	n/a	n/a	n/a	-999	-999	n/a	n/a	pyFR	1	TJ037
0.0	31.523	648390	SESS_START	n/a	n/a	n/a	-999	-999	n/a	n/a	pyFR	1	TJ037
31.523	0.038	n/a	START	n/a	n/a	n/a	n/a	0	[-999 -999 -999]	-999	pyFR	1	TJ037
31.561	3.255	n/a	PROB	n/a	n/a	n/a	n/a	0	[1 3 5]	9	pyFR	1	TJ037
34.816	3.738	n/a	PROB	n/a	n/a	n/a	n/a	0	[4 7 9]	20	pyFR	1	TJ037
38.554	3.172	n/a	PROB	n/a	n/a	n/a	n/a	0	[3 3 9]	15	pyFR	1	TJ037
41.726	4.188	n/a	PROB	n/a	n/a	n/a	n/a	0	[9 3 5]	17	pyFR	1	TJ037
45.914	2.987	n/a	PROB	n/a	n/a	n/a	n/a	0	[7 8 1]	16	pyFR	1	TJ037
48.901	1.837	n/a	PROB	n/a	n/a	n/a	n/a	0	[7 3 1]	11	pyFR	1	TJ037
50.738	3.872	n/a	PROB	n/a	n/a	n/a	n/a	0	[2 7 4]	13	pyFR	1	TJ037
54.61	2.17	n/a	PROB	n/a	n/a	n/a	n/a	0	[5 2 4]	11	pyFR	1	TJ037
56.78	1.936	n/a	PROB	n/a	n/a	n/a	n/a	0	[4 6 1]	11	pyFR	1	TJ037
58.716	5.606	n/a	PROB	n/a	n/a	n/a	n/a	0	[4 9 7]	20	pyFR	1	TJ037
64.322	39.041	n/a	STOP	n/a	n/a	n/a	n/a	0	[-999 -999 -999]	-999	pyFR	1	TJ037
103.363	0.015	751753	TRIAL	n/a	n/a	n/a	-999	1	n/a	n/a	pyFR	1	TJ037
103.378	2.754	751768	ORIENT	n/a	n/a	n/a	-999	1	n/a	n/a	pyFR	1	TJ037
106.132	2.639	754522	WORD	n/a	wordpools/wordpool_EN.txt	TOY	1	1	n/a	n/a	pyFR	1	TJ037
108.771	2.485	757161	WORD	n/a	wordpools/wordpool_EN.txt	ZOO	2	1	n/a	n/a	pyFR	1	TJ037
111.256	2.505	759646	WORD	n/a	wordpools/wordpool_EN.txt	GATE	3	1	n/a	n/a	pyFR	1	TJ037
113.761	2.452	762151	WORD	n/a	wordpools/wordpool_EN.txt	TEETH	4	1	n/a	n/a	pyFR	1	TJ037
116.213	2.654	764603	WORD	n/a	wordpools/wordpool_EN.txt	FUR	5	1	n/a	n/a	pyFR	1	TJ037
118.867	2.805	767257	WORD	n/a	wordpools/wordpool_EN.txt	SQUARE	6	1	n/a	n/a	pyFR	1	TJ037
121.672	2.686	770062	WORD	n/a	wordpools/wordpool_EN.txt	PRINCE	7	1	n/a	n/a	pyFR	1	TJ037
124.358	2.471	772748	WORD	n/a	wordpools/wordpool_EN.txt	EAR	8	1	n/a	n/a	pyFR	1	TJ037
126.829	2.486	775219	WORD	n/a	wordpools/wordpool_EN.txt	CAR	9	1	n/a	n/a	pyFR	1	TJ037
129.315	2.488	777705	WORD	n/a	wordpools/wordpool_EN.txt	RICE	10	1	n/a	n/a	pyFR	1	TJ037
131.803	2.804	780193	WORD	n/a	wordpools/wordpool_EN.txt	JEEP	11	1	n/a	n/a	pyFR	1	TJ037
134.607	2.653	782997	WORD	n/a	wordpools/wordpool_EN.txt	BLOOM	12	1	n/a	n/a	pyFR	1	TJ037
137.26	2.62	785649	WORD	n/a	wordpools/wordpool_EN.txt	SHEET	13	1	n/a	n/a	pyFR	1	TJ037
139.88	2.604	788269	WORD	n/a	wordpools/wordpool_EN.txt	SHELL	14	1	n/a	n/a	pyFR	1	TJ037
142.484	1.604	790873	WORD	n/a	wordpools/wordpool_EN.txt	HAT	15	1	n/a	n/a	pyFR	1	TJ037
144.088	0.833	n/a	START	n/a	n/a	n/a	n/a	1	[-999 -999 -999]	-999	pyFR	1	TJ037
144.921	4.206	n/a	PROB	n/a	n/a	n/a	n/a	1	[9 7 3]	19	pyFR	1	TJ037
149.127	3.271	n/a	PROB	n/a	n/a	n/a	n/a	1	[2 8 3]	13	pyFR	1	TJ037
152.398	3.755	n/a	PROB	n/a	n/a	n/a	n/a	1	[3 2 1]	6	pyFR	1	TJ037
156.153	5.643	n/a	PROB	n/a	n/a	n/a	n/a	1	[3 2 8]	13	pyFR	1	TJ037
161.796	2.571	n/a	PROB	n/a	n/a	n/a	n/a	1	[4 5 3]	12	pyFR	1	TJ037
164.367	1.202	n/a	STOP	n/a	n/a	n/a	n/a	1	[-999 -999 -999]	-999	pyFR	1	TJ037
165.569	1.398	813958	REC_START	n/a	n/a	n/a	-999	1	n/a	n/a	pyFR	1	TJ037
166.967	0.403	815356	REC_WORD	0.403	n/a	TOY	-999	1	n/a	n/a	pyFR	1	TJ037
167.37	0.6	815759	REC_WORD	0.6	n/a	ZOO	-999	1	n/a	n/a	pyFR	1	TJ037
167.97	0.425	816359	REC_WORD	0.425	n/a	GATE	-999	1	n/a	n/a	pyFR	1	TJ037
168.395	0.369	816784	REC_WORD	0.369	n/a	TEETH	-999	1	n/a	n/a	pyFR	1	TJ037
168.764	2.216	817153	REC_WORD	2.216	n/a	FUR	-999	1	n/a	n/a	pyFR	1	TJ037
170.98	0.842	819369	REC_WORD	0.842	n/a	SHAPE	-999	1	n/a	n/a	pyFR	1	TJ037
171.822	0.271	820211	REC_WORD_VV	0.271	n/a	VV	-999	1	n/a	n/a	pyFR	1	TJ037
172.093	1.502	820482	REC_WORD	1.502	n/a	SHEET	-999	1	n/a	n/a	pyFR	1	TJ037
173.595	1.29	821984	REC_WORD_VV	1.29	n/a	VV	-999	1	n/a	n/a	pyFR	1	TJ037
174.885	1.106	823274	REC_WORD_VV	1.106	n/a	VV	-999	1	n/a	n/a	pyFR	1	TJ037
175.991	47.594	824380	REC_WORD	47.594	n/a	SPACE	-999	1	n/a	n/a	pyFR	1	TJ037
223.585	0.015	871974	TRIAL	n/a	n/a	n/a	-999	2	n/a	n/a	pyFR	1	TJ037
223.6	2.886	871989	ORIENT	n/a	n/a	n/a	-999	2	n/a	n/a	pyFR	1	TJ037
226.486	2.671	874875	WORD	n/a	wordpools/wordpool_EN.txt	VEST	1	2	n/a	n/a	pyFR	1	TJ037
229.157	2.488	877546	WORD	n/a	wordpools/wordpool_EN.txt	COIN	2	2	n/a	n/a	pyFR	1	TJ037
231.645	2.602	880034	WORD	n/a	wordpools/wordpool_EN.txt	LOCK	3	2	n/a	n/a	pyFR	1	TJ037
234.247	2.538	882636	WORD	n/a	wordpools/wordpool_EN.txt	APE	4	2	n/a	n/a	pyFR	1	TJ037
236.785	2.72	885174	WORD	n/a	wordpools/wordpool_EN.txt	FAN	5	2	n/a	n/a	pyFR	1	TJ037
239.505	2.587	887894	WORD	n/a	wordpools/wordpool_EN.txt	CAPE	6	2	n/a	n/a	pyFR	1	TJ037
242.092	2.538	890481	WORD	n/a	wordpools/wordpool_EN.txt	ROAD	7	2	n/a	n/a	pyFR	1	TJ037
244.63	2.452	893019	WORD	n/a	wordpools/wordpool_EN.txt	WAND	8	2	n/a	n/a	pyFR	1	TJ037
247.082	2.588	895471	WORD	n/a	wordpools/wordpool_EN.txt	NAIL	9	2	n/a	n/a	pyFR	1	TJ037
249.67	2.786	898059	WORD	n/a	wordpools/wordpool_EN.txt	BRANCH	10	2	n/a	n/a	pyFR	1	TJ037
252.456	2.587	900845	WORD	n/a	wordpools/wordpool_EN.txt	PALM	11	2	n/a	n/a	pyFR	1	TJ037
255.043	2.588	903432	WORD	n/a	wordpools/wordpool_EN.txt	STONE	12	2	n/a	n/a	pyFR	1	TJ037
257.631	2.436	906020	WORD	n/a	wordpools/wordpool_EN.txt	FORK	13	2	n/a	n/a	pyFR	1	TJ037
260.067	2.521	908456	WORD	n/a	wordpools/wordpool_EN.txt	COAT	14	2	n/a	n/a	pyFR	1	TJ037
262.588	1.62	910977	WORD	n/a	wordpools/wordpool_EN.txt	SOUP	15	2	n/a	n/a	pyFR	1	TJ037
264.208	0.816	n/a	START	n/a	n/a	n/a	n/a	2	[-999 -999 -999]	-999	pyFR	1	TJ037
265.024	3.54	n/a	PROB	n/a	n/a	n/a	n/a	2	[8 3 7]	18	pyFR	1	TJ037
268.564	4.455	n/a	PROB	n/a	n/a	n/a	n/a	2	[7 6 8]	21	pyFR	1	TJ037
273.019	2.22	n/a	PROB	n/a	n/a	n/a	n/a	2	[6 2 4]	1	pyFR	1	TJ037
275.239	4.873	n/a	PROB	n/a	n/a	n/a	n/a	2	[9 6 2]	17	pyFR	1	TJ037
280.112	2.37	n/a	PROB	n/a	n/a	n/a	n/a	2	[5 3 3]	11	pyFR	1	TJ037
282.482	2.961	n/a	PROB	n/a	n/a	n/a	n/a	2	[5 1 1]	7	pyFR	1	TJ037
285.443	1.23	n/a	STOP	n/a	n/a	n/a	n/a	2	[-999 -999 -999]	-999	pyFR	1	TJ037
286.673	0.691	935062	REC_START	n/a	n/a	n/a	-999	2	n/a	n/a	pyFR	1	TJ037
287.364	0.366	935753	REC_WORD	0.366	n/a	VEST	-999	2	n/a	n/a	pyFR	1	TJ037
287.73	0.721	936119	REC_WORD	0.721	n/a	PHONE	-999	2	n/a	n/a	pyFR	1	TJ037
288.451	0.886	936840	REC_WORD	0.886	n/a	APE	-999	2	n/a	n/a	pyFR	1	TJ037
289.337	1.604	937726	REC_WORD	1.604	n/a	COIN	-999	2	n/a	n/a	pyFR	1	TJ037
290.941	0.422	939330	REC_WORD_VV	0.422	n/a	VV	-999	2	n/a	n/a	pyFR	1	TJ037
291.363	1.321	939752	REC_WORD	1.321	n/a	FUR	-999	2	n/a	n/a	pyFR	1	TJ037
292.684	6.612	941073	REC_WORD	6.612	n/a	SPACE	-999	2	n/a	n/a	pyFR	1	TJ037
299.296	0.963	947685	REC_WORD	0.963	n/a	SHIP	-999	2	n/a	n/a	pyFR	1	TJ037
300.259	0.472	948648	REC_WORD_VV	0.472	n/a	VV	-999	2	n/a	n/a	pyFR	1	TJ037
300.731	33.292	949120	REC_WORD	33.292	n/a	WHEEL	-999	2	n/a	n/a	pyFR	1	TJ037
334.023	0.016	982411	TRIAL	n/a	n/a	n/a	-999	3	n/a	n/a	pyFR	1	TJ037
334.039	2.788	982427	ORIENT	n/a	n/a	n/a	-999	3	n/a	n/a	pyFR	1	TJ037
336.827	2.486	985215	WORD	n/a	wordpools/wordpool_EN.txt	FLAME	1	3	n/a	n/a	pyFR	1	TJ037
339.313	2.488	987701	WORD	n/a	wordpools/wordpool_EN.txt	SWORD	2	3	n/a	n/a	pyFR	1	TJ037
341.801	2.603	990189	WORD	n/a	wordpools/wordpool_EN.txt	BOARD	3	3	n/a	n/a	pyFR	1	TJ037
344.404	2.77	992792	WORD	n/a	wordpools/wordpool_EN.txt	PURSE	4	3	n/a	n/a	pyFR	1	TJ037
347.174	2.837	995562	WORD	n/a	wordpools/wordpool_EN.txt	MOUSE	5	3	n/a	n/a	pyFR	1	TJ037
350.011	2.572	998399	WORD	n/a	wordpools/wordpool_EN.txt	GUARD	6	3	n/a	n/a	pyFR	1	TJ037
352.583	2.502	1000971	WORD	n/a	wordpools/wordpool_EN.txt	WAVE	7	3	n/a	n/a	pyFR	1	TJ037
355.085	2.437	1003473	WORD	n/a	wordpools/wordpool_EN.txt	SIGN	8	3	n/a	n/a	pyFR	1	TJ037
357.522	2.537	1005910	WORD	n/a	wordpools/wordpool_EN.txt	LEAF	9	3	n/a	n/a	pyFR	1	TJ037
360.059	2.521	1008447	WORD	n/a	wordpools/wordpool_EN.txt	BEE	10	3	n/a	n/a	pyFR	1	TJ037
362.58	2.453	1010968	WORD	n/a	wordpools/wordpool_EN.txt	PLANT	11	3	n/a	n/a	pyFR	1	TJ037
365.033	2.82	1013421	WORD	n/a	wordpools/wordpool_EN.txt	WOOD	12	3	n/a	n/a	pyFR	1	TJ037
367.853	2.604	1016241	WORD	n/a	wordpools/wordpool_EN.txt	DOCK	13	3	n/a	n/a	pyFR	1	TJ037
370.457	2.704	1018845	WORD	n/a	wordpools/wordpool_EN.txt	BOOK	14	3	n/a	n/a	pyFR	1	TJ037
373.161	1.621	1021549	WORD	n/a	wordpools/wordpool_EN.txt	DOOR	15	3	n/a	n/a	pyFR	1	TJ037
374.782	1.0	n/a	START	n/a	n/a	n/a	n/a	3	[-999 -999 -999]	-999	pyFR	1	TJ037
375.782	3.471	n/a	PROB	n/a	n/a	n/a	n/a	3	[3 5 4]	12	pyFR	1	TJ037
379.253	3.422	n/a	PROB	n/a	n/a	n/a	n/a	3	[7 4 5]	16	pyFR	1	TJ037
382.675	3.454	n/a	PROB	n/a	n/a	n/a	n/a	3	[9 2 6]	17	pyFR	1	TJ037
386.129	3.573	n/a	PROB	n/a	n/a	n/a	n/a	3	[5 2 8]	15	pyFR	1	TJ037
389.702	2.82	n/a	PROB	n/a	n/a	n/a	n/a	3	[4 3 4]	11	pyFR	1	TJ037
392.522	3.031	n/a	PROB	n/a	n/a	n/a	n/a	3	[9 7 7]	23	pyFR	1	TJ037
395.553	1.143	n/a	STOP	n/a	n/a	n/a	n/a	3	[-999 -999 -999]	-999	pyFR	1	TJ037
396.696	0.42	1045084	REC_START	n/a	n/a	n/a	-999	3	n/a	n/a	pyFR	1	TJ037
397.116	0.575	1045504	REC_WORD	0.575	n/a	FLAME	-999	3	n/a	n/a	pyFR	1	TJ037
397.691	0.569	1046079	REC_WORD	0.569	n/a	SWORD	-999	3	n/a	n/a	pyFR	1	TJ037
398.26	1.213	1046648	REC_WORD	1.213	n/a	WORD	-999	3	n/a	n/a	pyFR	1	TJ037
399.473	0.546	1047861	REC_WORD_VV	0.546	n/a	VV	-999	3	n/a	n/a	pyFR	1	TJ037
400.019	0.534	1048407	REC_WORD	0.534	n/a	COIN	-999	3	n/a	n/a	pyFR	1	TJ037
400.553	0.36	1048941	REC_WORD	0.36	n/a	DUCK	-999	3	n/a	n/a	pyFR	1	TJ037
400.913	2.986	1049301	REC_WORD	2.986	n/a	TOSS	-999	3	n/a	n/a	pyFR	1	TJ037
403.899	0.568	1052287	REC_WORD	0.568	n/a	PICK	-999	3	n/a	n/a	pyFR	1	TJ037
404.467	28.808	1052855	REC_WORD	28.808	n/a	PLAY	-999	3	n/a	n/a	pyFR	1	TJ037
433.275	1.0	1081663	REC_WORD	1.0	n/a	FROG	-999	3	n/a	n/a	pyFR	1	TJ037
434.275	10.406	1082663	REC_WORD_VV	10.406	n/a	VV	-999	3	n/a	n/a	pyFR	1	TJ037
444.681	0.016	1093069	TRIAL	n/a	n/a	n/a	-999	4	n/a	n/a	pyFR	1	TJ037
444.697	2.803	1093085	ORIENT	n/a	n/a	n/a	-999	4	n/a	n/a	pyFR	1	TJ037
447.5	2.536	1095888	WORD	n/a	wordpools/wordpool_EN.txt	MAZE	1	4	n/a	n/a	pyFR	1	TJ037
450.036	2.705	1098424	WORD	n/a	wordpools/wordpool_EN.txt	BLUSH	2	4	n/a	n/a	pyFR	1	TJ037
452.741	2.536	1101129	WORD	n/a	wordpools/wordpool_EN.txt	TAPE	3	4	n/a	n/a	pyFR	1	TJ037
455.277	2.621	1103665	WORD	n/a	wordpools/wordpool_EN.txt	FLAG	4	4	n/a	n/a	pyFR	1	TJ037
457.898	2.755	1106286	WORD	n/a	wordpools/wordpool_EN.txt	TREE	5	4	n/a	n/a	pyFR	1	TJ037
460.653	2.636	1109041	WORD	n/a	wordpools/wordpool_EN.txt	CHAIR	6	4	n/a	n/a	pyFR	1	TJ037
463.289	2.77	1111677	WORD	n/a	wordpools/wordpool_EN.txt	FARM	7	4	n/a	n/a	pyFR	1	TJ037
466.059	2.705	1114447	WORD	n/a	wordpools/wordpool_EN.txt	JAR	8	4	n/a	n/a	pyFR	1	TJ037
468.764	2.469	1117152	WORD	n/a	wordpools/wordpool_EN.txt	HAWK	9	4	n/a	n/a	pyFR	1	TJ037
471.233	2.522	1119621	WORD	n/a	wordpools/wordpool_EN.txt	CLOWN	10	4	n/a	n/a	pyFR	1	TJ037
473.755	2.769	1122143	WORD	n/a	wordpools/wordpool_EN.txt	SINK	11	4	n/a	n/a	pyFR	1	TJ037
476.524	2.437	1124912	WORD	n/a	wordpools/wordpool_EN.txt	POOL	12	4	n/a	n/a	pyFR	1	TJ037
478.961	2.821	1127348	WORD	n/a	wordpools/wordpool_EN.txt	CROW	13	4	n/a	n/a	pyFR	1	TJ037
481.782	2.503	1130169	WORD	n/a	wordpools/wordpool_EN.txt	INK	14	4	n/a	n/a	pyFR	1	TJ037
484.285	1.621	1132672	WORD	n/a	wordpools/wordpool_EN.txt	GEESE	15	4	n/a	n/a	pyFR	1	TJ037
485.906	1.15	n/a	START	n/a	n/a	n/a	n/a	4	[-999 -999 -999]	-999	pyFR	1	TJ037
487.056	3.589	n/a	PROB	n/a	n/a	n/a	n/a	4	[8 5 4]	17	pyFR	1	TJ037
490.645	3.855	n/a	PROB	n/a	n/a	n/a	n/a	4	[2 8 5]	15	pyFR	1	TJ037
494.5	2.77	n/a	PROB	n/a	n/a	n/a	n/a	4	[7 3 2]	12	pyFR	1	TJ037
497.27	3.456	n/a	PROB	n/a	n/a	n/a	n/a	4	[9 9 1]	19	pyFR	1	TJ037
500.726	9.031	n/a	PROB	n/a	n/a	n/a	n/a	4	[9 6 5]	20	pyFR	1	TJ037
509.757	1.133	n/a	STOP	n/a	n/a	n/a	n/a	4	[-999 -999 -999]	-999	pyFR	1	TJ037
510.89	0.397	1159277	REC_START	n/a	n/a	n/a	-999	4	n/a	n/a	pyFR	1	TJ037
511.287	0.298	1159674	REC_WORD	0.298	n/a	MAZE	-999	4	n/a	n/a	pyFR	1	TJ037
511.585	0.583	1159972	REC_WORD	0.583	n/a	FLAP	-999	4	n/a	n/a	pyFR	1	TJ037
512.168	0.386	1160555	REC_WORD	0.386	n/a	TAR	-999	4	n/a	n/a	pyFR	1	TJ037
512.554	0.473	1160941	REC_WORD	0.473	n/a	JAR	-999	4	n/a	n/a	pyFR	1	TJ037
513.027	1.0	1161414	REC_WORD	1.0	n/a	HAWK	-999	4	n/a	n/a	pyFR	1	TJ037
514.027	1.091	1162414	REC_WORD_VV	1.091	n/a	VV	-999	4	n/a	n/a	pyFR	1	TJ037
515.118	3.432	1163505	REC_WORD	3.432	n/a	ZOO	-999	4	n/a	n/a	pyFR	1	TJ037
518.55	8.861	1166937	REC_WORD	8.861	n/a	COIN	-999	4	n/a	n/a	pyFR	1	TJ037
527.411	31.114	1175798	REC_WORD	31.114	n/a	FUR	-999	4	n/a	n/a	pyFR	1	TJ037
558.525	0.015	1206912	TRIAL	n/a	n/a	n/a	-999	5	n/a	n/a	pyFR	1	TJ037
558.54	2.838	1206927	ORIENT	n/a	n/a	n/a	-999	5	n/a	n/a	pyFR	1	TJ037
561.378	2.486	1209765	WORD	n/a	wordpools/wordpool_EN.txt	STOVE	1	5	n/a	n/a	pyFR	1	TJ037
563.864	2.705	1212251	WORD	n/a	wordpools/wordpool_EN.txt	GLASS	2	5	n/a	n/a	pyFR	1	TJ037
566.569	2.686	1214956	WORD	n/a	wordpools/wordpool_EN.txt	DRESS	3	5	n/a	n/a	pyFR	1	TJ037
569.255	2.771	1217642	WORD	n/a	wordpools/wordpool_EN.txt	SPARK	4	5	n/a	n/a	pyFR	1	TJ037
572.026	2.621	1220413	WORD	n/a	wordpools/wordpool_EN.txt	PEARL	5	5	n/a	n/a	pyFR	1	TJ037
574.647	2.536	1223034	WORD	n/a	wordpools/wordpool_EN.txt	CORN	6	5	n/a	n/a	pyFR	1	TJ037
577.183	2.771	1225570	WORD	n/a	wordpools/wordpool_EN.txt	BALL	7	5	n/a	n/a	pyFR	1	TJ037
579.954	2.487	1228341	WORD	n/a	wordpools/wordpool_EN.txt	ROSE	8	5	n/a	n/a	pyFR	1	TJ037
582.441	2.604	1230828	WORD	n/a	wordpools/wordpool_EN.txt	PIE	9	5	n/a	n/a	pyFR	1	TJ037
585.045	2.537	1233432	WORD	n/a	wordpools/wordpool_EN.txt	FROG	10	5	n/a	n/a	pyFR	1	TJ037
587.582	2.553	1235969	WORD	n/a	wordpools/wordpool_EN.txt	ICE	11	5	n/a	n/a	pyFR	1	TJ037
590.135	2.622	1238522	WORD	n/a	wordpools/wordpool_EN.txt	BRIDGE	12	5	n/a	n/a	pyFR	1	TJ037
592.757	2.435	1241144	WORD	n/a	wordpools/wordpool_EN.txt	STORE	13	5	n/a	n/a	pyFR	1	TJ037
595.192	2.687	1243579	WORD	n/a	wordpools/wordpool_EN.txt	MAT	14	5	n/a	n/a	pyFR	1	TJ037
597.879	1.621	1246266	WORD	n/a	wordpools/wordpool_EN.txt	BOOT	15	5	n/a	n/a	pyFR	1	TJ037
599.5	1.101	n/a	START	n/a	n/a	n/a	n/a	5	[-999 -999 -999]	-999	pyFR	1	TJ037
600.601	4.322	n/a	PROB	n/a	n/a	n/a	n/a	5	[3 1 7]	11	pyFR	1	TJ037
604.923	3.405	n/a	PROB	n/a	n/a	n/a	n/a	5	[5 6 2]	13	pyFR	1	TJ037
608.328	2.77	n/a	PROB	n/a	n/a	n/a	n/a	5	[4 6 4]	14	pyFR	1	TJ037
611.098	3.772	n/a	PROB	n/a	n/a	n/a	n/a	5	[7 8 6]	21	pyFR	1	TJ037
614.87	4.739	n/a	PROB	n/a	n/a	n/a	n/a	5	[5 8 3]	16	pyFR	1	TJ037
619.609	1.121	n/a	STOP	n/a	n/a	n/a	n/a	5	[-999 -999 -999]	-999	pyFR	1	TJ037
620.73	0.725	1269117	REC_START	n/a	n/a	n/a	-999	5	n/a	n/a	pyFR	1	TJ037
621.455	0.489	1269842	REC_WORD	0.489	n/a	ROSE	-999	5	n/a	n/a	pyFR	1	TJ037
621.944	0.383	1270331	REC_WORD	0.383	n/a	BALL	-999	5	n/a	n/a	pyFR	1	TJ037
622.327	0.464	1270714	REC_WORD	0.464	n/a	DRY	-999	5	n/a	n/a	pyFR	1	TJ037
622.791	1.332	1271178	REC_WORD	1.332	n/a	ICE	-999	5	n/a	n/a	pyFR	1	TJ037
624.123	1.325	1272510	REC_WORD	1.325	n/a	STORE	-999	5	n/a	n/a	pyFR	1	TJ037
625.448	4.166	1273835	REC_WORD_VV	4.166	n/a	VV	-999	5	n/a	n/a	pyFR	1	TJ037
629.614	0.326	1278001	REC_WORD	0.326	n/a	TWIN	-999	5	n/a	n/a	pyFR	1	TJ037
629.94	1.647	1278327	REC_WORD	1.647	n/a	FROG	-999	5	n/a	n/a	pyFR	1	TJ037
631.587	3.477	1279974	REC_WORD_VV	3.477	n/a	VV	-999	5	n/a	n/a	pyFR	1	TJ037
635.064	33.166	1283451	REC_WORD	33.166	n/a	FORK	-999	5	n/a	n/a	pyFR	1	TJ037
668.23	0.016	1316616	TRIAL	n/a	n/a	n/a	-999	6	n/a	n/a	pyFR	1	TJ037
668.246	2.871	1316632	ORIENT	n/a	n/a	n/a	-999	6	n/a	n/a	pyFR	1	TJ037
671.117	2.721	1319503	WORD	n/a	wordpools/wordpool_EN.txt	CUP	1	6	n/a	n/a	pyFR	1	TJ037
673.838	2.771	1322224	WORD	n/a	wordpools/wordpool_EN.txt	BREAD	2	6	n/a	n/a	pyFR	1	TJ037
676.609	2.435	1324995	WORD	n/a	wordpools/wordpool_EN.txt	CART	3	6	n/a	n/a	pyFR	1	TJ037
679.044	2.755	1327430	WORD	n/a	wordpools/wordpool_EN.txt	SLIME	4	6	n/a	n/a	pyFR	1	TJ037
681.799	2.686	1330185	WORD	n/a	wordpools/wordpool_EN.txt	PASTE	5	6	n/a	n/a	pyFR	1	TJ037
684.485	2.671	1332871	WORD	n/a	wordpools/wordpool_EN.txt	FLUTE	6	6	n/a	n/a	pyFR	1	TJ037
687.156	2.787	1335542	WORD	n/a	wordpools/wordpool_EN.txt	PANTS	7	6	n/a	n/a	pyFR	1	TJ037
689.943	2.722	1338329	WORD	n/a	wordpools/wordpool_EN.txt	PET	8	6	n/a	n/a	pyFR	1	TJ037
692.665	2.569	1341051	WORD	n/a	wordpools/wordpool_EN.txt	STRAW	9	6	n/a	n/a	pyFR	1	TJ037
695.234	2.67	1343620	WORD	n/a	wordpools/wordpool_EN.txt	PEA	10	6	n/a	n/a	pyFR	1	TJ037
697.904	2.471	1346290	WORD	n/a	wordpools/wordpool_EN.txt	KITE	11	6	n/a	n/a	pyFR	1	TJ037
700.375	2.603	1348761	WORD	n/a	wordpools/wordpool_EN.txt	WOLF	12	6	n/a	n/a	pyFR	1	TJ037
702.978	2.739	1351364	WORD	n/a	wordpools/wordpool_EN.txt	FOOD	13	6	n/a	n/a	pyFR	1	TJ037
705.717	2.636	1354103	WORD	n/a	wordpools/wordpool_EN.txt	PIT	14	6	n/a	n/a	pyFR	1	TJ037
708.353	1.62	1356739	WORD	n/a	wordpools/wordpool_EN.txt	CROWN	15	6	n/a	n/a	pyFR	1	TJ037
709.973	0.883	n/a	START	n/a	n/a	n/a	n/a	6	[-999 -999 -999]	-999	pyFR	1	TJ037
710.856	3.907	n/a	PROB	n/a	n/a	n/a	n/a	6	[9 9 8]	26	pyFR	1	TJ037
714.763	3.203	n/a	PROB	n/a	n/a	n/a	n/a	6	[2 7 8]	17	pyFR	1	TJ037
717.966	4.089	n/a	PROB	n/a	n/a	n/a	n/a	6	[8 1 7]	16	pyFR	1	TJ037
722.055	5.693	n/a	PROB	n/a	n/a	n/a	n/a	6	[7 8 6]	21	pyFR	1	TJ037
727.748	5.914	n/a	PROB	n/a	n/a	n/a	n/a	6	[6 7 4]	17	pyFR	1	TJ037
733.662	1.246	n/a	STOP	n/a	n/a	n/a	n/a	6	[-999 -999 -999]	-999	pyFR	1	TJ037
734.908	0.0	1383294	REC_START	n/a	n/a	n/a	-999	6	n/a	n/a	pyFR	1	TJ037
734.908	1.368	1383294	REC_WORD_VV	1.368	n/a	VV	-999	6	n/a	n/a	pyFR	1	TJ037
736.276	0.517	1384662	REC_WORD	0.517	n/a	SLIME	-999	6	n/a	n/a	pyFR	1	TJ037
736.793	0.423	1385179	REC_WORD	0.423	n/a	PASTE	-999	6	n/a	n/a	pyFR	1	TJ037
737.216	0.635	1385602	REC_WORD	0.635	n/a	FOOD	-999	6	n/a	n/a	pyFR	1	TJ037
737.851	0.355	1386237	REC_WORD	0.355	n/a	DOCK	-999	6	n/a	n/a	pyFR	1	TJ037
738.206	1.776	1386592	REC_WORD	1.776	n/a	TRAY	-999	6	n/a	n/a	pyFR	1	TJ037
739.982	5.013	1388368	REC_WORD_VV	5.013	n/a	VV	-999	6	n/a	n/a	pyFR	1	TJ037
744.995	0.48	1393381	REC_WORD	0.48	n/a	SLIME	-999	6	n/a	n/a	pyFR	1	TJ037
745.475	0.152	1393861	REC_WORD	0.152	n/a	PASTE	-999	6	n/a	n/a	pyFR	1	TJ037
745.627	0.455	1394013	REC_WORD	0.455	n/a	FOOD	-999	6	n/a	n/a	pyFR	1	TJ037
746.082	0.295	1394468	REC_WORD	0.295	n/a	DOCK	-999	6	n/a	n/a	pyFR	1	TJ037
746.377	5.267	1394763	REC_WORD	5.267	n/a	TRAY	-999	6	n/a	n/a	pyFR	1	TJ037
751.644	5.174	1400030	REC_WORD	5.174	n/a	SPOON	-999	6	n/a	n/a	pyFR	1	TJ037
756.818	25.157	1405204	REC_WORD	25.157	n/a	CHOKE	-999	6	n/a	n/a	pyFR	1	TJ037
781.975	0.015	1430361	TRIAL	n/a	n/a	n/a	-999	7	n/a	n/a	pyFR	1	TJ037
781.99	2.638	1430376	ORIENT	n/a	n/a	n/a	-999	7	n/a	n/a	pyFR	1	TJ037
784.628	2.486	1433014	WORD	n/a	wordpools/wordpool_EN.txt	PHONE	1	7	n/a	n/a	pyFR	1	TJ037
787.114	2.771	1435500	WORD	n/a	wordpools/wordpool_EN.txt	NOSE	2	7	n/a	n/a	pyFR	1	TJ037
789.885	2.554	1438271	WORD	n/a	wordpools/wordpool_EN.txt	STEAM	3	7	n/a	n/a	pyFR	1	TJ037
792.439	2.737	1440825	WORD	n/a	wordpools/wordpool_EN.txt	MUG	4	7	n/a	n/a	pyFR	1	TJ037
795.176	2.538	1443562	WORD	n/a	wordpools/wordpool_EN.txt	MOTH	5	7	n/a	n/a	pyFR	1	TJ037
797.714	2.652	1446100	WORD	n/a	wordpools/wordpool_EN.txt	RIB	6	7	n/a	n/a	pyFR	1	TJ037
800.366	2.521	1448752	WORD	n/a	wordpools/wordpool_EN.txt	HEART	7	7	n/a	n/a	pyFR	1	TJ037
802.887	2.805	1451273	WORD	n/a	wordpools/wordpool_EN.txt	TOOL	8	7	n/a	n/a	pyFR	1	TJ037
805.692	2.552	1454078	WORD	n/a	wordpools/wordpool_EN.txt	DOLL	9	7	n/a	n/a	pyFR	1	TJ037
808.244	2.671	1456630	WORD	n/a	wordpools/wordpool_EN.txt	GLOVE	10	7	n/a	n/a	pyFR	1	TJ037
810.915	2.721	1459301	WORD	n/a	wordpools/wordpool_EN.txt	TEA	11	7	n/a	n/a	pyFR	1	TJ037
813.636	2.77	1462022	WORD	n/a	wordpools/wordpool_EN.txt	POND	12	7	n/a	n/a	pyFR	1	TJ037
816.406	2.587	1464792	WORD	n/a	wordpools/wordpool_EN.txt	SNAIL	13	7	n/a	n/a	pyFR	1	TJ037
818.993	2.537	1467379	WORD	n/a	wordpools/wordpool_EN.txt	ROOT	14	7	n/a	n/a	pyFR	1	TJ037
821.53	1.62	1469915	WORD	n/a	wordpools/wordpool_EN.txt	NEST	15	7	n/a	n/a	pyFR	1	TJ037
823.15	0.883	n/a	START	n/a	n/a	n/a	n/a	7	[-999 -999 -999]	-999	pyFR	1	TJ037
824.033	2.772	n/a	PROB	n/a	n/a	n/a	n/a	7	[8 1 2]	11	pyFR	1	TJ037
826.805	3.036	n/a	PROB	n/a	n/a	n/a	n/a	7	[6 1 1]	8	pyFR	1	TJ037
829.841	4.473	n/a	PROB	n/a	n/a	n/a	n/a	7	[8 7 7]	22	pyFR	1	TJ037
834.314	3.172	n/a	PROB	n/a	n/a	n/a	n/a	7	[1 5 8]	14	pyFR	1	TJ037
837.486	2.804	n/a	PROB	n/a	n/a	n/a	n/a	7	[2 2 3]	7	pyFR	1	TJ037
840.29	6.807	n/a	PROB	n/a	n/a	n/a	n/a	7	[7 4 3]	14	pyFR	1	TJ037
847.097	1.071	n/a	STOP	n/a	n/a	n/a	n/a	7	[-999 -999 -999]	-999	pyFR	1	TJ037
848.168	0.321	1496553	REC_START	n/a	n/a	n/a	-999	7	n/a	n/a	pyFR	1	TJ037
848.489	0.57	1496874	REC_WORD	0.57	n/a	PHONE	-999	7	n/a	n/a	pyFR	1	TJ037
849.059	0.351	1497444	REC_WORD	0.351	n/a	MOTH	-999	7	n/a	n/a	pyFR	1	TJ037
849.41	0.526	1497795	REC_WORD	0.526	n/a	STEAM	-999	7	n/a	n/a	pyFR	1	TJ037
849.936	0.54	1498321	REC_WORD	0.54	n/a	FACE	-999	7	n/a	n/a	pyFR	1	TJ037
850.476	4.45	1498861	REC_WORD	4.45	n/a	MUG	-999	7	n/a	n/a	pyFR	1	TJ037
854.926	0.457	1503311	REC_WORD	0.457	n/a	HOT	-999	7	n/a	n/a	pyFR	1	TJ037
855.383	1.525	1503768	REC_WORD	1.525	n/a	STOOL	-999	7	n/a	n/a	pyFR	1	TJ037
856.908	40.748	1505293	REC_WORD	40.748	n/a	PHONE	-999	7	n/a	n/a	pyFR	1	TJ037
897.656	0.016	1546041	TRIAL	n/a	n/a	n/a	-999	8	n/a	n/a	pyFR	1	TJ037
897.672	2.971	1546057	ORIENT	n/a	n/a	n/a	-999	8	n/a	n/a	pyFR	1	TJ037
900.643	2.686	1549028	WORD	n/a	wordpools/wordpool_EN.txt	STREET	1	8	n/a	n/a	pyFR	1	TJ037
903.329	2.654	1551714	WORD	n/a	wordpools/wordpool_EN.txt	CALF	2	8	n/a	n/a	pyFR	1	TJ037
905.983	2.771	1554368	WORD	n/a	wordpools/wordpool_EN.txt	FOG	3	8	n/a	n/a	pyFR	1	TJ037
908.754	2.787	1557139	WORD	n/a	wordpools/wordpool_EN.txt	BAG	4	8	n/a	n/a	pyFR	1	TJ037
911.541	2.503	1559926	WORD	n/a	wordpools/wordpool_EN.txt	BOMB	5	8	n/a	n/a	pyFR	1	TJ037
914.044	2.788	1562429	WORD	n/a	wordpools/wordpool_EN.txt	WORM	6	8	n/a	n/a	pyFR	1	TJ037
916.832	2.536	1565217	WORD	n/a	wordpools/wordpool_EN.txt	GOAT	7	8	n/a	n/a	pyFR	1	TJ037
919.368	2.738	1567753	WORD	n/a	wordpools/wordpool_EN.txt	BOAT	8	8	n/a	n/a	pyFR	1	TJ037
922.106	2.638	1570491	WORD	n/a	wordpools/wordpool_EN.txt	VAN	9	8	n/a	n/a	pyFR	1	TJ037
924.744	2.636	1573129	WORD	n/a	wordpools/wordpool_EN.txt	TRUCK	10	8	n/a	n/a	pyFR	1	TJ037
927.38	2.653	1575765	WORD	n/a	wordpools/wordpool_EN.txt	SPOON	11	8	n/a	n/a	pyFR	1	TJ037
930.033	2.772	1578418	WORD	n/a	wordpools/wordpool_EN.txt	BELL	12	8	n/a	n/a	pyFR	1	TJ037
932.805	2.703	1581190	WORD	n/a	wordpools/wordpool_EN.txt	SALT	13	8	n/a	n/a	pyFR	1	TJ037
935.508	2.704	1583893	WORD	n/a	wordpools/wordpool_EN.txt	SLUSH	14	8	n/a	n/a	pyFR	1	TJ037
938.212	1.621	1586597	WORD	n/a	wordpools/wordpool_EN.txt	STEAK	15	8	n/a	n/a	pyFR	1	TJ037
939.833	1.166	n/a	START	n/a	n/a	n/a	n/a	8	[-999 -999 -999]	-999	pyFR	1	TJ037
940.999	3.255	n/a	PROB	n/a	n/a	n/a	n/a	8	[4 6 8]	18	pyFR	1	TJ037
944.254	3.755	n/a	PROB	n/a	n/a	n/a	n/a	8	[4 8 4]	16	pyFR	1	TJ037
948.009	3.522	n/a	PROB	n/a	n/a	n/a	n/a	8	[2 3 2]	7	pyFR	1	TJ037
951.531	4.005	n/a	PROB	n/a	n/a	n/a	n/a	8	[4 2 8]	14	pyFR	1	TJ037
955.536	2.671	n/a	PROB	n/a	n/a	n/a	n/a	8	[8 2 3]	13	pyFR	1	TJ037
958.207	3.343	n/a	PROB	n/a	n/a	n/a	n/a	8	[9 7 7]	23	pyFR	1	TJ037
961.55	1.198	n/a	STOP	n/a	n/a	n/a	n/a	8	[-999 -999 -999]	-999	pyFR	1	TJ037
962.748	0.533	1611133	REC_START	n/a	n/a	n/a	-999	8	n/a	n/a	pyFR	1	TJ037
963.281	0.286	1611666	REC_WORD	0.286	n/a	CALF	-999	8	n/a	n/a	pyFR	1	TJ037
963.567	0.482	1611952	REC_WORD	0.482	n/a	STREET	-999	8	n/a	n/a	pyFR	1	TJ037
964.049	0.474	1612434	REC_WORD	0.474	n/a	BOG	-999	8	n/a	n/a	pyFR	1	TJ037
964.523	0.374	1612908	REC_WORD	0.374	n/a	BAG	-999	8	n/a	n/a	pyFR	1	TJ037
964.897	1.185	1613282	REC_WORD	1.185	n/a	BOMB	-999	8	n/a	n/a	pyFR	1	TJ037
966.082	2.738	1614467	REC_WORD_VV	2.738	n/a	VV	-999	8	n/a	n/a	pyFR	1	TJ037
968.82	2.74	1617205	REC_WORD	2.74	n/a	FORK	-999	8	n/a	n/a	pyFR	1	TJ037
971.56	6.024	1619945	REC_WORD	6.024	n/a	STEAK	-999	8	n/a	n/a	pyFR	1	TJ037
977.584	18.916	1625969	REC_WORD	18.916	n/a	HAWK	-999	8	n/a	n/a	pyFR	1	TJ037
996.5	1.0	1644884	REC_WORD	1.0	n/a	BOMB	-999	8	n/a	n/a	pyFR	1	TJ037
997.5	1.0	1645884	REC_WORD_VV	1.0	n/a	VV	-999	8	n/a	n/a	pyFR	1	TJ037
998.5	12.833	1646884	REC_WORD_VV	12.833	n/a	VV	-999	8	n/a	n/a	pyFR	1	TJ037
1011.333	0.016	1659717	TRIAL	n/a	n/a	n/a	-999	9	n/a	n/a	pyFR	1	TJ037
1011.349	2.837	1659733	ORIENT	n/a	n/a	n/a	-999	9	n/a	n/a	pyFR	1	TJ037
1014.186	2.771	1662570	WORD	n/a	wordpools/wordpool_EN.txt	CAT	1	9	n/a	n/a	pyFR	1	TJ037
1016.957	2.52	1665341	WORD	n/a	wordpools/wordpool_EN.txt	CARD	2	9	n/a	n/a	pyFR	1	TJ037
1019.477	2.587	1667861	WORD	n/a	wordpools/wordpool_EN.txt	SPRING	3	9	n/a	n/a	pyFR	1	TJ037
1022.064	2.453	1670448	WORD	n/a	wordpools/wordpool_EN.txt	BEAR	4	9	n/a	n/a	pyFR	1	TJ037
1024.517	2.471	1672901	WORD	n/a	wordpools/wordpool_EN.txt	FOAM	5	9	n/a	n/a	pyFR	1	TJ037
1026.988	2.754	1675372	WORD	n/a	wordpools/wordpool_EN.txt	SMILE	6	9	n/a	n/a	pyFR	1	TJ037
1029.742	2.803	1678126	WORD	n/a	wordpools/wordpool_EN.txt	SHIRT	7	9	n/a	n/a	pyFR	1	TJ037
1032.545	2.637	1680929	WORD	n/a	wordpools/wordpool_EN.txt	SHEEP	8	9	n/a	n/a	pyFR	1	TJ037
1035.182	2.721	1683566	WORD	n/a	wordpools/wordpool_EN.txt	LAMB	9	9	n/a	n/a	pyFR	1	TJ037
1037.903	2.705	1686287	WORD	n/a	wordpools/wordpool_EN.txt	BRICK	10	9	n/a	n/a	pyFR	1	TJ037
1040.608	2.653	1688992	WORD	n/a	wordpools/wordpool_EN.txt	BEACH	11	9	n/a	n/a	pyFR	1	TJ037
1043.261	2.804	1691645	WORD	n/a	wordpools/wordpool_EN.txt	THUMB	12	9	n/a	n/a	pyFR	1	TJ037
1046.065	2.621	1694449	WORD	n/a	wordpools/wordpool_EN.txt	SHOE	13	9	n/a	n/a	pyFR	1	TJ037
1048.686	2.669	1697070	WORD	n/a	wordpools/wordpool_EN.txt	TOAD	14	9	n/a	n/a	pyFR	1	TJ037
1051.355	1.604	1699739	WORD	n/a	wordpools/wordpool_EN.txt	CANE	15	9	n/a	n/a	pyFR	1	TJ037
1052.959	1.167	n/a	START	n/a	n/a	n/a	n/a	9	[-999 -999 -999]	-999	pyFR	1	TJ037
1054.126	4.39	n/a	PROB	n/a	n/a	n/a	n/a	9	[1 5 1]	7	pyFR	1	TJ037
1058.516	8.612	n/a	PROB	n/a	n/a	n/a	n/a	9	[8 9 4]	21	pyFR	1	TJ037
1067.128	3.855	n/a	PROB	n/a	n/a	n/a	n/a	9	[6 8 9]	23	pyFR	1	TJ037
1070.983	2.955	n/a	PROB	n/a	n/a	n/a	n/a	9	[3 5 4]	12	pyFR	1	TJ037
1073.938	1.068	n/a	STOP	n/a	n/a	n/a	n/a	9	[-999 -999 -999]	-999	pyFR	1	TJ037
1075.006	0.446	1723390	REC_START	n/a	n/a	n/a	-999	9	n/a	n/a	pyFR	1	TJ037
1075.452	0.215	1723836	REC_WORD	0.215	n/a	CAT	-999	9	n/a	n/a	pyFR	1	TJ037
1075.667	0.379	1724051	REC_WORD	0.379	n/a	FAIR	-999	9	n/a	n/a	pyFR	1	TJ037
1076.046	0.323	1724430	REC_WORD	0.323	n/a	FOOD	-999	9	n/a	n/a	pyFR	1	TJ037
1076.369	0.79	1724753	REC_WORD	0.79	n/a	PHONE	-999	9	n/a	n/a	pyFR	1	TJ037
1077.159	1.82	1725543	REC_WORD	1.82	n/a	CANE	-999	9	n/a	n/a	pyFR	1	TJ037
1078.979	22.608	1727363	REC_WORD	22.608	n/a	GOAT	-999	9	n/a	n/a	pyFR	1	TJ037
1101.587	2.181	1749971	REC_WORD	2.181	n/a	CAR	-999	9	n/a	n/a	pyFR	1	TJ037
1103.768	18.456	1752152	REC_WORD_VV	18.456	n/a	VV	-999	9	n/a	n/a	pyFR	1	TJ037
1122.224	0.015	1770608	TRIAL	n/a	n/a	n/a	-999	10	n/a	n/a	pyFR	1	TJ037
1122.239	2.904	1770623	ORIENT	n/a	n/a	n/a	-999	10	n/a	n/a	pyFR	1	TJ037
1125.143	2.488	1773527	WORD	n/a	wordpools/wordpool_EN.txt	GOLD	1	10	n/a	n/a	pyFR	1	TJ037
1127.631	2.553	1776015	WORD	n/a	wordpools/wordpool_EN.txt	BENCH	2	10	n/a	n/a	pyFR	1	TJ037
1130.184	2.704	1778568	WORD	n/a	wordpools/wordpool_EN.txt	SPEAR	3	10	n/a	n/a	pyFR	1	TJ037
1132.888	2.637	1781272	WORD	n/a	wordpools/wordpool_EN.txt	WORLD	4	10	n/a	n/a	pyFR	1	TJ037
1135.525	2.437	1783909	WORD	n/a	wordpools/wordpool_EN.txt	TRAY	5	10	n/a	n/a	pyFR	1	TJ037
1137.962	2.604	1786346	WORD	n/a	wordpools/wordpool_EN.txt	STAIR	6	10	n/a	n/a	pyFR	1	TJ037
1140.566	2.803	1788950	WORD	n/a	wordpools/wordpool_EN.txt	SLEEVE	7	10	n/a	n/a	pyFR	1	TJ037
1143.369	2.47	1791753	WORD	n/a	wordpools/wordpool_EN.txt	SHIP	8	10	n/a	n/a	pyFR	1	TJ037
1145.839	2.621	1794223	WORD	n/a	wordpools/wordpool_EN.txt	CHALK	9	10	n/a	n/a	pyFR	1	TJ037
1148.46	2.654	1796844	WORD	n/a	wordpools/wordpool_EN.txt	DART	10	10	n/a	n/a	pyFR	1	TJ037
1151.114	2.787	1799498	WORD	n/a	wordpools/wordpool_EN.txt	WEED	11	10	n/a	n/a	pyFR	1	TJ037
1153.901	2.52	1802285	WORD	n/a	wordpools/wordpool_EN.txt	HEN	12	10	n/a	n/a	pyFR	1	TJ037
1156.421	2.537	1804805	WORD	n/a	wordpools/wordpool_EN.txt	WEB	13	10	n/a	n/a	pyFR	1	TJ037
1158.958	2.822	1807342	WORD	n/a	wordpools/wordpool_EN.txt	FOOT	14	10	n/a	n/a	pyFR	1	TJ037
1161.78	1.619	1810163	WORD	n/a	wordpools/wordpool_EN.txt	BATH	15	10	n/a	n/a	pyFR	1	TJ037
1163.399	0.967	n/a	START	n/a	n/a	n/a	n/a	10	[-999 -999 -999]	-999	pyFR	1	TJ037
1164.366	8.446	n/a	PROB	n/a	n/a	n/a	n/a	10	[8 9 4]	23	pyFR	1	TJ037
1172.812	3.47	n/a	PROB	n/a	n/a	n/a	n/a	10	[6 4 3]	13	pyFR	1	TJ037
1176.282	7.027	n/a	PROB	n/a	n/a	n/a	n/a	10	[7 6 2]	15	pyFR	1	TJ037
1183.309	2.602	n/a	PROB	n/a	n/a	n/a	n/a	10	[1 3 1]	5	pyFR	1	TJ037
1185.911	1.138	n/a	STOP	n/a	n/a	n/a	n/a	10	[-999 -999 -999]	-999	pyFR	1	TJ037
1187.049	0.449	1835432	REC_START	n/a	n/a	n/a	-999	10	n/a	n/a	pyFR	1	TJ037
1187.498	0.376	1835881	REC_WORD	0.376	n/a	GOLD	-999	10	n/a	n/a	pyFR	1	TJ037
1187.874	0.377	1836257	REC_WORD	0.377	n/a	TRENCH	-999	10	n/a	n/a	pyFR	1	TJ037
1188.251	0.615	1836634	REC_WORD	0.615	n/a	SPEAR	-999	10	n/a	n/a	pyFR	1	TJ037
1188.866	1.26	1837249	REC_WORD	1.26	n/a	TRAIN	-999	10	n/a	n/a	pyFR	1	TJ037
1190.126	0.531	1838509	REC_WORD	0.531	n/a	WORLD	-999	10	n/a	n/a	pyFR	1	TJ037
1190.657	0.789	1839040	REC_WORD	0.789	n/a	BENCH	-999	10	n/a	n/a	pyFR	1	TJ037
1191.446	6.173	1839829	REC_WORD	6.173	n/a	CAT	-999	10	n/a	n/a	pyFR	1	TJ037
1197.619	13.055	1846002	REC_WORD	13.055	n/a	BRUSH	-999	10	n/a	n/a	pyFR	1	TJ037
1210.674	23.558	1859057	REC_WORD	23.558	n/a	PALM	-999	10	n/a	n/a	pyFR	1	TJ037
1234.232	0.016	1882615	TRIAL	n/a	n/a	n/a	-999	11	n/a	n/a	pyFR	1	TJ037
1234.248	3.021	1882631	ORIENT	n/a	n/a	n/a	-999	11	n/a	n/a	pyFR	1	TJ037
1237.269	2.72	1885652	WORD	n/a	wordpools/wordpool_EN.txt	TANK	1	11	n/a	n/a	pyFR	1	TJ037
1239.989	2.471	1888372	WORD	n/a	wordpools/wordpool_EN.txt	OAK	2	11	n/a	n/a	pyFR	1	TJ037
1242.46	2.42	1890843	WORD	n/a	wordpools/wordpool_EN.txt	PARK	3	11	n/a	n/a	pyFR	1	TJ037
1244.88	2.503	1893263	WORD	n/a	wordpools/wordpool_EN.txt	CHIEF	4	11	n/a	n/a	pyFR	1	TJ037
1247.383	2.571	1895766	WORD	n/a	wordpools/wordpool_EN.txt	CUBE	5	11	n/a	n/a	pyFR	1	TJ037
1249.954	2.788	1898337	WORD	n/a	wordpools/wordpool_EN.txt	SOAP	6	11	n/a	n/a	pyFR	1	TJ037
1252.742	2.769	1901125	WORD	n/a	wordpools/wordpool_EN.txt	ELF	7	11	n/a	n/a	pyFR	1	TJ037
1255.511	2.521	1903894	WORD	n/a	wordpools/wordpool_EN.txt	SCHOOL	8	11	n/a	n/a	pyFR	1	TJ037
1258.032	2.571	1906415	WORD	n/a	wordpools/wordpool_EN.txt	CLIFF	9	11	n/a	n/a	pyFR	1	TJ037
1260.603	2.72	1908986	WORD	n/a	wordpools/wordpool_EN.txt	MOOSE	10	11	n/a	n/a	pyFR	1	TJ037
1263.323	2.67	1911706	WORD	n/a	wordpools/wordpool_EN.txt	BEAN	11	11	n/a	n/a	pyFR	1	TJ037
1265.993	2.554	1914376	WORD	n/a	wordpools/wordpool_EN.txt	GRAPE	12	11	n/a	n/a	pyFR	1	TJ037
1268.547	2.486	1916930	WORD	n/a	wordpools/wordpool_EN.txt	DAD	13	11	n/a	n/a	pyFR	1	TJ037
1271.033	2.722	1919416	WORD	n/a	wordpools/wordpool_EN.txt	YARD	14	11	n/a	n/a	pyFR	1	TJ037
1273.755	1.603	1922138	WORD	n/a	wordpools/wordpool_EN.txt	LAMP	15	11	n/a	n/a	pyFR	1	TJ037
1275.358	0.983	n/a	START	n/a	n/a	n/a	n/a	11	[-999 -999 -999]	-999	pyFR	1	TJ037
1276.341	2.987	n/a	PROB	n/a	n/a	n/a	n/a	11	[4 9 9]	22	pyFR	1	TJ037
1279.328	4.741	n/a	PROB	n/a	n/a	n/a	n/a	11	[4 6 7]	17	pyFR	1	TJ037
1284.069	2.621	n/a	PROB	n/a	n/a	n/a	n/a	11	[3 6 3]	12	pyFR	1	TJ037
1286.69	3.37	n/a	PROB	n/a	n/a	n/a	n/a	11	[1 2 4]	7	pyFR	1	TJ037
1290.06	3.54	n/a	PROB	n/a	n/a	n/a	n/a	11	[6 3 9]	18	pyFR	1	TJ037
1293.6	3.371	n/a	PROB	n/a	n/a	n/a	n/a	11	[3 5 6]	14	pyFR	1	TJ037
1296.971	1.235	n/a	STOP	n/a	n/a	n/a	n/a	11	[-999 -999 -999]	-999	pyFR	1	TJ037
1298.206	0.271	1946589	REC_START	n/a	n/a	n/a	-999	11	n/a	n/a	pyFR	1	TJ037
1298.477	0.46	1946860	REC_WORD	0.46	n/a	TANK	-999	11	n/a	n/a	pyFR	1	TJ037
1298.937	0.406	1947320	REC_WORD	0.406	n/a	OAK	-999	11	n/a	n/a	pyFR	1	TJ037
1299.343	0.292	1947726	REC_WORD	0.292	n/a	PARK	-999	11	n/a	n/a	pyFR	1	TJ037
1299.635	1.87	1948018	REC_WORD	1.87	n/a	TREE	-999	11	n/a	n/a	pyFR	1	TJ037
1301.505	11.948	1949888	REC_WORD_VV	11.948	n/a	VV	-999	11	n/a	n/a	pyFR	1	TJ037
1313.453	1.712	1961836	REC_WORD	1.712	n/a	HAWK	-999	11	n/a	n/a	pyFR	1	TJ037
1315.165	8.798	1963548	REC_WORD_VV	8.798	n/a	VV	-999	11	n/a	n/a	pyFR	1	TJ037
1323.963	2.622	1972346	REC_WORD	2.622	n/a	PARK	-999	11	n/a	n/a	pyFR	1	TJ037
1326.585	18.973	1974968	REC_WORD_VV	18.973	n/a	VV	-999	11	n/a	n/a	pyFR	1	TJ037
1345.558	0.015	1993940	TRIAL	n/a	n/a	n/a	-999	12	n/a	n/a	pyFR	1	TJ037
1345.573	2.787	1993955	ORIENT	n/a	n/a	n/a	-999	12	n/a	n/a	pyFR	1	TJ037
1348.36	2.62	1996742	WORD	n/a	wordpools/wordpool_EN.txt	STORM	1	12	n/a	n/a	pyFR	1	TJ037
1350.98	2.437	1999362	WORD	n/a	wordpools/wordpool_EN.txt	LIP	2	12	n/a	n/a	pyFR	1	TJ037
1353.417	2.57	2001799	WORD	n/a	wordpools/wordpool_EN.txt	STOOL	3	12	n/a	n/a	pyFR	1	TJ037
1355.987	2.588	2004369	WORD	n/a	wordpools/wordpool_EN.txt	OWL	4	12	n/a	n/a	pyFR	1	TJ037
1358.575	2.536	2006957	WORD	n/a	wordpools/wordpool_EN.txt	HOOK	5	12	n/a	n/a	pyFR	1	TJ037
1361.111	2.638	2009493	WORD	n/a	wordpools/wordpool_EN.txt	ARM	6	12	n/a	n/a	pyFR	1	TJ037
1363.749	2.636	2012131	WORD	n/a	wordpools/wordpool_EN.txt	HILL	7	12	n/a	n/a	pyFR	1	TJ037
1366.385	2.52	2014767	WORD	n/a	wordpools/wordpool_EN.txt	WHALE	8	12	n/a	n/a	pyFR	1	TJ037
1368.905	2.705	2017287	WORD	n/a	wordpools/wordpool_EN.txt	FENCE	9	12	n/a	n/a	pyFR	1	TJ037
1371.61	2.77	2019992	WORD	n/a	wordpools/wordpool_EN.txt	HOOF	10	12	n/a	n/a	pyFR	1	TJ037
1374.38	2.62	2022762	WORD	n/a	wordpools/wordpool_EN.txt	PLATE	11	12	n/a	n/a	pyFR	1	TJ037
1377.0	2.638	2025382	WORD	n/a	wordpools/wordpool_EN.txt	VINE	12	12	n/a	n/a	pyFR	1	TJ037
1379.638	2.453	2028020	WORD	n/a	wordpools/wordpool_EN.txt	WING	13	12	n/a	n/a	pyFR	1	TJ037
1382.091	2.671	2030473	WORD	n/a	wordpools/wordpool_EN.txt	RUG	14	12	n/a	n/a	pyFR	1	TJ037
1384.762	1.62	2033144	WORD	n/a	wordpools/wordpool_EN.txt	MUD	15	12	n/a	n/a	pyFR	1	TJ037
1386.382	1.184	n/a	START	n/a	n/a	n/a	n/a	12	[-999 -999 -999]	-999	pyFR	1	TJ037
1387.566	3.805	n/a	PROB	n/a	n/a	n/a	n/a	12	[5 7 7]	19	pyFR	1	TJ037
1391.371	5.308	n/a	PROB	n/a	n/a	n/a	n/a	12	[3 4 9]	116	pyFR	1	TJ037
1396.679	3.688	n/a	PROB	n/a	n/a	n/a	n/a	12	[9 7 1]	17	pyFR	1	TJ037
1400.367	3.538	n/a	PROB	n/a	n/a	n/a	n/a	12	[4 4 5]	13	pyFR	1	TJ037
1403.905	3.382	n/a	PROB	n/a	n/a	n/a	n/a	12	[4 4 2]	10	pyFR	1	TJ037
1407.287	1.225	n/a	STOP	n/a	n/a	n/a	n/a	12	[-999 -999 -999]	-999	pyFR	1	TJ037
1408.512	0.252	2056894	REC_START	n/a	n/a	n/a	-999	12	n/a	n/a	pyFR	1	TJ037
1408.764	0.613	2057146	REC_WORD	0.613	n/a	STORM	-999	12	n/a	n/a	pyFR	1	TJ037
1409.377	0.203	2057759	REC_WORD	0.203	n/a	LAKE	-999	12	n/a	n/a	pyFR	1	TJ037
1409.58	0.568	2057962	REC_WORD	0.568	n/a	SCHOOL	-999	12	n/a	n/a	pyFR	1	TJ037
1410.148	0.37	2058530	REC_WORD	0.37	n/a	ARK	-999	12	n/a	n/a	pyFR	1	TJ037
1410.518	2.877	2058900	REC_WORD	2.877	n/a	VINE	-999	12	n/a	n/a	pyFR	1	TJ037
1413.395	1.0	2061777	REC_WORD	1.0	n/a	CALF	-999	12	n/a	n/a	pyFR	1	TJ037
1414.395	0.751	2062777	REC_WORD_VV	0.751	n/a	VV	-999	12	n/a	n/a	pyFR	1	TJ037
1415.146	10.525	2063528	REC_WORD	10.525	n/a	HOOF	-999	12	n/a	n/a	pyFR	1	TJ037
1425.671	1.0	2074053	REC_WORD	1.0	n/a	RIDE	-999	12	n/a	n/a	pyFR	1	TJ037
1426.671	1.0	2075053	REC_WORD_VV	1.0	n/a	VV	-999	12	n/a	n/a	pyFR	1	TJ037
1427.671	1.0	2076053	REC_WORD_VV	1.0	n/a	VV	-999	12	n/a	n/a	pyFR	1	TJ037
1428.671	12.212	2077053	REC_WORD_VV	12.212	n/a	VV	-999	12	n/a	n/a	pyFR	1	TJ037
1440.883	15.631	2089265	REC_WORD_VV	15.631	n/a	VV	-999	12	n/a	n/a	pyFR	1	TJ037
1456.514	0.016	2104896	TRIAL	n/a	n/a	n/a	-999	13	n/a	n/a	pyFR	1	TJ037
1456.53	2.67	2104912	ORIENT	n/a	n/a	n/a	-999	13	n/a	n/a	pyFR	1	TJ037
1459.2	2.737	2107582	WORD	n/a	wordpools/wordpool_EN.txt	ANT	1	13	n/a	n/a	pyFR	1	TJ037
1461.937	2.622	2110319	WORD	n/a	wordpools/wordpool_EN.txt	JET	2	13	n/a	n/a	pyFR	1	TJ037
1464.559	2.753	2112941	WORD	n/a	wordpools/wordpool_EN.txt	BAND	3	13	n/a	n/a	pyFR	1	TJ037
1467.312	2.587	2115694	WORD	n/a	wordpools/wordpool_EN.txt	EEL	4	13	n/a	n/a	pyFR	1	TJ037
1469.899	2.754	2118281	WORD	n/a	wordpools/wordpool_EN.txt	THREAD	5	13	n/a	n/a	pyFR	1	TJ037
1472.653	2.486	2121035	WORD	n/a	wordpools/wordpool_EN.txt	DESK	6	13	n/a	n/a	pyFR	1	TJ037
1475.139	2.638	2123521	WORD	n/a	wordpools/wordpool_EN.txt	MILK	7	13	n/a	n/a	pyFR	1	TJ037
1477.777	2.737	2126159	WORD	n/a	wordpools/wordpool_EN.txt	TENT	8	13	n/a	n/a	pyFR	1	TJ037
1480.514	2.57	2128896	WORD	n/a	wordpools/wordpool_EN.txt	SEAL	9	13	n/a	n/a	pyFR	1	TJ037
1483.084	2.787	2131466	WORD	n/a	wordpools/wordpool_EN.txt	CORD	10	13	n/a	n/a	pyFR	1	TJ037
1485.871	2.604	2134253	WORD	n/a	wordpools/wordpool_EN.txt	PIG	11	13	n/a	n/a	pyFR	1	TJ037
1488.475	2.787	2136857	WORD	n/a	wordpools/wordpool_EN.txt	SUN	12	13	n/a	n/a	pyFR	1	TJ037
1491.262	2.538	2139644	WORD	n/a	wordpools/wordpool_EN.txt	NET	13	13	n/a	n/a	pyFR	1	TJ037
1493.8	2.636	2142182	WORD	n/a	wordpools/wordpool_EN.txt	STAR	14	13	n/a	n/a	pyFR	1	TJ037
1496.436	1.604	2144818	WORD	n/a	wordpools/wordpool_EN.txt	PIPE	15	13	n/a	n/a	pyFR	1	TJ037
1498.04	0.883	n/a	START	n/a	n/a	n/a	n/a	13	[-999 -999 -999]	-999	pyFR	1	TJ037
1498.923	3.505	n/a	PROB	n/a	n/a	n/a	n/a	13	[8 4 8]	20	pyFR	1	TJ037
1502.428	7.311	n/a	PROB	n/a	n/a	n/a	n/a	13	[9 7 5]	21	pyFR	1	TJ037
1509.739	4.79	n/a	PROB	n/a	n/a	n/a	n/a	13	[8 7 7]	22	pyFR	1	TJ037
1514.529	5.299	n/a	PROB	n/a	n/a	n/a	n/a	13	[3 7 8]	18	pyFR	1	TJ037
1519.828	1.194	n/a	STOP	n/a	n/a	n/a	n/a	13	[-999 -999 -999]	-999	pyFR	1	TJ037
1521.022	0.937	2169403	REC_START	n/a	n/a	n/a	-999	13	n/a	n/a	pyFR	1	TJ037
1521.959	0.517	2170340	REC_WORD_VV	0.517	n/a	VV	-999	13	n/a	n/a	pyFR	1	TJ037
1522.476	0.381	2170857	REC_WORD	0.381	n/a	ANT	-999	13	n/a	n/a	pyFR	1	TJ037
1522.857	0.447	2171238	REC_WORD	0.447	n/a	JET	-999	13	n/a	n/a	pyFR	1	TJ037
1523.304	0.337	2171685	REC_WORD	0.337	n/a	BAND	-999	13	n/a	n/a	pyFR	1	TJ037
1523.641	5.925	2172022	REC_WORD_VV	5.925	n/a	VV	-999	13	n/a	n/a	pyFR	1	TJ037
1529.566	16.58	2177947	REC_WORD	16.58	n/a	RAY	-999	13	n/a	n/a	pyFR	1	TJ037
1546.146	7.716	2194527	REC_WORD	7.716	n/a	HORSE	-999	13	n/a	n/a	pyFR	1	TJ037
1553.862	14.31	2202243	REC_WORD	14.31	n/a	CAT	-999	13	n/a	n/a	pyFR	1	TJ037
1568.172	0.016	2216553	TRIAL	n/a	n/a	n/a	-999	14	n/a	n/a	pyFR	1	TJ037
1568.188	2.77	2216569	ORIENT	n/a	n/a	n/a	-999	14	n/a	n/a	pyFR	1	TJ037
1570.958	2.789	2219339	WORD	n/a	wordpools/wordpool_EN.txt	LAWN	1	14	n/a	n/a	pyFR	1	TJ037
1573.747	2.804	2222128	WORD	n/a	wordpools/wordpool_EN.txt	DITCH	2	14	n/a	n/a	pyFR	1	TJ037
1576.551	2.569	2224932	WORD	n/a	wordpools/wordpool_EN.txt	TAIL	3	14	n/a	n/a	pyFR	1	TJ037
1579.12	2.538	2227501	WORD	n/a	wordpools/wordpool_EN.txt	GIRL	4	14	n/a	n/a	pyFR	1	TJ037
1581.658	2.486	2230039	WORD	n/a	wordpools/wordpool_EN.txt	BUSH	5	14	n/a	n/a	pyFR	1	TJ037
1584.144	2.471	2232525	WORD	n/a	wordpools/wordpool_EN.txt	QUEEN	6	14	n/a	n/a	pyFR	1	TJ037
1586.615	2.569	2234996	WORD	n/a	wordpools/wordpool_EN.txt	DUCK	7	14	n/a	n/a	pyFR	1	TJ037
1589.184	2.804	2237565	WORD	n/a	wordpools/wordpool_EN.txt	LEG	8	14	n/a	n/a	pyFR	1	TJ037
1591.988	2.789	2240369	WORD	n/a	wordpools/wordpool_EN.txt	BRUSH	9	14	n/a	n/a	pyFR	1	TJ037
1594.777	2.669	2243158	WORD	n/a	wordpools/wordpool_EN.txt	OAR	10	14	n/a	n/a	pyFR	1	TJ037
1597.446	2.771	2245827	WORD	n/a	wordpools/wordpool_EN.txt	RAIN	11	14	n/a	n/a	pyFR	1	TJ037
1600.217	2.471	2248598	WORD	n/a	wordpools/wordpool_EN.txt	FILM	12	14	n/a	n/a	pyFR	1	TJ037
1602.688	2.736	2251069	WORD	n/a	wordpools/wordpool_EN.txt	SNAKE	13	14	n/a	n/a	pyFR	1	TJ037
1605.424	2.57	2253805	WORD	n/a	wordpools/wordpool_EN.txt	COUCH	14	14	n/a	n/a	pyFR	1	TJ037
1607.994	1.605	2256375	WORD	n/a	wordpools/wordpool_EN.txt	SEAT	15	14	n/a	n/a	pyFR	1	TJ037
1609.599	0.932	n/a	START	n/a	n/a	n/a	n/a	14	[-999 -999 -999]	-999	pyFR	1	TJ037
1610.531	4.04	n/a	PROB	n/a	n/a	n/a	n/a	14	[9 7 4]	20	pyFR	1	TJ037
1614.571	3.922	n/a	PROB	n/a	n/a	n/a	n/a	14	[5 9 4]	18	pyFR	1	TJ037
1618.493	8.612	n/a	PROB	n/a	n/a	n/a	n/a	14	[1 4 8]	13	pyFR	1	TJ037
1627.105	2.935	n/a	PROB	n/a	n/a	n/a	n/a	14	[6 3 3]	12	pyFR	1	TJ037
1630.04	1.205	n/a	STOP	n/a	n/a	n/a	n/a	14	[-999 -999 -999]	-999	pyFR	1	TJ037
1631.245	0.272	2279626	REC_START	n/a	n/a	n/a	-999	14	n/a	n/a	pyFR	1	TJ037
1631.517	0.348	2279898	REC_WORD	0.348	n/a	LAWN	-999	14	n/a	n/a	pyFR	1	TJ037
1631.865	0.325	2280246	REC_WORD	0.325	n/a	DITCH	-999	14	n/a	n/a	pyFR	1	TJ037
1632.19	0.388	2280571	REC_WORD	0.388	n/a	TAIL	-999	14	n/a	n/a	pyFR	1	TJ037
1632.578	0.635	2280959	REC_WORD	0.635	n/a	GIRL	-999	14	n/a	n/a	pyFR	1	TJ037
1633.213	0.653	2281594	REC_WORD	0.653	n/a	QUEEN	-999	14	n/a	n/a	pyFR	1	TJ037
1633.866	3.272	2282247	REC_WORD	3.272	n/a	BUSH	-999	14	n/a	n/a	pyFR	1	TJ037
1637.138	49.352	2285519	REC_WORD	49.352	n/a	OAR	-999	14	n/a	n/a	pyFR	1	TJ037
1686.49	0.016	2334870	TRIAL	n/a	n/a	n/a	-999	15	n/a	n/a	pyFR	1	TJ037
1686.506	2.737	2334886	ORIENT	n/a	n/a	n/a	-999	15	n/a	n/a	pyFR	1	TJ037
1689.243	2.787	2337623	WORD	n/a	wordpools/wordpool_EN.txt	HOLE	1	15	n/a	n/a	pyFR	1	TJ037
1692.03	2.772	2340410	WORD	n/a	wordpools/wordpool_EN.txt	SKUNK	2	15	n/a	n/a	pyFR	1	TJ037
1694.802	2.536	2343182	WORD	n/a	wordpools/wordpool_EN.txt	CAGE	3	15	n/a	n/a	pyFR	1	TJ037
1697.338	2.62	2345718	WORD	n/a	wordpools/wordpool_EN.txt	TOOTH	4	15	n/a	n/a	pyFR	1	TJ037
1699.958	2.738	2348338	WORD	n/a	wordpools/wordpool_EN.txt	WALL	5	15	n/a	n/a	pyFR	1	TJ037
1702.696	2.569	2351076	WORD	n/a	wordpools/wordpool_EN.txt	SMOKE	6	15	n/a	n/a	pyFR	1	TJ037
1705.265	2.738	2353645	WORD	n/a	wordpools/wordpool_EN.txt	GRASS	7	15	n/a	n/a	pyFR	1	TJ037
1708.003	2.688	2356383	WORD	n/a	wordpools/wordpool_EN.txt	WHEEL	8	15	n/a	n/a	pyFR	1	TJ037
1710.691	2.669	2359071	WORD	n/a	wordpools/wordpool_EN.txt	JAIL	9	15	n/a	n/a	pyFR	1	TJ037
1713.36	2.487	2361740	WORD	n/a	wordpools/wordpool_EN.txt	CLOTH	10	15	n/a	n/a	pyFR	1	TJ037
1715.847	2.587	2364227	WORD	n/a	wordpools/wordpool_EN.txt	CHIN	11	15	n/a	n/a	pyFR	1	TJ037
1718.434	2.604	2366814	WORD	n/a	wordpools/wordpool_EN.txt	DOG	12	15	n/a	n/a	pyFR	1	TJ037
1721.038	2.82	2369418	WORD	n/a	wordpools/wordpool_EN.txt	CONE	13	15	n/a	n/a	pyFR	1	TJ037
1723.858	2.638	2372238	WORD	n/a	wordpools/wordpool_EN.txt	SHIELD	14	15	n/a	n/a	pyFR	1	TJ037
1726.496	1.603	2374876	WORD	n/a	wordpools/wordpool_EN.txt	CLOUD	15	15	n/a	n/a	pyFR	1	TJ037
1728.099	1.167	n/a	START	n/a	n/a	n/a	n/a	15	[-999 -999 -999]	-999	pyFR	1	TJ037
1729.266	3.589	n/a	PROB	n/a	n/a	n/a	n/a	15	[6 5 4]	15	pyFR	1	TJ037
1732.855	4.539	n/a	PROB	n/a	n/a	n/a	n/a	15	[1 7 9]	17	pyFR	1	TJ037
1737.394	3.555	n/a	PROB	n/a	n/a	n/a	n/a	15	[6 4 7]	17	pyFR	1	TJ037
1740.949	2.904	n/a	PROB	n/a	n/a	n/a	n/a	15	[6 5 4]	15	pyFR	1	TJ037
1743.853	2.922	n/a	PROB	n/a	n/a	n/a	n/a	15	[4 9 5]	18	pyFR	1	TJ037
1746.775	4.365	n/a	PROB	n/a	n/a	n/a	n/a	15	[8 9 8]	25	pyFR	1	TJ037
1751.14	1.176	n/a	STOP	n/a	n/a	n/a	n/a	15	[-999 -999 -999]	-999	pyFR	1	TJ037
1752.316	0.19	2400696	REC_START	n/a	n/a	n/a	-999	15	n/a	n/a	pyFR	1	TJ037
1752.506	0.439	2400886	REC_WORD	0.439	n/a	SKUNK	-999	15	n/a	n/a	pyFR	1	TJ037
1752.945	0.337	2401325	REC_WORD_VV	0.337	n/a	VV	-999	15	n/a	n/a	pyFR	1	TJ037
1753.282	0.413	2401662	REC_WORD	0.413	n/a	TOOTH	-999	15	n/a	n/a	pyFR	1	TJ037
1753.695	0.961	2402075	REC_WORD	0.961	n/a	WALL	-999	15	n/a	n/a	pyFR	1	TJ037
1754.656	2.936	2403036	REC_WORD	2.936	n/a	CHIN	-999	15	n/a	n/a	pyFR	1	TJ037
1757.592	5.742	2405972	REC_WORD_VV	5.742	n/a	VV	-999	15	n/a	n/a	pyFR	1	TJ037
1763.334	7.559	2411714	REC_WORD	7.559	n/a	FLOWER	-999	15	n/a	n/a	pyFR	1	TJ037
1770.893	28.624	2419273	REC_WORD	28.624	n/a	WILD	-999	15	n/a	n/a	pyFR	1	TJ037
1799.517	0.015	2447897	TRIAL	n/a	n/a	n/a	-999	16	n/a	n/a	pyFR	1	TJ037
1799.532	2.971	2447912	ORIENT	n/a	n/a	n/a	-999	16	n/a	n/a	pyFR	1	TJ037
1802.503	2.504	2450883	WORD	n/a	wordpools/wordpool_EN.txt	SHRIMP	1	16	n/a	n/a	pyFR	1	TJ037
1805.007	2.638	2453387	WORD	n/a	wordpools/wordpool_EN.txt	PIN	2	16	n/a	n/a	pyFR	1	TJ037
1807.645	2.436	2456025	WORD	n/a	wordpools/wordpool_EN.txt	ARK	3	16	n/a	n/a	pyFR	1	TJ037
1810.081	2.453	2458461	WORD	n/a	wordpools/wordpool_EN.txt	SUIT	4	16	n/a	n/a	pyFR	1	TJ037
1812.534	2.637	2460914	WORD	n/a	wordpools/wordpool_EN.txt	TRASH	5	16	n/a	n/a	pyFR	1	TJ037
1815.171	2.671	2463551	WORD	n/a	wordpools/wordpool_EN.txt	BANK	6	16	n/a	n/a	pyFR	1	TJ037
1817.842	2.721	2466222	WORD	n/a	wordpools/wordpool_EN.txt	FACE	7	16	n/a	n/a	pyFR	1	TJ037
1820.563	2.62	2468943	WORD	n/a	wordpools/wordpool_EN.txt	CLAY	8	16	n/a	n/a	pyFR	1	TJ037
1823.183	2.554	2471563	WORD	n/a	wordpools/wordpool_EN.txt	MOUTH	9	16	n/a	n/a	pyFR	1	TJ037
1825.737	2.603	2474117	WORD	n/a	wordpools/wordpool_EN.txt	BEAK	10	16	n/a	n/a	pyFR	1	TJ037
1828.34	2.771	2476720	WORD	n/a	wordpools/wordpool_EN.txt	KEY	11	16	n/a	n/a	pyFR	1	TJ037
1831.111	2.588	2479491	WORD	n/a	wordpools/wordpool_EN.txt	FLOOR	12	16	n/a	n/a	pyFR	1	TJ037
1833.699	2.786	2482079	WORD	n/a	wordpools/wordpool_EN.txt	FUDGE	13	16	n/a	n/a	pyFR	1	TJ037
1836.485	2.804	2484865	WORD	n/a	wordpools/wordpool_EN.txt	SOCK	14	16	n/a	n/a	pyFR	1	TJ037
1839.289	1.604	2487669	WORD	n/a	wordpools/wordpool_EN.txt	BED	15	16	n/a	n/a	pyFR	1	TJ037
1840.893	0.949	n/a	START	n/a	n/a	n/a	n/a	16	[-999 -999 -999]	-999	pyFR	1	TJ037
1841.842	2.906	n/a	PROB	n/a	n/a	n/a	n/a	16	[2 1 8]	11	pyFR	1	TJ037
1844.748	3.637	n/a	PROB	n/a	n/a	n/a	n/a	16	[2 7 6]	15	pyFR	1	TJ037
1848.385	2.837	n/a	PROB	n/a	n/a	n/a	n/a	16	[2 2 4]	8	pyFR	1	TJ037
1851.222	4.608	n/a	PROB	n/a	n/a	n/a	n/a	16	[7 9 6]	22	pyFR	1	TJ037
1855.83	5.619	n/a	PROB	n/a	n/a	n/a	n/a	16	[2 1 7]	10	pyFR	1	TJ037
1861.449	1.623	n/a	STOP	n/a	n/a	n/a	n/a	16	[-999 -999 -999]	-999	pyFR	1	TJ037
1863.072	0.0	2511451	REC_START	n/a	n/a	n/a	-999	16	n/a	n/a	pyFR	1	TJ037
1863.072	0.305	2511451	REC_WORD	0.305	n/a	PIN	-999	16	n/a	n/a	pyFR	1	TJ037
1863.377	0.707	2511756	REC_WORD	0.707	n/a	SHRIMP	-999	16	n/a	n/a	pyFR	1	TJ037
1864.084	0.437	2512463	REC_WORD	0.437	n/a	ARK	-999	16	n/a	n/a	pyFR	1	TJ037
1864.521	1.58	2512900	REC_WORD	1.58	n/a	TOOTH	-999	16	n/a	n/a	pyFR	1	TJ037
1866.101	5.209	2514480	REC_WORD_VV	5.209	n/a	VV	-999	16	n/a	n/a	pyFR	1	TJ037
1871.31	8.258	2519689	REC_WORD	8.258	n/a	SHARK	-999	16	n/a	n/a	pyFR	1	TJ037
1879.568	10.501	2527947	REC_WORD	10.501	n/a	CRATE	-999	16	n/a	n/a	pyFR	1	TJ037
1890.069	1.906	2538448	REC_WORD	1.906	n/a	FLOOR	-999	16	n/a	n/a	pyFR	1	TJ037
1891.975	1.0	2540354	REC_WORD_VV	1.0	n/a	VV	-999	16	n/a	n/a	pyFR	1	TJ037
1892.975	480.573	2541354	REC_WORD_VV	480.573	n/a	VV	-999	16	n/a	n/a	pyFR	1	TJ037
2373.548	0.136	3021924	SESS_END	n/a	n/a	n/a	-999	-999	n/a	n/a	pyFR	1	TJ037
2373.684	0.0	3022060	E	n/a	n/a	n/a	-999	-999	n/a	n/a	pyFR	1	TJ037
