onset	duration	sample	trial_type	response_time	stim_file	item_name	serialpos	list	test	answer	experiment	session	subject
0.0	6.303	636582	E	n/a	n/a	n/a	-999	13	n/a	n/a	pyFR	0	TJ049
6.303	0.0	642885	SESS_START	n/a	n/a	n/a	-999	-999	n/a	n/a	pyFR	0	TJ049
6.303	72.684	642885	B	n/a	n/a	n/a	-999	-999	n/a	n/a	pyFR	0	TJ049
78.987	0.025	715566	START	n/a	n/a	n/a	n/a	0	[-999 -999 -999]	-999	pyFR	0	TJ049
79.012	8.899	715591	PROB	n/a	n/a	n/a	n/a	0	[1 4 9]	14	pyFR	0	TJ049
87.911	6.728	724489	PROB	n/a	n/a	n/a	n/a	0	[7 3 5]	15	pyFR	0	TJ049
94.639	9.767	731217	PROB	n/a	n/a	n/a	n/a	0	[1 6 9]	16	pyFR	0	TJ049
104.406	6.621	740984	PROB	n/a	n/a	n/a	n/a	0	[7 9 9]	25	pyFR	0	TJ049
111.027	97.471	747605	STOP	n/a	n/a	n/a	n/a	0	[-999 -999 -999]	-999	pyFR	0	TJ049
208.498	0.016	845072	TRIAL	n/a	n/a	n/a	-999	1	n/a	n/a	pyFR	0	TJ049
208.514	2.62	845088	ORIENT	n/a	n/a	n/a	-999	1	n/a	n/a	pyFR	0	TJ049
211.134	2.455	847708	WORD	n/a	wordpools/wordpool_EN.txt	FACE	1	1	n/a	n/a	pyFR	0	TJ049
213.589	2.487	850163	WORD	n/a	wordpools/wordpool_EN.txt	WHEEL	2	1	n/a	n/a	pyFR	0	TJ049
216.076	2.739	852650	WORD	n/a	wordpools/wordpool_EN.txt	ROOF	3	1	n/a	n/a	pyFR	0	TJ049
218.815	2.436	855389	WORD	n/a	wordpools/wordpool_EN.txt	ROAD	4	1	n/a	n/a	pyFR	0	TJ049
221.251	2.523	857825	WORD	n/a	wordpools/wordpool_EN.txt	BRUSH	5	1	n/a	n/a	pyFR	0	TJ049
223.774	2.62	860347	WORD	n/a	wordpools/wordpool_EN.txt	TIE	6	1	n/a	n/a	pyFR	0	TJ049
226.394	2.571	862967	WORD	n/a	wordpools/wordpool_EN.txt	FORT	7	1	n/a	n/a	pyFR	0	TJ049
228.965	2.722	865538	WORD	n/a	wordpools/wordpool_EN.txt	HILL	8	1	n/a	n/a	pyFR	0	TJ049
231.687	2.787	868260	WORD	n/a	wordpools/wordpool_EN.txt	FLAG	9	1	n/a	n/a	pyFR	0	TJ049
234.474	2.455	871047	WORD	n/a	wordpools/wordpool_EN.txt	BOMB	10	1	n/a	n/a	pyFR	0	TJ049
236.929	2.621	873502	WORD	n/a	wordpools/wordpool_EN.txt	WEED	11	1	n/a	n/a	pyFR	0	TJ049
239.55	2.82	876123	WORD	n/a	wordpools/wordpool_EN.txt	SHEET	12	1	n/a	n/a	pyFR	0	TJ049
242.37	2.589	878943	WORD	n/a	wordpools/wordpool_EN.txt	NOSE	13	1	n/a	n/a	pyFR	0	TJ049
244.959	2.637	881532	WORD	n/a	wordpools/wordpool_EN.txt	FLAME	14	1	n/a	n/a	pyFR	0	TJ049
247.596	1.62	884169	WORD	n/a	wordpools/wordpool_EN.txt	DART	15	1	n/a	n/a	pyFR	0	TJ049
249.216	0.851	885788	START	n/a	n/a	n/a	n/a	1	[-999 -999 -999]	-999	pyFR	0	TJ049
250.067	5.976	886639	PROB	n/a	n/a	n/a	n/a	1	[1 4 3]	8	pyFR	0	TJ049
256.043	4.107	892615	PROB	n/a	n/a	n/a	n/a	1	[5 5 2]	12	pyFR	0	TJ049
260.15	5.377	896722	PROB	n/a	n/a	n/a	n/a	1	[8 4 1]	13	pyFR	0	TJ049
265.527	6.029	902099	PROB	n/a	n/a	n/a	n/a	1	[3 5 7]	15	pyFR	0	TJ049
271.556	1.167	908128	STOP	n/a	n/a	n/a	n/a	1	[-999 -999 -999]	-999	pyFR	0	TJ049
272.723	0.0	909295	REC_START	n/a	n/a	n/a	-999	1	n/a	n/a	pyFR	0	TJ049
272.723	1.0	909295	REC_WORD_VV	1.0	n/a	<>	-999	1	n/a	n/a	pyFR	0	TJ049
273.723	1.0	910295	REC_WORD_VV	1.0	n/a	<>	-999	1	n/a	n/a	pyFR	0	TJ049
274.723	1.0	911295	REC_WORD_VV	1.0	n/a	<>	-999	1	n/a	n/a	pyFR	0	TJ049
275.723	1.0	912294	REC_WORD_VV	1.0	n/a	<>	-999	1	n/a	n/a	pyFR	0	TJ049
276.723	1.0	913294	REC_WORD_VV	1.0	n/a	<>	-999	1	n/a	n/a	pyFR	0	TJ049
277.723	1.526	914294	REC_WORD_VV	1.526	n/a	<>	-999	1	n/a	n/a	pyFR	0	TJ049
279.249	1.159	915820	REC_WORD	1.159	n/a	WHEEL	-999	1	n/a	n/a	pyFR	0	TJ049
280.408	1.4	916979	REC_WORD	1.4	n/a	BRUSH	-999	1	n/a	n/a	pyFR	0	TJ049
281.808	1.803	918379	REC_WORD	1.803	n/a	FACE	-999	1	n/a	n/a	pyFR	0	TJ049
283.611	2.035	920182	REC_WORD	2.035	n/a	TIE	-999	1	n/a	n/a	pyFR	0	TJ049
285.646	2.571	922217	REC_WORD	2.571	n/a	FORT	-999	1	n/a	n/a	pyFR	0	TJ049
288.217	7.864	924788	REC_WORD	7.864	n/a	ROAD	-999	1	n/a	n/a	pyFR	0	TJ049
296.081	2.0	932652	REC_WORD_VV	2.0	n/a	<>	-999	1	n/a	n/a	pyFR	0	TJ049
298.081	1.0	934652	REC_WORD_VV	1.0	n/a	<>	-999	1	n/a	n/a	pyFR	0	TJ049
299.081	1.0	935652	REC_WORD_VV	1.0	n/a	<>	-999	1	n/a	n/a	pyFR	0	TJ049
300.081	1.0	936652	REC_WORD_VV	1.0	n/a	<>	-999	1	n/a	n/a	pyFR	0	TJ049
301.081	1.0	937652	REC_WORD_VV	1.0	n/a	<>	-999	1	n/a	n/a	pyFR	0	TJ049
302.081	1.0	938652	REC_WORD_VV	1.0	n/a	<>	-999	1	n/a	n/a	pyFR	0	TJ049
303.081	1.0	939651	REC_WORD_VV	1.0	n/a	<>	-999	1	n/a	n/a	pyFR	0	TJ049
304.081	1.0	940651	REC_WORD_VV	1.0	n/a	<>	-999	1	n/a	n/a	pyFR	0	TJ049
305.081	8.501	941651	REC_WORD_VV	8.501	n/a	<>	-999	1	n/a	n/a	pyFR	0	TJ049
313.582	1.0	950152	REC_WORD_VV	1.0	n/a	<>	-999	1	n/a	n/a	pyFR	0	TJ049
314.582	25.419	951152	REC_WORD_VV	25.419	n/a	<>	-999	1	n/a	n/a	pyFR	0	TJ049
340.001	0.017	976570	TRIAL	n/a	n/a	n/a	-999	2	n/a	n/a	pyFR	0	TJ049
340.018	2.922	976587	ORIENT	n/a	n/a	n/a	-999	2	n/a	n/a	pyFR	0	TJ049
342.94	2.505	979509	WORD	n/a	wordpools/wordpool_EN.txt	TAIL	1	2	n/a	n/a	pyFR	0	TJ049
345.445	2.455	982014	WORD	n/a	wordpools/wordpool_EN.txt	GIRL	2	2	n/a	n/a	pyFR	0	TJ049
347.9	2.703	984469	WORD	n/a	wordpools/wordpool_EN.txt	POND	3	2	n/a	n/a	pyFR	0	TJ049
350.603	2.554	987172	WORD	n/a	wordpools/wordpool_EN.txt	NET	4	2	n/a	n/a	pyFR	0	TJ049
353.157	2.505	989726	WORD	n/a	wordpools/wordpool_EN.txt	FOOD	5	2	n/a	n/a	pyFR	0	TJ049
355.662	2.821	992231	WORD	n/a	wordpools/wordpool_EN.txt	STRAW	6	2	n/a	n/a	pyFR	0	TJ049
358.483	2.553	995051	WORD	n/a	wordpools/wordpool_EN.txt	PLANT	7	2	n/a	n/a	pyFR	0	TJ049
361.036	2.673	997604	WORD	n/a	wordpools/wordpool_EN.txt	NEST	8	2	n/a	n/a	pyFR	0	TJ049
363.709	2.788	1000277	WORD	n/a	wordpools/wordpool_EN.txt	CHEEK	9	2	n/a	n/a	pyFR	0	TJ049
366.497	2.687	1003065	WORD	n/a	wordpools/wordpool_EN.txt	THUMB	10	2	n/a	n/a	pyFR	0	TJ049
369.184	2.505	1005752	WORD	n/a	wordpools/wordpool_EN.txt	JET	11	2	n/a	n/a	pyFR	0	TJ049
371.689	2.637	1008257	WORD	n/a	wordpools/wordpool_EN.txt	SUN	12	2	n/a	n/a	pyFR	0	TJ049
374.326	2.555	1010894	WORD	n/a	wordpools/wordpool_EN.txt	CUP	13	2	n/a	n/a	pyFR	0	TJ049
376.881	2.738	1013449	WORD	n/a	wordpools/wordpool_EN.txt	SLIME	14	2	n/a	n/a	pyFR	0	TJ049
379.619	1.619	1016187	WORD	n/a	wordpools/wordpool_EN.txt	MAT	15	2	n/a	n/a	pyFR	0	TJ049
381.238	1.169	1017806	START	n/a	n/a	n/a	n/a	2	[-999 -999 -999]	-999	pyFR	0	TJ049
382.407	6.81	1018975	PROB	n/a	n/a	n/a	n/a	2	[5 3 6]	14	pyFR	0	TJ049
389.217	7.48	1025784	PROB	n/a	n/a	n/a	n/a	2	[1 9 6]	15	pyFR	0	TJ049
396.697	8.828	1033264	PROB	n/a	n/a	n/a	n/a	2	[7 7 4]	18	pyFR	0	TJ049
405.525	1.123	1042092	STOP	n/a	n/a	n/a	n/a	2	[-999 -999 -999]	-999	pyFR	0	TJ049
406.648	9.422	1043215	REC_START	n/a	n/a	n/a	-999	2	n/a	n/a	pyFR	0	TJ049
416.07	1.0	1052636	REC_WORD_VV	1.0	n/a	<>	-999	2	n/a	n/a	pyFR	0	TJ049
417.07	1.0	1053636	REC_WORD_VV	1.0	n/a	<>	-999	2	n/a	n/a	pyFR	0	TJ049
418.07	1.0	1054636	REC_WORD_VV	1.0	n/a	<>	-999	2	n/a	n/a	pyFR	0	TJ049
419.07	0.282	1055636	REC_WORD_VV	0.282	n/a	<>	-999	2	n/a	n/a	pyFR	0	TJ049
419.352	1.983	1055918	REC_WORD	1.983	n/a	PLANT	-999	2	n/a	n/a	pyFR	0	TJ049
421.335	1.689	1057901	REC_WORD	1.689	n/a	CHEEK	-999	2	n/a	n/a	pyFR	0	TJ049
423.024	3.458	1059590	REC_WORD	3.458	n/a	STRAW	-999	2	n/a	n/a	pyFR	0	TJ049
426.482	3.727	1063048	REC_WORD_VV	3.727	n/a	<>	-999	2	n/a	n/a	pyFR	0	TJ049
430.209	1.0	1066775	REC_WORD_VV	1.0	n/a	<>	-999	2	n/a	n/a	pyFR	0	TJ049
431.209	1.0	1067775	REC_WORD_VV	1.0	n/a	<>	-999	2	n/a	n/a	pyFR	0	TJ049
432.209	7.507	1068775	REC_WORD_VV	7.507	n/a	<>	-999	2	n/a	n/a	pyFR	0	TJ049
439.716	1.547	1076281	REC_WORD	1.547	n/a	FOOD	-999	2	n/a	n/a	pyFR	0	TJ049
441.263	1.0	1077828	REC_WORD_VV	1.0	n/a	<>	-999	2	n/a	n/a	pyFR	0	TJ049
442.263	12.114	1078828	REC_WORD_VV	12.114	n/a	<>	-999	2	n/a	n/a	pyFR	0	TJ049
454.377	0.017	1090942	TRIAL	n/a	n/a	n/a	-999	3	n/a	n/a	pyFR	0	TJ049
454.394	2.872	1090959	ORIENT	n/a	n/a	n/a	-999	3	n/a	n/a	pyFR	0	TJ049
457.266	2.655	1093831	WORD	n/a	wordpools/wordpool_EN.txt	DRESS	1	3	n/a	n/a	pyFR	0	TJ049
459.921	2.521	1096486	WORD	n/a	wordpools/wordpool_EN.txt	LAWN	2	3	n/a	n/a	pyFR	0	TJ049
462.442	2.653	1099007	WORD	n/a	wordpools/wordpool_EN.txt	DIME	3	3	n/a	n/a	pyFR	0	TJ049
465.095	2.655	1101659	WORD	n/a	wordpools/wordpool_EN.txt	CORD	4	3	n/a	n/a	pyFR	0	TJ049
467.75	2.755	1104314	WORD	n/a	wordpools/wordpool_EN.txt	TOE	5	3	n/a	n/a	pyFR	0	TJ049
470.505	2.62	1107069	WORD	n/a	wordpools/wordpool_EN.txt	BOOK	6	3	n/a	n/a	pyFR	0	TJ049
473.125	2.489	1109689	WORD	n/a	wordpools/wordpool_EN.txt	TOAD	7	3	n/a	n/a	pyFR	0	TJ049
475.614	2.653	1112178	WORD	n/a	wordpools/wordpool_EN.txt	CHAIR	8	3	n/a	n/a	pyFR	0	TJ049
478.267	2.639	1114831	WORD	n/a	wordpools/wordpool_EN.txt	ROCK	9	3	n/a	n/a	pyFR	0	TJ049
480.906	2.671	1117470	WORD	n/a	wordpools/wordpool_EN.txt	SMILE	10	3	n/a	n/a	pyFR	0	TJ049
483.577	2.821	1120141	WORD	n/a	wordpools/wordpool_EN.txt	ROOT	11	3	n/a	n/a	pyFR	0	TJ049
486.398	2.571	1122962	WORD	n/a	wordpools/wordpool_EN.txt	HORN	12	3	n/a	n/a	pyFR	0	TJ049
488.969	2.504	1125533	WORD	n/a	wordpools/wordpool_EN.txt	ZOO	13	3	n/a	n/a	pyFR	0	TJ049
491.473	2.488	1128036	WORD	n/a	wordpools/wordpool_EN.txt	STRING	14	3	n/a	n/a	pyFR	0	TJ049
493.961	1.621	1130524	WORD	n/a	wordpools/wordpool_EN.txt	PASTE	15	3	n/a	n/a	pyFR	0	TJ049
495.582	1.05	1132145	START	n/a	n/a	n/a	n/a	3	[-999 -999 -999]	-999	pyFR	0	TJ049
496.632	13.84	1133195	PROB	n/a	n/a	n/a	n/a	3	[8 4 9]	21	pyFR	0	TJ049
510.472	7.932	1147035	PROB	n/a	n/a	n/a	n/a	3	[9 4 9]	22	pyFR	0	TJ049
518.404	1.118	1154966	STOP	n/a	n/a	n/a	n/a	3	[-999 -999 -999]	-999	pyFR	0	TJ049
519.522	9.644	1156084	REC_START	n/a	n/a	n/a	-999	3	n/a	n/a	pyFR	0	TJ049
529.166	1.0	1165728	REC_WORD_VV	1.0	n/a	<>	-999	3	n/a	n/a	pyFR	0	TJ049
530.166	1.0	1166728	REC_WORD_VV	1.0	n/a	<>	-999	3	n/a	n/a	pyFR	0	TJ049
531.166	20.901	1167728	REC_WORD_VV	20.901	n/a	<>	-999	3	n/a	n/a	pyFR	0	TJ049
552.067	1.0	1188628	REC_WORD_VV	1.0	n/a	<>	-999	3	n/a	n/a	pyFR	0	TJ049
553.067	22.682	1189628	REC_WORD_VV	22.682	n/a	<>	-999	3	n/a	n/a	pyFR	0	TJ049
575.749	0.017	1212309	TRIAL	n/a	n/a	n/a	-999	4	n/a	n/a	pyFR	0	TJ049
575.766	2.971	1212326	ORIENT	n/a	n/a	n/a	-999	4	n/a	n/a	pyFR	0	TJ049
578.737	2.453	1215297	WORD	n/a	wordpools/wordpool_EN.txt	PLATE	1	4	n/a	n/a	pyFR	0	TJ049
581.19	2.706	1217750	WORD	n/a	wordpools/wordpool_EN.txt	VASE	2	4	n/a	n/a	pyFR	0	TJ049
583.896	2.738	1220456	WORD	n/a	wordpools/wordpool_EN.txt	DRUM	3	4	n/a	n/a	pyFR	0	TJ049
586.634	2.436	1223194	WORD	n/a	wordpools/wordpool_EN.txt	YARD	4	4	n/a	n/a	pyFR	0	TJ049
589.07	2.672	1225630	WORD	n/a	wordpools/wordpool_EN.txt	BOOT	5	4	n/a	n/a	pyFR	0	TJ049
591.742	2.655	1228302	WORD	n/a	wordpools/wordpool_EN.txt	BEAR	6	4	n/a	n/a	pyFR	0	TJ049
594.397	2.454	1230957	WORD	n/a	wordpools/wordpool_EN.txt	PEAR	7	4	n/a	n/a	pyFR	0	TJ049
596.851	2.571	1233411	WORD	n/a	wordpools/wordpool_EN.txt	CHIEF	8	4	n/a	n/a	pyFR	0	TJ049
599.422	2.487	1235981	WORD	n/a	wordpools/wordpool_EN.txt	CUBE	9	4	n/a	n/a	pyFR	0	TJ049
601.909	2.705	1238468	WORD	n/a	wordpools/wordpool_EN.txt	COIN	10	4	n/a	n/a	pyFR	0	TJ049
604.614	2.537	1241173	WORD	n/a	wordpools/wordpool_EN.txt	GUARD	11	4	n/a	n/a	pyFR	0	TJ049
607.151	2.738	1243710	WORD	n/a	wordpools/wordpool_EN.txt	FRUIT	12	4	n/a	n/a	pyFR	0	TJ049
609.889	2.688	1246448	WORD	n/a	wordpools/wordpool_EN.txt	BOWL	13	4	n/a	n/a	pyFR	0	TJ049
612.577	2.77	1249136	WORD	n/a	wordpools/wordpool_EN.txt	CASH	14	4	n/a	n/a	pyFR	0	TJ049
615.347	1.605	1251906	WORD	n/a	wordpools/wordpool_EN.txt	TRUCK	15	4	n/a	n/a	pyFR	0	TJ049
616.952	0.934	1253511	START	n/a	n/a	n/a	n/a	4	[-999 -999 -999]	-999	pyFR	0	TJ049
617.886	10.199	1254445	PROB	n/a	n/a	n/a	n/a	4	[7 2 4]	13	pyFR	0	TJ049
628.085	7.497	1264643	PROB	n/a	n/a	n/a	n/a	4	[1 5 7]	13	pyFR	0	TJ049
635.582	7.741	1272140	PROB	n/a	n/a	n/a	n/a	4	[4 4 6]	14	pyFR	0	TJ049
643.323	1.092	1279881	STOP	n/a	n/a	n/a	n/a	4	[-999 -999 -999]	-999	pyFR	0	TJ049
644.415	0.674	1280973	REC_START	n/a	n/a	n/a	-999	4	n/a	n/a	pyFR	0	TJ049
645.089	4.321	1281647	REC_WORD_VV	4.321	n/a	<>	-999	4	n/a	n/a	pyFR	0	TJ049
649.41	3.643	1285968	REC_WORD	3.643	n/a	EEL	-999	4	n/a	n/a	pyFR	0	TJ049
653.053	4.291	1289610	REC_WORD_VV	4.291	n/a	<>	-999	4	n/a	n/a	pyFR	0	TJ049
657.344	3.919	1293901	REC_WORD	3.919	n/a	PLATE	-999	4	n/a	n/a	pyFR	0	TJ049
661.263	3.201	1297820	REC_WORD	3.201	n/a	BOOT	-999	4	n/a	n/a	pyFR	0	TJ049
664.464	9.815	1301021	REC_WORD_VV	9.815	n/a	<>	-999	4	n/a	n/a	pyFR	0	TJ049
674.279	25.629	1310836	REC_WORD	25.629	n/a	VASE	-999	4	n/a	n/a	pyFR	0	TJ049
699.908	0.016	1336464	TRIAL	n/a	n/a	n/a	-999	5	n/a	n/a	pyFR	0	TJ049
699.924	2.788	1336480	ORIENT	n/a	n/a	n/a	-999	5	n/a	n/a	pyFR	0	TJ049
702.712	2.603	1339268	WORD	n/a	wordpools/wordpool_EN.txt	MUG	1	5	n/a	n/a	pyFR	0	TJ049
705.315	2.489	1341871	WORD	n/a	wordpools/wordpool_EN.txt	ROSE	2	5	n/a	n/a	pyFR	0	TJ049
707.804	2.755	1344359	WORD	n/a	wordpools/wordpool_EN.txt	POLE	3	5	n/a	n/a	pyFR	0	TJ049
710.559	2.636	1347114	WORD	n/a	wordpools/wordpool_EN.txt	SPRING	4	5	n/a	n/a	pyFR	0	TJ049
713.195	2.79	1349750	WORD	n/a	wordpools/wordpool_EN.txt	JAIL	5	5	n/a	n/a	pyFR	0	TJ049
715.985	2.671	1352540	WORD	n/a	wordpools/wordpool_EN.txt	CARD	6	5	n/a	n/a	pyFR	0	TJ049
718.656	2.537	1355211	WORD	n/a	wordpools/wordpool_EN.txt	BROOM	7	5	n/a	n/a	pyFR	0	TJ049
721.193	2.538	1357748	WORD	n/a	wordpools/wordpool_EN.txt	WORLD	8	5	n/a	n/a	pyFR	0	TJ049
723.731	2.654	1360286	WORD	n/a	wordpools/wordpool_EN.txt	WOLF	9	5	n/a	n/a	pyFR	0	TJ049
726.385	2.788	1362940	WORD	n/a	wordpools/wordpool_EN.txt	CROW	10	5	n/a	n/a	pyFR	0	TJ049
729.173	2.655	1365728	WORD	n/a	wordpools/wordpool_EN.txt	SIGN	11	5	n/a	n/a	pyFR	0	TJ049
731.828	2.521	1368383	WORD	n/a	wordpools/wordpool_EN.txt	SHARK	12	5	n/a	n/a	pyFR	0	TJ049
734.349	2.487	1370903	WORD	n/a	wordpools/wordpool_EN.txt	TREE	13	5	n/a	n/a	pyFR	0	TJ049
736.836	2.655	1373390	WORD	n/a	wordpools/wordpool_EN.txt	SQUARE	14	5	n/a	n/a	pyFR	0	TJ049
739.491	1.619	1376045	WORD	n/a	wordpools/wordpool_EN.txt	SPONGE	15	5	n/a	n/a	pyFR	0	TJ049
741.11	1.185	1377664	START	n/a	n/a	n/a	n/a	5	[-999 -999 -999]	-999	pyFR	0	TJ049
742.295	6.278	1378849	PROB	n/a	n/a	n/a	n/a	5	[4 8 2]	14	pyFR	0	TJ049
748.573	10.167	1385127	PROB	n/a	n/a	n/a	n/a	5	[8 6 9]	24	pyFR	0	TJ049
758.74	10.256	1395294	PROB	n/a	n/a	n/a	n/a	5	[9 2 5]	16	pyFR	0	TJ049
768.996	1.046	1405549	STOP	n/a	n/a	n/a	n/a	5	[-999 -999 -999]	-999	pyFR	0	TJ049
770.042	3.653	1406595	REC_START	n/a	n/a	n/a	-999	5	n/a	n/a	pyFR	0	TJ049
773.695	27.386	1410248	REC_WORD_VV	27.386	n/a	<>	-999	5	n/a	n/a	pyFR	0	TJ049
801.081	1.0	1437633	REC_WORD_VV	1.0	n/a	<>	-999	5	n/a	n/a	pyFR	0	TJ049
802.081	1.0	1438633	REC_WORD_VV	1.0	n/a	<>	-999	5	n/a	n/a	pyFR	0	TJ049
803.081	1.0	1439633	REC_WORD_VV	1.0	n/a	<>	-999	5	n/a	n/a	pyFR	0	TJ049
804.081	1.0	1440633	REC_WORD_VV	1.0	n/a	<>	-999	5	n/a	n/a	pyFR	0	TJ049
805.081	1.0	1441633	REC_WORD_VV	1.0	n/a	<>	-999	5	n/a	n/a	pyFR	0	TJ049
806.081	1.0	1442633	REC_WORD_VV	1.0	n/a	<>	-999	5	n/a	n/a	pyFR	0	TJ049
807.081	69.608	1443633	REC_WORD_VV	69.608	n/a	<>	-999	5	n/a	n/a	pyFR	0	TJ049
876.689	0.016	1513238	TRIAL	n/a	n/a	n/a	-999	6	n/a	n/a	pyFR	0	TJ049
876.705	2.988	1513254	ORIENT	n/a	n/a	n/a	-999	6	n/a	n/a	pyFR	0	TJ049
879.693	2.671	1516242	WORD	n/a	wordpools/wordpool_EN.txt	SWAMP	1	6	n/a	n/a	pyFR	0	TJ049
882.364	2.755	1518913	WORD	n/a	wordpools/wordpool_EN.txt	CAKE	2	6	n/a	n/a	pyFR	0	TJ049
885.119	2.671	1521668	WORD	n/a	wordpools/wordpool_EN.txt	ARM	3	6	n/a	n/a	pyFR	0	TJ049
887.79	2.454	1524339	WORD	n/a	wordpools/wordpool_EN.txt	BAG	4	6	n/a	n/a	pyFR	0	TJ049
890.244	2.787	1526793	WORD	n/a	wordpools/wordpool_EN.txt	PLANE	5	6	n/a	n/a	pyFR	0	TJ049
893.031	2.522	1529580	WORD	n/a	wordpools/wordpool_EN.txt	MAZE	6	6	n/a	n/a	pyFR	0	TJ049
895.553	2.52	1532101	WORD	n/a	wordpools/wordpool_EN.txt	DOOR	7	6	n/a	n/a	pyFR	0	TJ049
898.073	2.539	1534621	WORD	n/a	wordpools/wordpool_EN.txt	BLOOM	8	6	n/a	n/a	pyFR	0	TJ049
900.612	2.72	1537160	WORD	n/a	wordpools/wordpool_EN.txt	STEAK	9	6	n/a	n/a	pyFR	0	TJ049
903.332	2.572	1539880	WORD	n/a	wordpools/wordpool_EN.txt	APE	10	6	n/a	n/a	pyFR	0	TJ049
905.904	2.47	1542452	WORD	n/a	wordpools/wordpool_EN.txt	HAND	11	6	n/a	n/a	pyFR	0	TJ049
908.374	2.788	1544922	WORD	n/a	wordpools/wordpool_EN.txt	PEARL	12	6	n/a	n/a	pyFR	0	TJ049
911.162	2.539	1547710	WORD	n/a	wordpools/wordpool_EN.txt	RIB	13	6	n/a	n/a	pyFR	0	TJ049
913.701	2.788	1550249	WORD	n/a	wordpools/wordpool_EN.txt	FILM	14	6	n/a	n/a	pyFR	0	TJ049
916.489	1.619	1553037	WORD	n/a	wordpools/wordpool_EN.txt	SOUP	15	6	n/a	n/a	pyFR	0	TJ049
918.108	1.001	1554656	START	n/a	n/a	n/a	n/a	6	[-999 -999 -999]	-999	pyFR	0	TJ049
919.109	4.875	1555657	PROB	n/a	n/a	n/a	n/a	6	[6 5 5]	16	pyFR	0	TJ049
923.984	4.307	1560531	PROB	n/a	n/a	n/a	n/a	6	[9 5 5]	19	pyFR	0	TJ049
928.291	5.025	1564838	PROB	n/a	n/a	n/a	n/a	6	[2 4 5]	11	pyFR	0	TJ049
933.316	4.911	1569863	PROB	n/a	n/a	n/a	n/a	6	[6 9 2]	17	pyFR	0	TJ049
938.227	1.066	1574774	STOP	n/a	n/a	n/a	n/a	6	[-999 -999 -999]	-999	pyFR	0	TJ049
939.293	3.939	1575840	REC_START	n/a	n/a	n/a	-999	6	n/a	n/a	pyFR	0	TJ049
943.232	1.473	1579779	REC_WORD	1.473	n/a	ARM	-999	6	n/a	n/a	pyFR	0	TJ049
944.705	2.892	1581252	REC_WORD	2.892	n/a	RIB	-999	6	n/a	n/a	pyFR	0	TJ049
947.597	2.17	1584144	REC_WORD	2.17	n/a	BAG	-999	6	n/a	n/a	pyFR	0	TJ049
949.767	3.576	1586313	REC_WORD	3.576	n/a	MUG	-999	6	n/a	n/a	pyFR	0	TJ049
953.343	4.789	1589889	REC_WORD_VV	4.789	n/a	<>	-999	6	n/a	n/a	pyFR	0	TJ049
958.132	8.394	1594678	REC_WORD	8.394	n/a	SWAMP	-999	6	n/a	n/a	pyFR	0	TJ049
966.526	3.61	1603072	REC_WORD	3.61	n/a	ARM	-999	6	n/a	n/a	pyFR	0	TJ049
970.136	1.226	1606682	REC_WORD	1.226	n/a	HAND	-999	6	n/a	n/a	pyFR	0	TJ049
971.362	1.0	1607908	REC_WORD_VV	1.0	n/a	<>	-999	6	n/a	n/a	pyFR	0	TJ049
972.362	7.016	1608908	REC_WORD_VV	7.016	n/a	<>	-999	6	n/a	n/a	pyFR	0	TJ049
979.378	52.821	1615923	REC_WORD_VV	52.821	n/a	<>	-999	6	n/a	n/a	pyFR	0	TJ049
1032.199	0.016	1668742	TRIAL	n/a	n/a	n/a	-999	7	n/a	n/a	pyFR	0	TJ049
1032.215	2.939	1668758	ORIENT	n/a	n/a	n/a	-999	7	n/a	n/a	pyFR	0	TJ049
1035.154	2.672	1671697	WORD	n/a	wordpools/wordpool_EN.txt	CAR	1	7	n/a	n/a	pyFR	0	TJ049
1037.826	2.738	1674369	WORD	n/a	wordpools/wordpool_EN.txt	TAPE	2	7	n/a	n/a	pyFR	0	TJ049
1040.564	2.822	1677107	WORD	n/a	wordpools/wordpool_EN.txt	KITE	3	7	n/a	n/a	pyFR	0	TJ049
1043.386	2.636	1679929	WORD	n/a	wordpools/wordpool_EN.txt	FUDGE	4	7	n/a	n/a	pyFR	0	TJ049
1046.022	2.773	1682565	WORD	n/a	wordpools/wordpool_EN.txt	LAKE	5	7	n/a	n/a	pyFR	0	TJ049
1048.795	2.536	1685338	WORD	n/a	wordpools/wordpool_EN.txt	SEA	6	7	n/a	n/a	pyFR	0	TJ049
1051.331	2.505	1687874	WORD	n/a	wordpools/wordpool_EN.txt	PIG	7	7	n/a	n/a	pyFR	0	TJ049
1053.836	2.755	1690379	WORD	n/a	wordpools/wordpool_EN.txt	RAIN	8	7	n/a	n/a	pyFR	0	TJ049
1056.591	2.537	1693134	WORD	n/a	wordpools/wordpool_EN.txt	SHELL	9	7	n/a	n/a	pyFR	0	TJ049
1059.128	2.739	1695670	WORD	n/a	wordpools/wordpool_EN.txt	THREAD	10	7	n/a	n/a	pyFR	0	TJ049
1061.867	2.604	1698409	WORD	n/a	wordpools/wordpool_EN.txt	KING	11	7	n/a	n/a	pyFR	0	TJ049
1064.471	2.837	1701013	WORD	n/a	wordpools/wordpool_EN.txt	EAR	12	7	n/a	n/a	pyFR	0	TJ049
1067.308	2.788	1703850	WORD	n/a	wordpools/wordpool_EN.txt	KEY	13	7	n/a	n/a	pyFR	0	TJ049
1070.096	2.789	1706638	WORD	n/a	wordpools/wordpool_EN.txt	CAVE	14	7	n/a	n/a	pyFR	0	TJ049
1072.885	1.621	1709427	WORD	n/a	wordpools/wordpool_EN.txt	DUCK	15	7	n/a	n/a	pyFR	0	TJ049
1074.506	0.832	1711048	START	n/a	n/a	n/a	n/a	7	[-999 -999 -999]	-999	pyFR	0	TJ049
1075.338	4.775	1711880	PROB	n/a	n/a	n/a	n/a	7	[1 6 2]	9	pyFR	0	TJ049
1080.113	3.99	1716655	PROB	n/a	n/a	n/a	n/a	7	[2 1 7]	10	pyFR	0	TJ049
1084.103	4.825	1720644	PROB	n/a	n/a	n/a	n/a	7	[6 8 5]	19	pyFR	0	TJ049
1088.928	9.565	1725469	PROB	n/a	n/a	n/a	n/a	7	[2 1 1]	4	pyFR	0	TJ049
1098.493	1.222	1735034	STOP	n/a	n/a	n/a	n/a	7	[-999 -999 -999]	-999	pyFR	0	TJ049
1099.715	4.41	1736256	REC_START	n/a	n/a	n/a	-999	7	n/a	n/a	pyFR	0	TJ049
1104.125	8.436	1740666	REC_WORD_VV	8.436	n/a	<>	-999	7	n/a	n/a	pyFR	0	TJ049
1112.561	1.0	1749101	REC_WORD	1.0	n/a	PIG	-999	7	n/a	n/a	pyFR	0	TJ049
1113.561	5.497	1750101	REC_WORD_VV	5.497	n/a	<>	-999	7	n/a	n/a	pyFR	0	TJ049
1119.058	1.0	1755598	REC_WORD_VV	1.0	n/a	<>	-999	7	n/a	n/a	pyFR	0	TJ049
1120.058	42.478	1756598	REC_WORD_VV	42.478	n/a	<>	-999	7	n/a	n/a	pyFR	0	TJ049
1162.536	0.016	1799075	TRIAL	n/a	n/a	n/a	-999	8	n/a	n/a	pyFR	0	TJ049
1162.552	2.856	1799091	ORIENT	n/a	n/a	n/a	-999	8	n/a	n/a	pyFR	0	TJ049
1165.408	2.803	1801946	WORD	n/a	wordpools/wordpool_EN.txt	INK	1	8	n/a	n/a	pyFR	0	TJ049
1168.211	2.756	1804749	WORD	n/a	wordpools/wordpool_EN.txt	TEETH	2	8	n/a	n/a	pyFR	0	TJ049
1170.967	2.537	1807505	WORD	n/a	wordpools/wordpool_EN.txt	JUICE	3	8	n/a	n/a	pyFR	0	TJ049
1173.504	2.503	1810042	WORD	n/a	wordpools/wordpool_EN.txt	MILK	4	8	n/a	n/a	pyFR	0	TJ049
1176.007	2.69	1812545	WORD	n/a	wordpools/wordpool_EN.txt	TOOTH	5	8	n/a	n/a	pyFR	0	TJ049
1178.697	2.62	1815235	WORD	n/a	wordpools/wordpool_EN.txt	GATE	6	8	n/a	n/a	pyFR	0	TJ049
1181.317	2.455	1817855	WORD	n/a	wordpools/wordpool_EN.txt	MOUTH	7	8	n/a	n/a	pyFR	0	TJ049
1183.772	2.621	1820310	WORD	n/a	wordpools/wordpool_EN.txt	PURSE	8	8	n/a	n/a	pyFR	0	TJ049
1186.393	2.487	1822931	WORD	n/a	wordpools/wordpool_EN.txt	SEAT	9	8	n/a	n/a	pyFR	0	TJ049
1188.88	2.621	1825418	WORD	n/a	wordpools/wordpool_EN.txt	DESK	10	8	n/a	n/a	pyFR	0	TJ049
1191.501	2.52	1828038	WORD	n/a	wordpools/wordpool_EN.txt	TANK	11	8	n/a	n/a	pyFR	0	TJ049
1194.021	2.506	1830558	WORD	n/a	wordpools/wordpool_EN.txt	JUDGE	12	8	n/a	n/a	pyFR	0	TJ049
1196.527	2.686	1833064	WORD	n/a	wordpools/wordpool_EN.txt	BUSH	13	8	n/a	n/a	pyFR	0	TJ049
1199.213	2.556	1835750	WORD	n/a	wordpools/wordpool_EN.txt	MAIL	14	8	n/a	n/a	pyFR	0	TJ049
1201.769	1.62	1838306	WORD	n/a	wordpools/wordpool_EN.txt	BADGE	15	8	n/a	n/a	pyFR	0	TJ049
1203.389	1.184	1839926	START	n/a	n/a	n/a	n/a	8	[-999 -999 -999]	-999	pyFR	0	TJ049
1204.573	7.162	1841110	PROB	n/a	n/a	n/a	n/a	8	[1 4 1]	6	pyFR	0	TJ049
1211.735	5.877	1848272	PROB	n/a	n/a	n/a	n/a	8	[4 3 2]	9	pyFR	0	TJ049
1217.612	8.272	1854149	PROB	n/a	n/a	n/a	n/a	8	[8 1 7]	16	pyFR	0	TJ049
1225.884	1.227	1862420	STOP	n/a	n/a	n/a	n/a	8	[-999 -999 -999]	-999	pyFR	0	TJ049
1227.111	0.991	1863647	REC_START	n/a	n/a	n/a	-999	8	n/a	n/a	pyFR	0	TJ049
1228.102	8.461	1864638	REC_WORD_VV	8.461	n/a	<>	-999	8	n/a	n/a	pyFR	0	TJ049
1236.563	7.631	1873099	REC_WORD_VV	7.631	n/a	<>	-999	8	n/a	n/a	pyFR	0	TJ049
1244.194	2.505	1880730	REC_WORD	2.505	n/a	GATE	-999	8	n/a	n/a	pyFR	0	TJ049
1246.699	0.625	1883234	REC_WORD_VV	0.625	n/a	<>	-999	8	n/a	n/a	pyFR	0	TJ049
1247.324	4.34	1883859	REC_WORD	4.34	n/a	CAR	-999	8	n/a	n/a	pyFR	0	TJ049
1251.664	2.951	1888199	REC_WORD_VV	2.951	n/a	<>	-999	8	n/a	n/a	pyFR	0	TJ049
1254.615	1.0	1891150	REC_WORD_VV	1.0	n/a	<>	-999	8	n/a	n/a	pyFR	0	TJ049
1255.615	1.0	1892150	REC_WORD_VV	1.0	n/a	<>	-999	8	n/a	n/a	pyFR	0	TJ049
1256.615	1.0	1893150	REC_WORD_VV	1.0	n/a	<>	-999	8	n/a	n/a	pyFR	0	TJ049
1257.615	1.0	1894150	REC_WORD_VV	1.0	n/a	<>	-999	8	n/a	n/a	pyFR	0	TJ049
1258.615	1.0	1895150	REC_WORD_VV	1.0	n/a	<>	-999	8	n/a	n/a	pyFR	0	TJ049
1259.615	1.0	1896150	REC_WORD_VV	1.0	n/a	<>	-999	8	n/a	n/a	pyFR	0	TJ049
1260.615	1.0	1897150	REC_WORD_VV	1.0	n/a	<>	-999	8	n/a	n/a	pyFR	0	TJ049
1261.615	1.0	1898150	REC_WORD_VV	1.0	n/a	<>	-999	8	n/a	n/a	pyFR	0	TJ049
1262.615	1.0	1899150	REC_WORD_VV	1.0	n/a	<>	-999	8	n/a	n/a	pyFR	0	TJ049
1263.615	1.0	1900150	REC_WORD_VV	1.0	n/a	<>	-999	8	n/a	n/a	pyFR	0	TJ049
1264.615	1.0	1901150	REC_WORD_VV	1.0	n/a	<>	-999	8	n/a	n/a	pyFR	0	TJ049
1265.615	1.0	1902150	REC_WORD_VV	1.0	n/a	<>	-999	8	n/a	n/a	pyFR	0	TJ049
1266.615	1.0	1903150	REC_WORD_VV	1.0	n/a	<>	-999	8	n/a	n/a	pyFR	0	TJ049
1267.615	1.0	1904150	REC_WORD_VV	1.0	n/a	<>	-999	8	n/a	n/a	pyFR	0	TJ049
1268.615	1.0	1905150	REC_WORD_VV	1.0	n/a	<>	-999	8	n/a	n/a	pyFR	0	TJ049
1269.615	1.0	1906150	REC_WORD_VV	1.0	n/a	<>	-999	8	n/a	n/a	pyFR	0	TJ049
1270.615	1.0	1907150	REC_WORD_VV	1.0	n/a	<>	-999	8	n/a	n/a	pyFR	0	TJ049
1271.615	23.945	1908150	REC_WORD_VV	23.945	n/a	<>	-999	8	n/a	n/a	pyFR	0	TJ049
1295.56	0.016	1932094	TRIAL	n/a	n/a	n/a	-999	9	n/a	n/a	pyFR	0	TJ049
1295.576	2.787	1932110	ORIENT	n/a	n/a	n/a	-999	9	n/a	n/a	pyFR	0	TJ049
1298.363	2.623	1934897	WORD	n/a	wordpools/wordpool_EN.txt	RUG	1	9	n/a	n/a	pyFR	0	TJ049
1300.986	2.47	1937519	WORD	n/a	wordpools/wordpool_EN.txt	SCHOOL	2	9	n/a	n/a	pyFR	0	TJ049
1303.456	2.654	1939989	WORD	n/a	wordpools/wordpool_EN.txt	DOCK	3	9	n/a	n/a	pyFR	0	TJ049
1306.11	2.789	1942643	WORD	n/a	wordpools/wordpool_EN.txt	MOOSE	4	9	n/a	n/a	pyFR	0	TJ049
1308.899	2.721	1945432	WORD	n/a	wordpools/wordpool_EN.txt	DEER	5	9	n/a	n/a	pyFR	0	TJ049
1311.62	2.637	1948153	WORD	n/a	wordpools/wordpool_EN.txt	CHALK	6	9	n/a	n/a	pyFR	0	TJ049
1314.257	2.538	1950790	WORD	n/a	wordpools/wordpool_EN.txt	CLOCK	7	9	n/a	n/a	pyFR	0	TJ049
1316.795	2.537	1953328	WORD	n/a	wordpools/wordpool_EN.txt	COW	8	9	n/a	n/a	pyFR	0	TJ049
1319.332	2.671	1955865	WORD	n/a	wordpools/wordpool_EN.txt	POOL	9	9	n/a	n/a	pyFR	0	TJ049
1322.003	2.572	1958536	WORD	n/a	wordpools/wordpool_EN.txt	BLUSH	10	9	n/a	n/a	pyFR	0	TJ049
1324.575	2.771	1961108	WORD	n/a	wordpools/wordpool_EN.txt	STEAM	11	9	n/a	n/a	pyFR	0	TJ049
1327.346	2.638	1963878	WORD	n/a	wordpools/wordpool_EN.txt	RAT	12	9	n/a	n/a	pyFR	0	TJ049
1329.984	2.488	1966516	WORD	n/a	wordpools/wordpool_EN.txt	FENCE	13	9	n/a	n/a	pyFR	0	TJ049
1332.472	2.687	1969004	WORD	n/a	wordpools/wordpool_EN.txt	SWORD	14	9	n/a	n/a	pyFR	0	TJ049
1335.159	1.604	1971691	WORD	n/a	wordpools/wordpool_EN.txt	FISH	15	9	n/a	n/a	pyFR	0	TJ049
1336.763	0.901	1973295	START	n/a	n/a	n/a	n/a	9	[-999 -999 -999]	-999	pyFR	0	TJ049
1337.664	4.09	1974196	PROB	n/a	n/a	n/a	n/a	9	[3 3 1]	7	pyFR	0	TJ049
1341.754	7.93	1978286	PROB	n/a	n/a	n/a	n/a	9	[6 6 8]	20	pyFR	0	TJ049
1349.684	5.944	1986216	PROB	n/a	n/a	n/a	n/a	9	[2 8 7]	17	pyFR	0	TJ049
1355.628	10.984	1992159	PROB	n/a	n/a	n/a	n/a	9	[6 8 9]	23	pyFR	0	TJ049
1366.612	1.053	2003143	STOP	n/a	n/a	n/a	n/a	9	[-999 -999 -999]	-999	pyFR	0	TJ049
1367.665	1.022	2004196	REC_START	n/a	n/a	n/a	-999	9	n/a	n/a	pyFR	0	TJ049
1368.687	3.797	2005218	REC_WORD_VV	3.797	n/a	<>	-999	9	n/a	n/a	pyFR	0	TJ049
1372.484	1.0	2009015	REC_WORD_VV	1.0	n/a	<>	-999	9	n/a	n/a	pyFR	0	TJ049
1373.484	0.59	2010015	REC_WORD_VV	0.59	n/a	<>	-999	9	n/a	n/a	pyFR	0	TJ049
1374.074	2.73	2010605	REC_WORD	2.73	n/a	RUG	-999	9	n/a	n/a	pyFR	0	TJ049
1376.804	1.086	2013335	REC_WORD	1.086	n/a	CHALK	-999	9	n/a	n/a	pyFR	0	TJ049
1377.89	3.749	2014421	REC_WORD	3.749	n/a	SCHOOL	-999	9	n/a	n/a	pyFR	0	TJ049
1381.639	5.412	2018169	REC_WORD_VV	5.412	n/a	<>	-999	9	n/a	n/a	pyFR	0	TJ049
1387.051	30.715	2023581	REC_WORD	30.715	n/a	RAT	-999	9	n/a	n/a	pyFR	0	TJ049
1417.766	0.016	2054295	TRIAL	n/a	n/a	n/a	-999	10	n/a	n/a	pyFR	0	TJ049
1417.782	2.905	2054311	ORIENT	n/a	n/a	n/a	-999	10	n/a	n/a	pyFR	0	TJ049
1420.687	2.52	2057216	WORD	n/a	wordpools/wordpool_EN.txt	BOY	1	10	n/a	n/a	pyFR	0	TJ049
1423.207	2.605	2059736	WORD	n/a	wordpools/wordpool_EN.txt	SHEEP	2	10	n/a	n/a	pyFR	0	TJ049
1425.812	2.738	2062341	WORD	n/a	wordpools/wordpool_EN.txt	ICE	3	10	n/a	n/a	pyFR	0	TJ049
1428.55	2.704	2065079	WORD	n/a	wordpools/wordpool_EN.txt	CANE	4	10	n/a	n/a	pyFR	0	TJ049
1431.254	2.788	2067783	WORD	n/a	wordpools/wordpool_EN.txt	OAK	5	10	n/a	n/a	pyFR	0	TJ049
1434.042	2.672	2070570	WORD	n/a	wordpools/wordpool_EN.txt	MOLE	6	10	n/a	n/a	pyFR	0	TJ049
1436.714	2.688	2073242	WORD	n/a	wordpools/wordpool_EN.txt	HAWK	7	10	n/a	n/a	pyFR	0	TJ049
1439.402	2.703	2075930	WORD	n/a	wordpools/wordpool_EN.txt	FARM	8	10	n/a	n/a	pyFR	0	TJ049
1442.105	2.706	2078633	WORD	n/a	wordpools/wordpool_EN.txt	LAMB	9	10	n/a	n/a	pyFR	0	TJ049
1444.811	2.704	2081339	WORD	n/a	wordpools/wordpool_EN.txt	BAND	10	10	n/a	n/a	pyFR	0	TJ049
1447.515	2.754	2084043	WORD	n/a	wordpools/wordpool_EN.txt	VINE	11	10	n/a	n/a	pyFR	0	TJ049
1450.269	2.572	2086797	WORD	n/a	wordpools/wordpool_EN.txt	TOAST	12	10	n/a	n/a	pyFR	0	TJ049
1452.841	2.655	2089369	WORD	n/a	wordpools/wordpool_EN.txt	HOSE	13	10	n/a	n/a	pyFR	0	TJ049
1455.496	2.62	2092024	WORD	n/a	wordpools/wordpool_EN.txt	CAGE	14	10	n/a	n/a	pyFR	0	TJ049
1458.116	1.621	2094644	WORD	n/a	wordpools/wordpool_EN.txt	HEART	15	10	n/a	n/a	pyFR	0	TJ049
1459.737	0.817	2096265	START	n/a	n/a	n/a	n/a	10	[-999 -999 -999]	-999	pyFR	0	TJ049
1460.554	4.958	2097081	PROB	n/a	n/a	n/a	n/a	10	[6 3 6]	15	pyFR	0	TJ049
1465.512	8.03	2102039	PROB	n/a	n/a	n/a	n/a	10	[2 3 2]	7	pyFR	0	TJ049
1473.542	6.01	2110069	PROB	n/a	n/a	n/a	n/a	10	[9 5 5]	19	pyFR	0	TJ049
1479.552	5.172	2116079	PROB	n/a	n/a	n/a	n/a	10	[7 4 7]	18	pyFR	0	TJ049
1484.724	1.123	2121251	STOP	n/a	n/a	n/a	n/a	10	[-999 -999 -999]	-999	pyFR	0	TJ049
1485.847	1.228	2122374	REC_START	n/a	n/a	n/a	-999	10	n/a	n/a	pyFR	0	TJ049
1487.075	0.593	2123602	REC_WORD_VV	0.593	n/a	<>	-999	10	n/a	n/a	pyFR	0	TJ049
1487.668	1.581	2124194	REC_WORD	1.581	n/a	FARM	-999	10	n/a	n/a	pyFR	0	TJ049
1489.249	1.648	2125775	REC_WORD	1.648	n/a	BOY	-999	10	n/a	n/a	pyFR	0	TJ049
1490.897	5.009	2127423	REC_WORD	5.009	n/a	SHEEP	-999	10	n/a	n/a	pyFR	0	TJ049
1495.906	1.854	2132432	REC_WORD_VV	1.854	n/a	<>	-999	10	n/a	n/a	pyFR	0	TJ049
1497.76	22.987	2134286	REC_WORD	22.987	n/a	DEER	-999	10	n/a	n/a	pyFR	0	TJ049
1520.747	13.916	2157272	REC_WORD_VV	13.916	n/a	<>	-999	10	n/a	n/a	pyFR	0	TJ049
1534.663	0.016	2171188	TRIAL	n/a	n/a	n/a	-999	11	n/a	n/a	pyFR	0	TJ049
1534.679	2.804	2171204	ORIENT	n/a	n/a	n/a	-999	11	n/a	n/a	pyFR	0	TJ049
1537.483	2.554	2174008	WORD	n/a	wordpools/wordpool_EN.txt	PIPE	1	11	n/a	n/a	pyFR	0	TJ049
1540.037	2.488	2176562	WORD	n/a	wordpools/wordpool_EN.txt	SNAIL	2	11	n/a	n/a	pyFR	0	TJ049
1542.525	2.704	2179049	WORD	n/a	wordpools/wordpool_EN.txt	CORN	3	11	n/a	n/a	pyFR	0	TJ049
1545.229	2.672	2181753	WORD	n/a	wordpools/wordpool_EN.txt	MOON	4	11	n/a	n/a	pyFR	0	TJ049
1547.901	2.738	2184425	WORD	n/a	wordpools/wordpool_EN.txt	TOOL	5	11	n/a	n/a	pyFR	0	TJ049
1550.639	2.653	2187163	WORD	n/a	wordpools/wordpool_EN.txt	ROOM	6	11	n/a	n/a	pyFR	0	TJ049
1553.292	2.822	2189816	WORD	n/a	wordpools/wordpool_EN.txt	BEAN	7	11	n/a	n/a	pyFR	0	TJ049
1556.114	2.572	2192638	WORD	n/a	wordpools/wordpool_EN.txt	CLOWN	8	11	n/a	n/a	pyFR	0	TJ049
1558.686	2.653	2195210	WORD	n/a	wordpools/wordpool_EN.txt	MOTH	9	11	n/a	n/a	pyFR	0	TJ049
1561.339	2.755	2197863	WORD	n/a	wordpools/wordpool_EN.txt	BRICK	10	11	n/a	n/a	pyFR	0	TJ049
1564.094	2.789	2200618	WORD	n/a	wordpools/wordpool_EN.txt	LEG	11	11	n/a	n/a	pyFR	0	TJ049
1566.883	2.436	2203407	WORD	n/a	wordpools/wordpool_EN.txt	BOX	12	11	n/a	n/a	pyFR	0	TJ049
1569.319	2.722	2205842	WORD	n/a	wordpools/wordpool_EN.txt	WALL	13	11	n/a	n/a	pyFR	0	TJ049
1572.041	2.538	2208564	WORD	n/a	wordpools/wordpool_EN.txt	BEACH	14	11	n/a	n/a	pyFR	0	TJ049
1574.579	1.62	2211102	WORD	n/a	wordpools/wordpool_EN.txt	CART	15	11	n/a	n/a	pyFR	0	TJ049
1576.199	0.933	2212722	START	n/a	n/a	n/a	n/a	11	[-999 -999 -999]	-999	pyFR	0	TJ049
1577.132	10.034	2213655	PROB	n/a	n/a	n/a	n/a	11	[5 4 6]	15	pyFR	0	TJ049
1587.166	8.532	2223689	PROB	n/a	n/a	n/a	n/a	11	[7 2 6]	14	pyFR	0	TJ049
1595.698	6.673	2232220	PROB	n/a	n/a	n/a	n/a	11	[7 1 7]	15	pyFR	0	TJ049
1602.371	1.241	2238893	STOP	n/a	n/a	n/a	n/a	11	[-999 -999 -999]	-999	pyFR	0	TJ049
1603.612	13.522	2240134	REC_START	n/a	n/a	n/a	-999	11	n/a	n/a	pyFR	0	TJ049
1617.134	0.656	2253656	REC_WORD_VV	0.656	n/a	<>	-999	11	n/a	n/a	pyFR	0	TJ049
1617.79	6.445	2254312	REC_WORD	6.445	n/a	SNAIL	-999	11	n/a	n/a	pyFR	0	TJ049
1624.235	31.264	2260756	REC_WORD	31.264	n/a	MOON	-999	11	n/a	n/a	pyFR	0	TJ049
1655.499	0.016	2292019	TRIAL	n/a	n/a	n/a	-999	12	n/a	n/a	pyFR	0	TJ049
1655.515	2.754	2292035	ORIENT	n/a	n/a	n/a	-999	12	n/a	n/a	pyFR	0	TJ049
1658.269	2.489	2294789	WORD	n/a	wordpools/wordpool_EN.txt	HOOK	1	12	n/a	n/a	pyFR	0	TJ049
1660.758	2.737	2297278	WORD	n/a	wordpools/wordpool_EN.txt	LAND	2	12	n/a	n/a	pyFR	0	TJ049
1663.495	2.505	2300015	WORD	n/a	wordpools/wordpool_EN.txt	WING	3	12	n/a	n/a	pyFR	0	TJ049
1666.0	2.704	2302520	WORD	n/a	wordpools/wordpool_EN.txt	CAT	4	12	n/a	n/a	pyFR	0	TJ049
1668.704	2.553	2305224	WORD	n/a	wordpools/wordpool_EN.txt	HOOF	5	12	n/a	n/a	pyFR	0	TJ049
1671.257	2.706	2307777	WORD	n/a	wordpools/wordpool_EN.txt	ROPE	6	12	n/a	n/a	pyFR	0	TJ049
1673.963	2.705	2310483	WORD	n/a	wordpools/wordpool_EN.txt	FROG	7	12	n/a	n/a	pyFR	0	TJ049
1676.668	2.636	2313187	WORD	n/a	wordpools/wordpool_EN.txt	PIT	8	12	n/a	n/a	pyFR	0	TJ049
1679.304	2.672	2315823	WORD	n/a	wordpools/wordpool_EN.txt	WORM	9	12	n/a	n/a	pyFR	0	TJ049
1681.976	2.671	2318495	WORD	n/a	wordpools/wordpool_EN.txt	BENCH	10	12	n/a	n/a	pyFR	0	TJ049
1684.647	2.788	2321166	WORD	n/a	wordpools/wordpool_EN.txt	SKUNK	11	12	n/a	n/a	pyFR	0	TJ049
1687.435	2.471	2323954	WORD	n/a	wordpools/wordpool_EN.txt	WAND	12	12	n/a	n/a	pyFR	0	TJ049
1689.906	2.47	2326425	WORD	n/a	wordpools/wordpool_EN.txt	CHIN	13	12	n/a	n/a	pyFR	0	TJ049
1692.376	2.439	2328895	WORD	n/a	wordpools/wordpool_EN.txt	BEE	14	12	n/a	n/a	pyFR	0	TJ049
1694.815	1.62	2331334	WORD	n/a	wordpools/wordpool_EN.txt	HAT	15	12	n/a	n/a	pyFR	0	TJ049
1696.435	0.984	2332954	START	n/a	n/a	n/a	n/a	12	[-999 -999 -999]	-999	pyFR	0	TJ049
1697.419	6.927	2333938	PROB	n/a	n/a	n/a	n/a	12	[6 2 3]	11	pyFR	0	TJ049
1704.346	6.828	2340864	PROB	n/a	n/a	n/a	n/a	12	[3 1 3]	7	pyFR	0	TJ049
1711.174	4.576	2347692	PROB	n/a	n/a	n/a	n/a	12	[6 2 5]	12	pyFR	0	TJ049
1715.75	4.167	2352268	PROB	n/a	n/a	n/a	n/a	12	[6 5 3]	14	pyFR	0	TJ049
1719.917	1.091	2356435	STOP	n/a	n/a	n/a	n/a	12	[-999 -999 -999]	-999	pyFR	0	TJ049
1721.008	4.071	2357526	REC_START	n/a	n/a	n/a	-999	12	n/a	n/a	pyFR	0	TJ049
1725.079	2.158	2361597	REC_WORD	2.158	n/a	HOOK	-999	12	n/a	n/a	pyFR	0	TJ049
1727.237	1.0	2363755	REC_WORD_VV	1.0	n/a	<>	-999	12	n/a	n/a	pyFR	0	TJ049
1728.237	2.2	2364755	REC_WORD_VV	2.2	n/a	<>	-999	12	n/a	n/a	pyFR	0	TJ049
1730.437	10.769	2366954	REC_WORD	10.769	n/a	HOOK	-999	12	n/a	n/a	pyFR	0	TJ049
1741.206	153.278	2377723	REC_WORD_VV	153.278	n/a	<>	-999	12	n/a	n/a	pyFR	0	TJ049
1894.484	0.0	2530995	TRIAL	n/a	n/a	n/a	-999	13	n/a	n/a	pyFR	0	TJ049
