onset	duration	sample	trial_type	response_time	stim_file	item_name	serialpos	list	test	answer	experiment	session	subject
0.0	0.0	73739	SESS_START	n/a	n/a	n/a	-999	-999	n/a	n/a	pyFR	0	TJ015
0.0	31.612	73739	B	n/a	n/a	n/a	-999	-999	n/a	n/a	pyFR	0	TJ015
31.612	0.039	86385	START	n/a	n/a	n/a	n/a	0	[-999 -999 -999]	-999	pyFR	0	TJ015
31.651	15.228	86400	PROB	n/a	n/a	n/a	n/a	0	[4 4 6]	14	pyFR	0	TJ015
46.879	5.043	92492	PROB	n/a	n/a	n/a	n/a	0	[6 3 1]	10	pyFR	0	TJ015
51.922	8.147	94510	PROB	n/a	n/a	n/a	n/a	0	[8 9 9]	26	pyFR	0	TJ015
60.069	7.856	97769	PROB	n/a	n/a	n/a	n/a	0	[8 9 2]	19	pyFR	0	TJ015
67.925	17.743	100911	STOP	n/a	n/a	n/a	n/a	0	[-999 -999 -999]	-999	pyFR	0	TJ015
85.668	0.016	108009	TRIAL	n/a	n/a	n/a	-999	-999	n/a	n/a	pyFR	0	TJ015
85.684	2.922	108016	ORIENT	n/a	n/a	n/a	-999	-999	n/a	n/a	pyFR	0	TJ015
88.606	2.62	109185	WORD	n/a	wordpools/wordpool_EN.txt	SAIL	1	1	n/a	n/a	pyFR	0	TJ015
91.226	2.606	110233	WORD	n/a	wordpools/wordpool_EN.txt	BOY	2	1	n/a	n/a	pyFR	0	TJ015
93.832	2.772	111275	WORD	n/a	wordpools/wordpool_EN.txt	SHIRT	3	1	n/a	n/a	pyFR	0	TJ015
96.604	2.788	112384	WORD	n/a	wordpools/wordpool_EN.txt	STOVE	4	1	n/a	n/a	pyFR	0	TJ015
99.392	2.821	113500	WORD	n/a	wordpools/wordpool_EN.txt	PLANT	5	1	n/a	n/a	pyFR	0	TJ015
102.213	2.472	114628	WORD	n/a	wordpools/wordpool_EN.txt	FLEA	6	1	n/a	n/a	pyFR	0	TJ015
104.685	2.822	115617	WORD	n/a	wordpools/wordpool_EN.txt	GEESE	7	1	n/a	n/a	pyFR	0	TJ015
107.507	2.654	116746	WORD	n/a	wordpools/wordpool_EN.txt	BUSH	8	1	n/a	n/a	pyFR	0	TJ015
110.161	2.572	117808	WORD	n/a	wordpools/wordpool_EN.txt	SMILE	9	1	n/a	n/a	pyFR	0	TJ015
112.733	2.805	118837	WORD	n/a	wordpools/wordpool_EN.txt	CORN	10	1	n/a	n/a	pyFR	0	TJ015
115.538	2.638	119959	WORD	n/a	wordpools/wordpool_EN.txt	PEACH	11	1	n/a	n/a	pyFR	0	TJ015
118.176	2.455	121014	WORD	n/a	wordpools/wordpool_EN.txt	HORN	12	1	n/a	n/a	pyFR	0	TJ015
120.631	2.521	121996	WORD	n/a	wordpools/wordpool_EN.txt	DOLL	13	1	n/a	n/a	pyFR	0	TJ015
123.152	2.622	123005	WORD	n/a	wordpools/wordpool_EN.txt	BRICK	14	1	n/a	n/a	pyFR	0	TJ015
125.774	1.621	124053	WORD	n/a	wordpools/wordpool_EN.txt	CHIN	15	1	n/a	n/a	pyFR	0	TJ015
127.395	0.866	124702	START	n/a	n/a	n/a	n/a	1	[-999 -999 -999]	-999	pyFR	0	TJ015
128.261	18.784	125048	PROB	n/a	n/a	n/a	n/a	1	[9 4 8]	21	pyFR	0	TJ015
147.045	10.648	132563	PROB	n/a	n/a	n/a	n/a	1	[9 2 2]	13	pyFR	0	TJ015
157.693	1.076	136822	STOP	n/a	n/a	n/a	n/a	1	[-999 -999 -999]	-999	pyFR	0	TJ015
158.769	3.581	137253	REC_START	n/a	n/a	n/a	-999	-999	n/a	n/a	pyFR	0	TJ015
162.35	1.966	138685	REC_WORD_VV	1.966	n/a	VV	-999	1	n/a	n/a	pyFR	0	TJ015
164.316	1.379	139472	REC_WORD	1.379	n/a	SAIL	-999	1	n/a	n/a	pyFR	0	TJ015
165.695	1.725	140024	REC_WORD	1.725	n/a	GREASE	-999	1	n/a	n/a	pyFR	0	TJ015
167.42	2.243	140714	REC_WORD	2.243	n/a	DOG	-999	1	n/a	n/a	pyFR	0	TJ015
169.663	5.247	141611	REC_WORD	5.247	n/a	CAT	-999	1	n/a	n/a	pyFR	0	TJ015
174.91	10.589	143710	REC_WORD	10.589	n/a	BICYCLE	-999	1	n/a	n/a	pyFR	0	TJ015
185.499	1.0	147946	REC_WORD_VV	1.0	n/a	VV	-999	1	n/a	n/a	pyFR	0	TJ015
186.499	1.0	148346	REC_WORD_VV	1.0	n/a	VV	-999	1	n/a	n/a	pyFR	0	TJ015
187.499	1.0	148746	REC_WORD_VV	1.0	n/a	VV	-999	1	n/a	n/a	pyFR	0	TJ015
188.499	1.0	149146	REC_WORD_VV	1.0	n/a	VV	-999	1	n/a	n/a	pyFR	0	TJ015
189.499	1.0	149546	REC_WORD_VV	1.0	n/a	VV	-999	1	n/a	n/a	pyFR	0	TJ015
190.499	1.0	149946	REC_WORD_VV	1.0	n/a	VV	-999	1	n/a	n/a	pyFR	0	TJ015
191.499	1.0	150346	REC_WORD_VV	1.0	n/a	VV	-999	1	n/a	n/a	pyFR	0	TJ015
192.499	1.0	150746	REC_WORD_VV	1.0	n/a	VV	-999	1	n/a	n/a	pyFR	0	TJ015
193.499	27.667	151146	REC_WORD_VV	27.667	n/a	VV	-999	1	n/a	n/a	pyFR	0	TJ015
221.166	0.016	162214	TRIAL	n/a	n/a	n/a	-999	-999	n/a	n/a	pyFR	0	TJ015
221.182	2.821	162221	ORIENT	n/a	n/a	n/a	-999	-999	n/a	n/a	pyFR	0	TJ015
224.003	2.756	163349	WORD	n/a	wordpools/wordpool_EN.txt	CHAIR	1	2	n/a	n/a	pyFR	0	TJ015
226.759	2.555	164452	WORD	n/a	wordpools/wordpool_EN.txt	BAT	2	2	n/a	n/a	pyFR	0	TJ015
229.314	2.771	165474	WORD	n/a	wordpools/wordpool_EN.txt	DESK	3	2	n/a	n/a	pyFR	0	TJ015
232.085	2.706	166582	WORD	n/a	wordpools/wordpool_EN.txt	PET	4	2	n/a	n/a	pyFR	0	TJ015
234.791	2.571	167665	WORD	n/a	wordpools/wordpool_EN.txt	COUCH	5	2	n/a	n/a	pyFR	0	TJ015
237.362	2.538	168693	WORD	n/a	wordpools/wordpool_EN.txt	HAWK	6	2	n/a	n/a	pyFR	0	TJ015
239.9	2.572	169709	WORD	n/a	wordpools/wordpool_EN.txt	COW	7	2	n/a	n/a	pyFR	0	TJ015
242.472	2.587	170738	WORD	n/a	wordpools/wordpool_EN.txt	FARM	8	2	n/a	n/a	pyFR	0	TJ015
245.059	2.589	171773	WORD	n/a	wordpools/wordpool_EN.txt	OAR	9	2	n/a	n/a	pyFR	0	TJ015
247.648	2.62	172808	WORD	n/a	wordpools/wordpool_EN.txt	DRESS	10	2	n/a	n/a	pyFR	0	TJ015
250.268	2.523	173856	WORD	n/a	wordpools/wordpool_EN.txt	TOAST	11	2	n/a	n/a	pyFR	0	TJ015
252.791	2.571	174866	WORD	n/a	wordpools/wordpool_EN.txt	THREAD	12	2	n/a	n/a	pyFR	0	TJ015
255.362	2.804	175894	WORD	n/a	wordpools/wordpool_EN.txt	FRUIT	13	2	n/a	n/a	pyFR	0	TJ015
258.166	2.522	177016	WORD	n/a	wordpools/wordpool_EN.txt	SHOE	14	2	n/a	n/a	pyFR	0	TJ015
260.688	1.621	178025	WORD	n/a	wordpools/wordpool_EN.txt	FILM	15	2	n/a	n/a	pyFR	0	TJ015
262.309	1.018	178673	START	n/a	n/a	n/a	n/a	2	[-999 -999 -999]	-999	pyFR	0	TJ015
263.327	11.554	179081	PROB	n/a	n/a	n/a	n/a	2	[9 4 2]	15	pyFR	0	TJ015
274.881	9.908	183703	PROB	n/a	n/a	n/a	n/a	2	[2 9 4]	15	pyFR	0	TJ015
284.789	1.147	187666	STOP	n/a	n/a	n/a	n/a	2	[-999 -999 -999]	-999	pyFR	0	TJ015
285.936	16.516	188125	REC_START	n/a	n/a	n/a	-999	-999	n/a	n/a	pyFR	0	TJ015
302.452	1.0	194732	REC_WORD_VV	1.0	n/a	VV	-999	2	n/a	n/a	pyFR	0	TJ015
303.452	0.758	195132	REC_WORD_VV	0.758	n/a	VV	-999	2	n/a	n/a	pyFR	0	TJ015
304.21	1.0	195435	REC_WORD_VV	1.0	n/a	VV	-999	2	n/a	n/a	pyFR	0	TJ015
305.21	1.0	195836	REC_WORD_VV	1.0	n/a	VV	-999	2	n/a	n/a	pyFR	0	TJ015
306.21	1.528	196236	REC_WORD_VV	1.528	n/a	VV	-999	2	n/a	n/a	pyFR	0	TJ015
307.738	0.58	196847	REC_WORD	0.58	n/a	CHAIR	-999	2	n/a	n/a	pyFR	0	TJ015
308.318	1.566	197079	REC_WORD	1.566	n/a	DESK	-999	2	n/a	n/a	pyFR	0	TJ015
309.884	1.286	197705	REC_WORD	1.286	n/a	BED	-999	2	n/a	n/a	pyFR	0	TJ015
311.17	0.975	198220	REC_WORD	0.975	n/a	HOUSE	-999	2	n/a	n/a	pyFR	0	TJ015
312.145	1.42	198610	REC_WORD	1.42	n/a	CAT	-999	2	n/a	n/a	pyFR	0	TJ015
313.565	26.921	199178	REC_WORD	26.921	n/a	LOCK	-999	2	n/a	n/a	pyFR	0	TJ015
340.486	0.016	209947	TRIAL	n/a	n/a	n/a	-999	-999	n/a	n/a	pyFR	0	TJ015
340.502	3.005	209954	ORIENT	n/a	n/a	n/a	-999	-999	n/a	n/a	pyFR	0	TJ015
343.507	2.806	211156	WORD	n/a	wordpools/wordpool_EN.txt	THUMB	1	3	n/a	n/a	pyFR	0	TJ015
346.313	2.654	212278	WORD	n/a	wordpools/wordpool_EN.txt	BOARD	2	3	n/a	n/a	pyFR	0	TJ015
348.967	2.422	213340	WORD	n/a	wordpools/wordpool_EN.txt	PLANE	3	3	n/a	n/a	pyFR	0	TJ015
351.389	2.504	214309	WORD	n/a	wordpools/wordpool_EN.txt	FLOOR	4	3	n/a	n/a	pyFR	0	TJ015
353.893	2.772	215311	WORD	n/a	wordpools/wordpool_EN.txt	PHONE	5	3	n/a	n/a	pyFR	0	TJ015
356.665	2.437	216420	WORD	n/a	wordpools/wordpool_EN.txt	SPOON	6	3	n/a	n/a	pyFR	0	TJ015
359.102	2.572	217395	WORD	n/a	wordpools/wordpool_EN.txt	TENT	7	3	n/a	n/a	pyFR	0	TJ015
361.674	2.705	218424	WORD	n/a	wordpools/wordpool_EN.txt	POOL	8	3	n/a	n/a	pyFR	0	TJ015
364.379	2.804	219506	WORD	n/a	wordpools/wordpool_EN.txt	GLASS	9	3	n/a	n/a	pyFR	0	TJ015
367.183	2.723	220627	WORD	n/a	wordpools/wordpool_EN.txt	WOOD	10	3	n/a	n/a	pyFR	0	TJ015
369.906	2.471	221717	WORD	n/a	wordpools/wordpool_EN.txt	FLUTE	11	3	n/a	n/a	pyFR	0	TJ015
372.377	2.721	222705	WORD	n/a	wordpools/wordpool_EN.txt	FAN	12	3	n/a	n/a	pyFR	0	TJ015
375.098	2.438	223794	WORD	n/a	wordpools/wordpool_EN.txt	CRANE	13	3	n/a	n/a	pyFR	0	TJ015
377.536	2.721	224769	WORD	n/a	wordpools/wordpool_EN.txt	BELL	14	3	n/a	n/a	pyFR	0	TJ015
380.257	1.606	225858	WORD	n/a	wordpools/wordpool_EN.txt	LAMP	15	3	n/a	n/a	pyFR	0	TJ015
381.863	1.183	226500	START	n/a	n/a	n/a	n/a	3	[-999 -999 -999]	-999	pyFR	0	TJ015
383.046	6.496	226973	PROB	n/a	n/a	n/a	n/a	3	[4 6 3]	13	pyFR	0	TJ015
389.542	9.3	229572	PROB	n/a	n/a	n/a	n/a	3	[5 9 6]	20	pyFR	0	TJ015
398.842	6.723	233292	PROB	n/a	n/a	n/a	n/a	3	[5 6 6]	17	pyFR	0	TJ015
405.565	1.093	235982	STOP	n/a	n/a	n/a	n/a	3	[-999 -999 -999]	-999	pyFR	0	TJ015
406.658	3.939	236419	REC_START	n/a	n/a	n/a	-999	-999	n/a	n/a	pyFR	0	TJ015
410.597	1.179	237995	REC_WORD	1.179	n/a	THUMB	-999	3	n/a	n/a	pyFR	0	TJ015
411.776	1.043	238466	REC_WORD	1.043	n/a	BOARD	-999	3	n/a	n/a	pyFR	0	TJ015
412.819	0.825	238884	REC_WORD	0.825	n/a	PLANE	-999	3	n/a	n/a	pyFR	0	TJ015
413.644	2.815	239214	REC_WORD	2.815	n/a	FLUTE	-999	3	n/a	n/a	pyFR	0	TJ015
416.459	0.911	240340	REC_WORD	0.911	n/a	LOCK	-999	3	n/a	n/a	pyFR	0	TJ015
417.37	40.615	240704	REC_WORD	40.615	n/a	RUN	-999	3	n/a	n/a	pyFR	0	TJ015
457.985	0.015	256952	TRIAL	n/a	n/a	n/a	-999	-999	n/a	n/a	pyFR	0	TJ015
458.0	2.79	256958	ORIENT	n/a	n/a	n/a	-999	-999	n/a	n/a	pyFR	0	TJ015
460.79	2.537	258074	WORD	n/a	wordpools/wordpool_EN.txt	BOOK	1	4	n/a	n/a	pyFR	0	TJ015
463.327	2.605	259089	WORD	n/a	wordpools/wordpool_EN.txt	CART	2	4	n/a	n/a	pyFR	0	TJ015
465.932	2.455	260131	WORD	n/a	wordpools/wordpool_EN.txt	DOCK	3	4	n/a	n/a	pyFR	0	TJ015
468.387	2.721	261113	WORD	n/a	wordpools/wordpool_EN.txt	OWL	4	4	n/a	n/a	pyFR	0	TJ015
471.108	2.739	262202	WORD	n/a	wordpools/wordpool_EN.txt	TRUCK	5	4	n/a	n/a	pyFR	0	TJ015
473.847	2.738	263298	WORD	n/a	wordpools/wordpool_EN.txt	PARK	6	4	n/a	n/a	pyFR	0	TJ015
476.585	2.671	264393	WORD	n/a	wordpools/wordpool_EN.txt	STICK	7	4	n/a	n/a	pyFR	0	TJ015
479.256	2.805	265461	WORD	n/a	wordpools/wordpool_EN.txt	BLOOM	8	4	n/a	n/a	pyFR	0	TJ015
482.061	2.639	266583	WORD	n/a	wordpools/wordpool_EN.txt	SHIELD	9	4	n/a	n/a	pyFR	0	TJ015
484.7	2.537	267639	WORD	n/a	wordpools/wordpool_EN.txt	BREAD	10	4	n/a	n/a	pyFR	0	TJ015
487.237	2.522	268654	WORD	n/a	wordpools/wordpool_EN.txt	WHALE	11	4	n/a	n/a	pyFR	0	TJ015
489.759	2.454	269663	WORD	n/a	wordpools/wordpool_EN.txt	STEAM	12	4	n/a	n/a	pyFR	0	TJ015
492.213	2.439	270645	WORD	n/a	wordpools/wordpool_EN.txt	COAT	13	4	n/a	n/a	pyFR	0	TJ015
494.652	2.788	271620	WORD	n/a	wordpools/wordpool_EN.txt	WING	14	4	n/a	n/a	pyFR	0	TJ015
497.44	1.62	272736	WORD	n/a	wordpools/wordpool_EN.txt	CAVE	15	4	n/a	n/a	pyFR	0	TJ015
499.06	1.134	273384	START	n/a	n/a	n/a	n/a	4	[-999 -999 -999]	-999	pyFR	0	TJ015
500.194	8.283	273837	PROB	n/a	n/a	n/a	n/a	4	[4 9 9]	22	pyFR	0	TJ015
508.477	5.009	277151	PROB	n/a	n/a	n/a	n/a	4	[2 9 1]	12	pyFR	0	TJ015
513.486	11.071	279155	PROB	n/a	n/a	n/a	n/a	4	[6 6 9]	21	pyFR	0	TJ015
524.557	1.236	283584	STOP	n/a	n/a	n/a	n/a	4	[-999 -999 -999]	-999	pyFR	0	TJ015
525.793	5.275	284078	REC_START	n/a	n/a	n/a	-999	-999	n/a	n/a	pyFR	0	TJ015
531.068	0.679	286188	REC_WORD	0.679	n/a	WALK	-999	4	n/a	n/a	pyFR	0	TJ015
531.747	0.548	286460	REC_WORD	0.548	n/a	RUN	-999	4	n/a	n/a	pyFR	0	TJ015
532.295	0.659	286679	REC_WORD	0.659	n/a	WARM	-999	4	n/a	n/a	pyFR	0	TJ015
532.954	1.295	286943	REC_WORD	1.295	n/a	DOCK	-999	4	n/a	n/a	pyFR	0	TJ015
534.249	2.793	287461	REC_WORD	2.793	n/a	COLD	-999	4	n/a	n/a	pyFR	0	TJ015
537.042	42.215	288578	REC_WORD	42.215	n/a	HOT	-999	4	n/a	n/a	pyFR	0	TJ015
579.257	0.016	305466	TRIAL	n/a	n/a	n/a	-999	-999	n/a	n/a	pyFR	0	TJ015
579.273	2.772	305472	ORIENT	n/a	n/a	n/a	-999	-999	n/a	n/a	pyFR	0	TJ015
582.045	2.489	306581	WORD	n/a	wordpools/wordpool_EN.txt	GATE	1	5	n/a	n/a	pyFR	0	TJ015
584.534	2.654	307577	WORD	n/a	wordpools/wordpool_EN.txt	PRINCE	2	5	n/a	n/a	pyFR	0	TJ015
587.188	2.522	308639	WORD	n/a	wordpools/wordpool_EN.txt	DEER	3	5	n/a	n/a	pyFR	0	TJ015
589.71	2.537	309648	WORD	n/a	wordpools/wordpool_EN.txt	BRANCH	4	5	n/a	n/a	pyFR	0	TJ015
592.247	2.472	310663	WORD	n/a	wordpools/wordpool_EN.txt	HOOK	5	5	n/a	n/a	pyFR	0	TJ015
594.719	2.504	311651	WORD	n/a	wordpools/wordpool_EN.txt	GOLD	6	5	n/a	n/a	pyFR	0	TJ015
597.223	2.639	312653	WORD	n/a	wordpools/wordpool_EN.txt	MOTH	7	5	n/a	n/a	pyFR	0	TJ015
599.862	2.721	313709	WORD	n/a	wordpools/wordpool_EN.txt	BEACH	8	5	n/a	n/a	pyFR	0	TJ015
602.583	2.638	314797	WORD	n/a	wordpools/wordpool_EN.txt	TAPE	9	5	n/a	n/a	pyFR	0	TJ015
605.221	2.489	315853	WORD	n/a	wordpools/wordpool_EN.txt	SHARK	10	5	n/a	n/a	pyFR	0	TJ015
607.71	2.47	316848	WORD	n/a	wordpools/wordpool_EN.txt	BAG	11	5	n/a	n/a	pyFR	0	TJ015
610.18	2.805	317837	WORD	n/a	wordpools/wordpool_EN.txt	LEG	12	5	n/a	n/a	pyFR	0	TJ015
612.985	2.472	318959	WORD	n/a	wordpools/wordpool_EN.txt	STRING	13	5	n/a	n/a	pyFR	0	TJ015
615.457	2.754	319948	WORD	n/a	wordpools/wordpool_EN.txt	MOON	14	5	n/a	n/a	pyFR	0	TJ015
618.211	1.606	321049	WORD	n/a	wordpools/wordpool_EN.txt	INK	15	5	n/a	n/a	pyFR	0	TJ015
619.817	1.083	321692	START	n/a	n/a	n/a	n/a	5	[-999 -999 -999]	-999	pyFR	0	TJ015
620.9	7.047	322125	PROB	n/a	n/a	n/a	n/a	5	[4 2 6]	12	pyFR	0	TJ015
627.947	6.829	324944	PROB	n/a	n/a	n/a	n/a	5	[7 5 2]	13	pyFR	0	TJ015
634.776	8.021	327676	PROB	n/a	n/a	n/a	n/a	5	[8 4 3]	15	pyFR	0	TJ015
642.797	1.046	330885	STOP	n/a	n/a	n/a	n/a	5	[-999 -999 -999]	-999	pyFR	0	TJ015
643.843	3.386	331303	REC_START	n/a	n/a	n/a	-999	-999	n/a	n/a	pyFR	0	TJ015
647.229	0.708	332658	REC_WORD	0.708	n/a	WALK	-999	5	n/a	n/a	pyFR	0	TJ015
647.937	1.261	332941	REC_WORD	1.261	n/a	LEG	-999	5	n/a	n/a	pyFR	0	TJ015
649.198	1.803	333445	REC_WORD	1.803	n/a	MOON	-999	5	n/a	n/a	pyFR	0	TJ015
651.001	0.787	334167	REC_WORD	0.787	n/a	CAT	-999	5	n/a	n/a	pyFR	0	TJ015
651.788	2.524	334482	REC_WORD	2.524	n/a	DOG	-999	5	n/a	n/a	pyFR	0	TJ015
654.312	11.503	335491	REC_WORD	11.503	n/a	RUN	-999	5	n/a	n/a	pyFR	0	TJ015
665.815	30.642	340093	REC_WORD	30.642	n/a	GOLD	-999	5	n/a	n/a	pyFR	0	TJ015
696.457	0.016	352351	TRIAL	n/a	n/a	n/a	-999	-999	n/a	n/a	pyFR	0	TJ015
696.473	2.804	352357	ORIENT	n/a	n/a	n/a	-999	-999	n/a	n/a	pyFR	0	TJ015
699.277	2.672	353479	WORD	n/a	wordpools/wordpool_EN.txt	MAIL	1	6	n/a	n/a	pyFR	0	TJ015
701.949	2.555	354548	WORD	n/a	wordpools/wordpool_EN.txt	TOY	2	6	n/a	n/a	pyFR	0	TJ015
704.504	2.822	355570	WORD	n/a	wordpools/wordpool_EN.txt	SKY	3	6	n/a	n/a	pyFR	0	TJ015
707.326	2.754	356699	WORD	n/a	wordpools/wordpool_EN.txt	TRAIN	4	6	n/a	n/a	pyFR	0	TJ015
710.08	2.672	357801	WORD	n/a	wordpools/wordpool_EN.txt	MUD	5	6	n/a	n/a	pyFR	0	TJ015
712.752	2.772	358870	WORD	n/a	wordpools/wordpool_EN.txt	BENCH	6	6	n/a	n/a	pyFR	0	TJ015
715.524	2.704	359979	WORD	n/a	wordpools/wordpool_EN.txt	SUIT	7	6	n/a	n/a	pyFR	0	TJ015
718.228	2.755	361060	WORD	n/a	wordpools/wordpool_EN.txt	SQUARE	8	6	n/a	n/a	pyFR	0	TJ015
720.983	2.573	362162	WORD	n/a	wordpools/wordpool_EN.txt	TOAD	9	6	n/a	n/a	pyFR	0	TJ015
723.556	2.72	363192	WORD	n/a	wordpools/wordpool_EN.txt	SLEEVE	10	6	n/a	n/a	pyFR	0	TJ015
726.276	2.606	364280	WORD	n/a	wordpools/wordpool_EN.txt	CLOCK	11	6	n/a	n/a	pyFR	0	TJ015
728.882	2.672	365322	WORD	n/a	wordpools/wordpool_EN.txt	SHEEP	12	6	n/a	n/a	pyFR	0	TJ015
731.554	2.687	366391	WORD	n/a	wordpools/wordpool_EN.txt	ELF	13	6	n/a	n/a	pyFR	0	TJ015
734.241	2.522	367466	WORD	n/a	wordpools/wordpool_EN.txt	CLOWN	14	6	n/a	n/a	pyFR	0	TJ015
736.763	1.605	368475	WORD	n/a	wordpools/wordpool_EN.txt	FENCE	15	6	n/a	n/a	pyFR	0	TJ015
738.368	1.184	369117	START	n/a	n/a	n/a	n/a	6	[-999 -999 -999]	-999	pyFR	0	TJ015
739.552	5.743	369591	PROB	n/a	n/a	n/a	n/a	6	[1 5 2]	8	pyFR	0	TJ015
745.295	7.897	371888	PROB	n/a	n/a	n/a	n/a	6	[4 4 9]	17	pyFR	0	TJ015
753.192	16.548	375047	PROB	n/a	n/a	n/a	n/a	6	[8 6 9]	22	pyFR	0	TJ015
769.74	1.203	381667	STOP	n/a	n/a	n/a	n/a	6	[-999 -999 -999]	-999	pyFR	0	TJ015
770.943	12.794	382149	REC_START	n/a	n/a	n/a	-999	-999	n/a	n/a	pyFR	0	TJ015
783.737	0.714	387267	REC_WORD	0.714	n/a	SHEEP	-999	6	n/a	n/a	pyFR	0	TJ015
784.451	0.425	387552	REC_WORD	0.425	n/a	RUN	-999	6	n/a	n/a	pyFR	0	TJ015
784.876	6.442	387722	REC_WORD	6.442	n/a	WALK	-999	6	n/a	n/a	pyFR	0	TJ015
791.318	37.882	390299	REC_WORD_VV	37.882	n/a	VV	-999	6	n/a	n/a	pyFR	0	TJ015
829.2	0.015	405454	TRIAL	n/a	n/a	n/a	-999	-999	n/a	n/a	pyFR	0	TJ015
829.215	2.806	405460	ORIENT	n/a	n/a	n/a	-999	-999	n/a	n/a	pyFR	0	TJ015
832.021	2.722	406582	WORD	n/a	wordpools/wordpool_EN.txt	FISH	1	7	n/a	n/a	pyFR	0	TJ015
834.743	2.622	407671	WORD	n/a	wordpools/wordpool_EN.txt	ZOO	2	7	n/a	n/a	pyFR	0	TJ015
837.365	2.588	408720	WORD	n/a	wordpools/wordpool_EN.txt	RUG	3	7	n/a	n/a	pyFR	0	TJ015
839.953	2.788	409756	WORD	n/a	wordpools/wordpool_EN.txt	HEART	4	7	n/a	n/a	pyFR	0	TJ015
842.741	2.705	410871	WORD	n/a	wordpools/wordpool_EN.txt	SWAMP	5	7	n/a	n/a	pyFR	0	TJ015
845.446	2.688	411953	WORD	n/a	wordpools/wordpool_EN.txt	RAKE	6	7	n/a	n/a	pyFR	0	TJ015
848.134	2.589	413028	WORD	n/a	wordpools/wordpool_EN.txt	DOOR	7	7	n/a	n/a	pyFR	0	TJ015
850.723	2.503	414064	WORD	n/a	wordpools/wordpool_EN.txt	FORK	8	7	n/a	n/a	pyFR	0	TJ015
853.226	2.639	415065	WORD	n/a	wordpools/wordpool_EN.txt	STORM	9	7	n/a	n/a	pyFR	0	TJ015
855.865	2.522	416121	WORD	n/a	wordpools/wordpool_EN.txt	LOCK	10	7	n/a	n/a	pyFR	0	TJ015
858.387	2.604	417130	WORD	n/a	wordpools/wordpool_EN.txt	RICE	11	7	n/a	n/a	pyFR	0	TJ015
860.991	2.472	418172	WORD	n/a	wordpools/wordpool_EN.txt	BRUSH	12	7	n/a	n/a	pyFR	0	TJ015
863.463	2.72	419161	WORD	n/a	wordpools/wordpool_EN.txt	CASH	13	7	n/a	n/a	pyFR	0	TJ015
866.183	2.523	420249	WORD	n/a	wordpools/wordpool_EN.txt	LAWN	14	7	n/a	n/a	pyFR	0	TJ015
868.706	1.621	421258	WORD	n/a	wordpools/wordpool_EN.txt	BATH	15	7	n/a	n/a	pyFR	0	TJ015
870.327	0.966	421906	START	n/a	n/a	n/a	n/a	7	[-999 -999 -999]	-999	pyFR	0	TJ015
871.293	7.697	422293	PROB	n/a	n/a	n/a	n/a	7	[7 1 3]	11	pyFR	0	TJ015
878.99	11.288	425372	PROB	n/a	n/a	n/a	n/a	7	[2 7 9]	18	pyFR	0	TJ015
890.278	5.367	429888	PROB	n/a	n/a	n/a	n/a	7	[5 3 2]	10	pyFR	0	TJ015
895.645	1.13	432035	STOP	n/a	n/a	n/a	n/a	7	[-999 -999 -999]	-999	pyFR	0	TJ015
896.775	1.017	432487	REC_START	n/a	n/a	n/a	-999	-999	n/a	n/a	pyFR	0	TJ015
897.792	0.96	432894	REC_WORD	0.96	n/a	FISH	-999	7	n/a	n/a	pyFR	0	TJ015
898.752	1.32	433278	REC_WORD	1.32	n/a	ZOO	-999	7	n/a	n/a	pyFR	0	TJ015
900.072	1.33	433806	REC_WORD	1.33	n/a	RUN	-999	7	n/a	n/a	pyFR	0	TJ015
901.402	2.23	434338	REC_WORD	2.23	n/a	HEART	-999	7	n/a	n/a	pyFR	0	TJ015
903.632	3.088	435230	REC_WORD	3.088	n/a	LAWN	-999	7	n/a	n/a	pyFR	0	TJ015
906.72	549.106	436465	REC_WORD	549.106	n/a	TAN	-999	7	n/a	n/a	pyFR	0	TJ015
1455.826	0.016	656131	TRIAL	n/a	n/a	n/a	-999	-999	n/a	n/a	pyFR	0	TJ015
1455.842	2.739	656137	ORIENT	n/a	n/a	n/a	-999	-999	n/a	n/a	pyFR	0	TJ015
1458.581	2.72	657233	WORD	n/a	wordpools/wordpool_EN.txt	PEARL	1	8	n/a	n/a	pyFR	0	TJ015
1461.301	2.539	658321	WORD	n/a	wordpools/wordpool_EN.txt	DART	2	8	n/a	n/a	pyFR	0	TJ015
1463.84	2.772	659337	WORD	n/a	wordpools/wordpool_EN.txt	MILK	3	8	n/a	n/a	pyFR	0	TJ015
1466.612	2.722	660446	WORD	n/a	wordpools/wordpool_EN.txt	STEM	4	8	n/a	n/a	pyFR	0	TJ015
1469.334	2.804	661535	WORD	n/a	wordpools/wordpool_EN.txt	SNAKE	5	8	n/a	n/a	pyFR	0	TJ015
1472.138	2.422	662656	WORD	n/a	wordpools/wordpool_EN.txt	CAGE	6	8	n/a	n/a	pyFR	0	TJ015
1474.56	2.637	663625	WORD	n/a	wordpools/wordpool_EN.txt	HOUSE	7	8	n/a	n/a	pyFR	0	TJ015
1477.197	2.688	664680	WORD	n/a	wordpools/wordpool_EN.txt	CHEEK	8	8	n/a	n/a	pyFR	0	TJ015
1479.885	2.539	665756	WORD	n/a	wordpools/wordpool_EN.txt	SOCK	9	8	n/a	n/a	pyFR	0	TJ015
1482.424	2.754	666771	WORD	n/a	wordpools/wordpool_EN.txt	HEN	10	8	n/a	n/a	pyFR	0	TJ015
1485.178	2.656	667873	WORD	n/a	wordpools/wordpool_EN.txt	TEETH	11	8	n/a	n/a	pyFR	0	TJ015
1487.834	2.689	668936	WORD	n/a	wordpools/wordpool_EN.txt	LEAF	12	8	n/a	n/a	pyFR	0	TJ015
1490.523	2.503	670011	WORD	n/a	wordpools/wordpool_EN.txt	GOAT	13	8	n/a	n/a	pyFR	0	TJ015
1493.026	2.656	671013	WORD	n/a	wordpools/wordpool_EN.txt	FLAG	14	8	n/a	n/a	pyFR	0	TJ015
1495.682	1.62	672075	WORD	n/a	wordpools/wordpool_EN.txt	RAIN	15	8	n/a	n/a	pyFR	0	TJ015
1497.302	1.119	672723	START	n/a	n/a	n/a	n/a	8	[-999 -999 -999]	-999	pyFR	0	TJ015
1498.421	8.348	673171	PROB	n/a	n/a	n/a	n/a	8	[8 4 5]	17	pyFR	0	TJ015
1506.769	14.321	676510	PROB	n/a	n/a	n/a	n/a	8	[4 9 8]	21	pyFR	0	TJ015
1521.09	1.091	682239	STOP	n/a	n/a	n/a	n/a	8	[-999 -999 -999]	-999	pyFR	0	TJ015
1522.181	5.092	682676	REC_START	n/a	n/a	n/a	-999	-999	n/a	n/a	pyFR	0	TJ015
1527.273	1.724	684713	REC_WORD	1.724	n/a	PEARL	-999	8	n/a	n/a	pyFR	0	TJ015
1528.997	1.413	685402	REC_WORD	1.413	n/a	HEN	-999	8	n/a	n/a	pyFR	0	TJ015
1530.41	1.336	685968	REC_WORD	1.336	n/a	CAT	-999	8	n/a	n/a	pyFR	0	TJ015
1531.746	1.884	686502	REC_WORD	1.884	n/a	DOG	-999	8	n/a	n/a	pyFR	0	TJ015
1533.63	1.248	687256	REC_WORD	1.248	n/a	WALK	-999	8	n/a	n/a	pyFR	0	TJ015
1534.878	2.404	687755	REC_WORD	2.404	n/a	MOUSE	-999	8	n/a	n/a	pyFR	0	TJ015
1537.282	2.342	688717	REC_WORD	2.342	n/a	SNAKE	-999	8	n/a	n/a	pyFR	0	TJ015
1539.624	35.204	689654	REC_WORD	35.204	n/a	CORN	-999	8	n/a	n/a	pyFR	0	TJ015
1574.828	0.016	703737	TRIAL	n/a	n/a	n/a	-999	-999	n/a	n/a	pyFR	0	TJ015
1574.844	2.956	703743	ORIENT	n/a	n/a	n/a	-999	-999	n/a	n/a	pyFR	0	TJ015
1577.8	2.437	704926	WORD	n/a	wordpools/wordpool_EN.txt	PIG	1	9	n/a	n/a	pyFR	0	TJ015
1580.237	2.555	705901	WORD	n/a	wordpools/wordpool_EN.txt	PEN	2	9	n/a	n/a	pyFR	0	TJ015
1582.792	2.555	706923	WORD	n/a	wordpools/wordpool_EN.txt	BOAT	3	9	n/a	n/a	pyFR	0	TJ015
1585.347	2.471	707945	WORD	n/a	wordpools/wordpool_EN.txt	VAN	4	9	n/a	n/a	pyFR	0	TJ015
1587.818	2.505	708933	WORD	n/a	wordpools/wordpool_EN.txt	CAT	5	9	n/a	n/a	pyFR	0	TJ015
1590.323	2.504	709935	WORD	n/a	wordpools/wordpool_EN.txt	AXE	6	9	n/a	n/a	pyFR	0	TJ015
1592.827	2.42	710937	WORD	n/a	wordpools/wordpool_EN.txt	GUARD	7	9	n/a	n/a	pyFR	0	TJ015
1595.247	2.523	711905	WORD	n/a	wordpools/wordpool_EN.txt	DUCK	8	9	n/a	n/a	pyFR	0	TJ015
1597.77	2.604	712915	WORD	n/a	wordpools/wordpool_EN.txt	RAT	9	9	n/a	n/a	pyFR	0	TJ015
1600.374	2.805	713956	WORD	n/a	wordpools/wordpool_EN.txt	CLOUD	10	9	n/a	n/a	pyFR	0	TJ015
1603.179	2.805	715078	WORD	n/a	wordpools/wordpool_EN.txt	NAIL	11	9	n/a	n/a	pyFR	0	TJ015
1605.984	2.639	716201	WORD	n/a	wordpools/wordpool_EN.txt	SEAL	12	9	n/a	n/a	pyFR	0	TJ015
1608.623	2.805	717256	WORD	n/a	wordpools/wordpool_EN.txt	BOOT	13	9	n/a	n/a	pyFR	0	TJ015
1611.428	2.621	718378	WORD	n/a	wordpools/wordpool_EN.txt	SMOKE	14	9	n/a	n/a	pyFR	0	TJ015
1614.049	1.605	719427	WORD	n/a	wordpools/wordpool_EN.txt	CLAY	15	9	n/a	n/a	pyFR	0	TJ015
1615.654	1.017	720069	START	n/a	n/a	n/a	n/a	9	[-999 -999 -999]	-999	pyFR	0	TJ015
1616.671	7.764	720476	PROB	n/a	n/a	n/a	n/a	9	[5 7 4]	16	pyFR	0	TJ015
1624.435	3.39	723582	PROB	n/a	n/a	n/a	n/a	9	[3 9 9]	21	pyFR	0	TJ015
1627.825	5.761	724938	PROB	n/a	n/a	n/a	n/a	9	[1 4 3]	8	pyFR	0	TJ015
1633.586	3.201	727243	PROB	n/a	n/a	n/a	n/a	9	[2 9 1]	12	pyFR	0	TJ015
1636.787	1.106	728523	STOP	n/a	n/a	n/a	n/a	9	[-999 -999 -999]	-999	pyFR	0	TJ015
1637.893	0.74	728966	REC_START	n/a	n/a	n/a	-999	-999	n/a	n/a	pyFR	0	TJ015
1638.633	1.093	729262	REC_WORD_VV	1.093	n/a	VV	-999	9	n/a	n/a	pyFR	0	TJ015
1639.726	0.386	729699	REC_WORD	0.386	n/a	PIG	-999	9	n/a	n/a	pyFR	0	TJ015
1640.112	1.531	729853	REC_WORD	1.531	n/a	PEN	-999	9	n/a	n/a	pyFR	0	TJ015
1641.643	0.559	730466	REC_WORD	0.559	n/a	CAT	-999	9	n/a	n/a	pyFR	0	TJ015
1642.202	5.968	730689	REC_WORD	5.968	n/a	YARD	-999	9	n/a	n/a	pyFR	0	TJ015
1648.17	38.664	733077	REC_WORD	38.664	n/a	RUN	-999	9	n/a	n/a	pyFR	0	TJ015
1686.834	0.016	748544	TRIAL	n/a	n/a	n/a	-999	-999	n/a	n/a	pyFR	0	TJ015
1686.85	2.789	748550	ORIENT	n/a	n/a	n/a	-999	-999	n/a	n/a	pyFR	0	TJ015
1689.639	2.603	749666	WORD	n/a	wordpools/wordpool_EN.txt	BOX	1	10	n/a	n/a	pyFR	0	TJ015
1692.242	2.439	750707	WORD	n/a	wordpools/wordpool_EN.txt	STREET	2	10	n/a	n/a	pyFR	0	TJ015
1694.681	2.604	751683	WORD	n/a	wordpools/wordpool_EN.txt	QUEEN	3	10	n/a	n/a	pyFR	0	TJ015
1697.285	2.688	752725	WORD	n/a	wordpools/wordpool_EN.txt	HOSE	4	10	n/a	n/a	pyFR	0	TJ015
1699.973	2.673	753800	WORD	n/a	wordpools/wordpool_EN.txt	MOUTH	5	10	n/a	n/a	pyFR	0	TJ015
1702.646	2.587	754869	WORD	n/a	wordpools/wordpool_EN.txt	BROOM	6	10	n/a	n/a	pyFR	0	TJ015
1705.233	2.522	755904	WORD	n/a	wordpools/wordpool_EN.txt	GRASS	7	10	n/a	n/a	pyFR	0	TJ015
1707.755	2.705	756913	WORD	n/a	wordpools/wordpool_EN.txt	HOLE	8	10	n/a	n/a	pyFR	0	TJ015
1710.46	2.804	757995	WORD	n/a	wordpools/wordpool_EN.txt	BLUSH	9	10	n/a	n/a	pyFR	0	TJ015
1713.264	2.506	759117	WORD	n/a	wordpools/wordpool_EN.txt	MAZE	10	10	n/a	n/a	pyFR	0	TJ015
1715.77	2.588	760120	WORD	n/a	wordpools/wordpool_EN.txt	DIME	11	10	n/a	n/a	pyFR	0	TJ015
1718.358	2.754	761155	WORD	n/a	wordpools/wordpool_EN.txt	LAND	12	10	n/a	n/a	pyFR	0	TJ015
1721.112	2.572	762257	WORD	n/a	wordpools/wordpool_EN.txt	LAKE	13	10	n/a	n/a	pyFR	0	TJ015
1723.684	2.487	763286	WORD	n/a	wordpools/wordpool_EN.txt	CROW	14	10	n/a	n/a	pyFR	0	TJ015
1726.171	1.606	764280	WORD	n/a	wordpools/wordpool_EN.txt	JUDGE	15	10	n/a	n/a	pyFR	0	TJ015
1727.777	1.216	764923	START	n/a	n/a	n/a	n/a	10	[-999 -999 -999]	-999	pyFR	0	TJ015
1728.993	9.786	765409	PROB	n/a	n/a	n/a	n/a	10	[4 3 7]	14	pyFR	0	TJ015
1738.779	4.592	769324	PROB	n/a	n/a	n/a	n/a	10	[2 5 2]	9	pyFR	0	TJ015
1743.371	5.112	771161	PROB	n/a	n/a	n/a	n/a	10	[2 1 3]	6	pyFR	0	TJ015
1748.483	1.217	773206	STOP	n/a	n/a	n/a	n/a	10	[-999 -999 -999]	-999	pyFR	0	TJ015
1749.7	2.006	773693	REC_START	n/a	n/a	n/a	-999	-999	n/a	n/a	pyFR	0	TJ015
1751.706	1.128	774496	REC_WORD	1.128	n/a	BROOM	-999	10	n/a	n/a	pyFR	0	TJ015
1752.834	1.348	774947	REC_WORD	1.348	n/a	BRUSH	-999	10	n/a	n/a	pyFR	0	TJ015
1754.182	1.462	775486	REC_WORD	1.462	n/a	GRASS	-999	10	n/a	n/a	pyFR	0	TJ015
1755.644	1.904	776071	REC_WORD	1.904	n/a	MAZE	-999	10	n/a	n/a	pyFR	0	TJ015
1757.548	3.573	776833	REC_WORD	3.573	n/a	LAND	-999	10	n/a	n/a	pyFR	0	TJ015
1761.121	36.983	778262	REC_WORD	36.983	n/a	RIDGE	-999	10	n/a	n/a	pyFR	0	TJ015
1798.104	0.016	793057	TRIAL	n/a	n/a	n/a	-999	-999	n/a	n/a	pyFR	0	TJ015
1798.12	2.805	793063	ORIENT	n/a	n/a	n/a	-999	-999	n/a	n/a	pyFR	0	TJ015
1800.925	2.756	794185	WORD	n/a	wordpools/wordpool_EN.txt	CANE	1	11	n/a	n/a	pyFR	0	TJ015
1803.681	2.772	795288	WORD	n/a	wordpools/wordpool_EN.txt	LIP	2	11	n/a	n/a	pyFR	0	TJ015
1806.453	2.754	796397	WORD	n/a	wordpools/wordpool_EN.txt	SHIP	3	11	n/a	n/a	pyFR	0	TJ015
1809.207	2.556	797498	WORD	n/a	wordpools/wordpool_EN.txt	DITCH	4	11	n/a	n/a	pyFR	0	TJ015
1811.763	2.453	798521	WORD	n/a	wordpools/wordpool_EN.txt	BALL	5	11	n/a	n/a	pyFR	0	TJ015
1814.216	2.789	799502	WORD	n/a	wordpools/wordpool_EN.txt	MOLE	6	11	n/a	n/a	pyFR	0	TJ015
1817.005	2.756	800618	WORD	n/a	wordpools/wordpool_EN.txt	ICE	7	11	n/a	n/a	pyFR	0	TJ015
1819.761	2.772	801720	WORD	n/a	wordpools/wordpool_EN.txt	BEAR	8	11	n/a	n/a	pyFR	0	TJ015
1822.533	2.788	802829	WORD	n/a	wordpools/wordpool_EN.txt	CAKE	9	11	n/a	n/a	pyFR	0	TJ015
1825.321	2.604	803945	WORD	n/a	wordpools/wordpool_EN.txt	CAPE	10	11	n/a	n/a	pyFR	0	TJ015
1827.925	2.522	804986	WORD	n/a	wordpools/wordpool_EN.txt	WEB	11	11	n/a	n/a	pyFR	0	TJ015
1830.447	2.637	805995	WORD	n/a	wordpools/wordpool_EN.txt	SIGN	12	11	n/a	n/a	pyFR	0	TJ015
1833.084	2.723	807050	WORD	n/a	wordpools/wordpool_EN.txt	MUG	13	11	n/a	n/a	pyFR	0	TJ015
1835.807	2.755	808140	WORD	n/a	wordpools/wordpool_EN.txt	SEAT	14	11	n/a	n/a	pyFR	0	TJ015
1838.562	1.62	809242	WORD	n/a	wordpools/wordpool_EN.txt	CLOTH	15	11	n/a	n/a	pyFR	0	TJ015
1840.182	1.117	809890	START	n/a	n/a	n/a	n/a	11	[-999 -999 -999]	-999	pyFR	0	TJ015
1841.299	5.811	810337	PROB	n/a	n/a	n/a	n/a	11	[3 7 1]	11	pyFR	0	TJ015
1847.11	4.326	812661	PROB	n/a	n/a	n/a	n/a	11	[4 1 3]	8	pyFR	0	TJ015
1851.436	5.643	814392	PROB	n/a	n/a	n/a	n/a	11	[3 4 8]	15	pyFR	0	TJ015
1857.079	4.372	816649	PROB	n/a	n/a	n/a	n/a	11	[5 5 3]	13	pyFR	0	TJ015
1861.451	1.502	818398	STOP	n/a	n/a	n/a	n/a	11	[-999 -999 -999]	-999	pyFR	0	TJ015
1862.953	12.274	818999	REC_START	n/a	n/a	n/a	-999	-999	n/a	n/a	pyFR	0	TJ015
1875.227	0.948	823909	REC_WORD	0.948	n/a	CAPE	-999	11	n/a	n/a	pyFR	0	TJ015
1876.175	0.82	824288	REC_WORD	0.82	n/a	RIDGE	-999	11	n/a	n/a	pyFR	0	TJ015
1876.995	4.303	824617	REC_WORD	4.303	n/a	MUD	-999	11	n/a	n/a	pyFR	0	TJ015
1881.298	30.466	826338	REC_WORD	30.466	n/a	HOME	-999	11	n/a	n/a	pyFR	0	TJ015
1911.764	0.016	838526	TRIAL	n/a	n/a	n/a	-999	-999	n/a	n/a	pyFR	0	TJ015
1911.78	2.655	838532	ORIENT	n/a	n/a	n/a	-999	-999	n/a	n/a	pyFR	0	TJ015
1914.435	2.604	839594	WORD	n/a	wordpools/wordpool_EN.txt	SKUNK	1	12	n/a	n/a	pyFR	0	TJ015
1917.039	2.789	840636	WORD	n/a	wordpools/wordpool_EN.txt	CLIFF	2	12	n/a	n/a	pyFR	0	TJ015
1919.828	2.588	841752	WORD	n/a	wordpools/wordpool_EN.txt	YARD	3	12	n/a	n/a	pyFR	0	TJ015
1922.416	2.571	842787	WORD	n/a	wordpools/wordpool_EN.txt	POND	4	12	n/a	n/a	pyFR	0	TJ015
1924.987	2.472	843815	WORD	n/a	wordpools/wordpool_EN.txt	STRAW	5	12	n/a	n/a	pyFR	0	TJ015
1927.459	2.453	844804	WORD	n/a	wordpools/wordpool_EN.txt	ROOF	6	12	n/a	n/a	pyFR	0	TJ015
1929.912	2.639	845786	WORD	n/a	wordpools/wordpool_EN.txt	TREE	7	12	n/a	n/a	pyFR	0	TJ015
1932.551	2.487	846841	WORD	n/a	wordpools/wordpool_EN.txt	PURSE	8	12	n/a	n/a	pyFR	0	TJ015
1935.038	2.556	847836	WORD	n/a	wordpools/wordpool_EN.txt	MULE	9	12	n/a	n/a	pyFR	0	TJ015
1937.594	2.504	848859	WORD	n/a	wordpools/wordpool_EN.txt	POLE	10	12	n/a	n/a	pyFR	0	TJ015
1940.098	2.739	849860	WORD	n/a	wordpools/wordpool_EN.txt	FOAM	11	12	n/a	n/a	pyFR	0	TJ015
1942.837	2.805	850956	WORD	n/a	wordpools/wordpool_EN.txt	GIRL	12	12	n/a	n/a	pyFR	0	TJ015
1945.642	2.571	852078	WORD	n/a	wordpools/wordpool_EN.txt	WORLD	13	12	n/a	n/a	pyFR	0	TJ015
1948.213	2.422	853107	WORD	n/a	wordpools/wordpool_EN.txt	PLATE	14	12	n/a	n/a	pyFR	0	TJ015
1950.635	1.62	854076	WORD	n/a	wordpools/wordpool_EN.txt	SEED	15	12	n/a	n/a	pyFR	0	TJ015
1952.255	0.817	854724	START	n/a	n/a	n/a	n/a	12	[-999 -999 -999]	-999	pyFR	0	TJ015
1953.072	9.535	855051	PROB	n/a	n/a	n/a	n/a	12	[2 4 8]	14	pyFR	0	TJ015
1962.607	5.159	858865	PROB	n/a	n/a	n/a	n/a	12	[8 4 2]	14	pyFR	0	TJ015
1967.766	6.765	860929	PROB	n/a	n/a	n/a	n/a	12	[2 2 7]	11	pyFR	0	TJ015
1974.531	1.234	863635	STOP	n/a	n/a	n/a	n/a	12	[-999 -999 -999]	-999	pyFR	0	TJ015
1975.765	2.547	864129	REC_START	n/a	n/a	n/a	-999	-999	n/a	n/a	pyFR	0	TJ015
1978.312	0.538	865148	REC_WORD	0.538	n/a	SKUNK	-999	12	n/a	n/a	pyFR	0	TJ015
1978.85	1.92	865363	REC_WORD	1.92	n/a	TREE	-999	12	n/a	n/a	pyFR	0	TJ015
1980.77	0.755	866131	REC_WORD	0.755	n/a	POLE	-999	12	n/a	n/a	pyFR	0	TJ015
1981.525	2.776	866433	REC_WORD	2.776	n/a	MULE	-999	12	n/a	n/a	pyFR	0	TJ015
1984.301	41.656	867543	REC_WORD	41.656	n/a	RAN	-999	12	n/a	n/a	pyFR	0	TJ015
2025.957	0.015	884208	TRIAL	n/a	n/a	n/a	-999	-999	n/a	n/a	pyFR	0	TJ015
2025.972	2.656	884214	ORIENT	n/a	n/a	n/a	-999	-999	n/a	n/a	pyFR	0	TJ015
2028.628	2.671	885276	WORD	n/a	wordpools/wordpool_EN.txt	WEED	1	13	n/a	n/a	pyFR	0	TJ015
2031.299	2.539	886345	WORD	n/a	wordpools/wordpool_EN.txt	ARK	2	13	n/a	n/a	pyFR	0	TJ015
2033.838	2.755	887360	WORD	n/a	wordpools/wordpool_EN.txt	TRAY	3	13	n/a	n/a	pyFR	0	TJ015
2036.593	2.453	888463	WORD	n/a	wordpools/wordpool_EN.txt	HORSE	4	13	n/a	n/a	pyFR	0	TJ015
2039.046	2.74	889444	WORD	n/a	wordpools/wordpool_EN.txt	SPRING	5	13	n/a	n/a	pyFR	0	TJ015
2041.786	2.755	890540	WORD	n/a	wordpools/wordpool_EN.txt	HILL	6	13	n/a	n/a	pyFR	0	TJ015
2044.541	2.754	891642	WORD	n/a	wordpools/wordpool_EN.txt	VEST	7	13	n/a	n/a	pyFR	0	TJ015
2047.295	2.539	892744	WORD	n/a	wordpools/wordpool_EN.txt	STONE	8	13	n/a	n/a	pyFR	0	TJ015
2049.834	2.621	893759	WORD	n/a	wordpools/wordpool_EN.txt	RIB	9	13	n/a	n/a	pyFR	0	TJ015
2052.455	2.704	894808	WORD	n/a	wordpools/wordpool_EN.txt	APE	10	13	n/a	n/a	pyFR	0	TJ015
2055.159	2.489	895890	WORD	n/a	wordpools/wordpool_EN.txt	SHELL	11	13	n/a	n/a	pyFR	0	TJ015
2057.648	2.672	896885	WORD	n/a	wordpools/wordpool_EN.txt	SPONGE	12	13	n/a	n/a	pyFR	0	TJ015
2060.32	2.454	897954	WORD	n/a	wordpools/wordpool_EN.txt	BEE	13	13	n/a	n/a	pyFR	0	TJ015
2062.774	2.454	898936	WORD	n/a	wordpools/wordpool_EN.txt	SKI	14	13	n/a	n/a	pyFR	0	TJ015
2065.228	1.605	899918	WORD	n/a	wordpools/wordpool_EN.txt	OAK	15	13	n/a	n/a	pyFR	0	TJ015
2066.833	1.133	900560	START	n/a	n/a	n/a	n/a	13	[-999 -999 -999]	-999	pyFR	0	TJ015
2067.966	6.228	901013	PROB	n/a	n/a	n/a	n/a	13	[1 3 2]	6	pyFR	0	TJ015
2074.194	11.222	903505	PROB	n/a	n/a	n/a	n/a	13	[2 4 7]	13	pyFR	0	TJ015
2085.416	9.315	907994	PROB	n/a	n/a	n/a	n/a	13	[6 5 9]	20	pyFR	0	TJ015
2094.731	1.154	911720	STOP	n/a	n/a	n/a	n/a	13	[-999 -999 -999]	-999	pyFR	0	TJ015
2095.885	1.995	912182	REC_START	n/a	n/a	n/a	-999	-999	n/a	n/a	pyFR	0	TJ015
2097.88	0.767	912980	REC_WORD	0.767	n/a	RING	-999	13	n/a	n/a	pyFR	0	TJ015
2098.647	0.496	913287	REC_WORD	0.496	n/a	OATH	-999	13	n/a	n/a	pyFR	0	TJ015
2099.143	1.033	913485	REC_WORD	1.033	n/a	MOCK	-999	13	n/a	n/a	pyFR	0	TJ015
2100.176	19.854	913898	REC_WORD	19.854	n/a	WALK	-999	13	n/a	n/a	pyFR	0	TJ015
2120.03	27.083	921841	REC_WORD	27.083	n/a	MULE	-999	13	n/a	n/a	pyFR	0	TJ015
2147.113	0.015	932675	TRIAL	n/a	n/a	n/a	-999	-999	n/a	n/a	pyFR	0	TJ015
2147.128	2.956	932681	ORIENT	n/a	n/a	n/a	-999	-999	n/a	n/a	pyFR	0	TJ015
2150.084	2.772	933864	WORD	n/a	wordpools/wordpool_EN.txt	BIRD	1	14	n/a	n/a	pyFR	0	TJ015
2152.856	2.454	934973	WORD	n/a	wordpools/wordpool_EN.txt	SHEET	2	14	n/a	n/a	pyFR	0	TJ015
2155.31	2.556	935954	WORD	n/a	wordpools/wordpool_EN.txt	NEST	3	14	n/a	n/a	pyFR	0	TJ015
2157.866	2.571	936977	WORD	n/a	wordpools/wordpool_EN.txt	PEAR	4	14	n/a	n/a	pyFR	0	TJ015
2160.437	2.704	938005	WORD	n/a	wordpools/wordpool_EN.txt	ROAD	5	14	n/a	n/a	pyFR	0	TJ015
2163.141	2.755	939087	WORD	n/a	wordpools/wordpool_EN.txt	BANK	6	14	n/a	n/a	pyFR	0	TJ015
2165.896	2.472	940189	WORD	n/a	wordpools/wordpool_EN.txt	SOUP	7	14	n/a	n/a	pyFR	0	TJ015
2168.368	2.738	941178	WORD	n/a	wordpools/wordpool_EN.txt	MOUSE	8	14	n/a	n/a	pyFR	0	TJ015
2171.106	2.455	942273	WORD	n/a	wordpools/wordpool_EN.txt	MAP	9	14	n/a	n/a	pyFR	0	TJ015
2173.561	2.621	943256	WORD	n/a	wordpools/wordpool_EN.txt	MAT	10	14	n/a	n/a	pyFR	0	TJ015
2176.182	2.505	944304	WORD	n/a	wordpools/wordpool_EN.txt	BEAN	11	14	n/a	n/a	pyFR	0	TJ015
2178.687	2.638	945306	WORD	n/a	wordpools/wordpool_EN.txt	TOOL	12	14	n/a	n/a	pyFR	0	TJ015
2181.325	2.438	946361	WORD	n/a	wordpools/wordpool_EN.txt	EAR	13	14	n/a	n/a	pyFR	0	TJ015
2183.763	2.437	947337	WORD	n/a	wordpools/wordpool_EN.txt	STAR	14	14	n/a	n/a	pyFR	0	TJ015
2186.2	1.605	948312	WORD	n/a	wordpools/wordpool_EN.txt	HAND	15	14	n/a	n/a	pyFR	0	TJ015
2187.805	1.1	948954	START	n/a	n/a	n/a	n/a	14	[-999 -999 -999]	-999	pyFR	0	TJ015
2188.905	11.572	949394	PROB	n/a	n/a	n/a	n/a	14	[8 6 6]	20	pyFR	0	TJ015
2200.477	21.757	954023	PROB	n/a	n/a	n/a	n/a	14	[5 3 4]	12	pyFR	0	TJ015
2222.234	1.086	962727	STOP	n/a	n/a	n/a	n/a	14	[-999 -999 -999]	-999	pyFR	0	TJ015
2223.32	13.483	963161	REC_START	n/a	n/a	n/a	-999	-999	n/a	n/a	pyFR	0	TJ015
2236.803	1.586	968555	REC_WORD	1.586	n/a	BIRD	-999	14	n/a	n/a	pyFR	0	TJ015
2238.389	4.162	969190	REC_WORD	4.162	n/a	TREE	-999	14	n/a	n/a	pyFR	0	TJ015
2242.551	29.241	970854	REC_WORD	29.241	n/a	HORSE	-999	14	n/a	n/a	pyFR	0	TJ015
2271.792	0.016	982552	TRIAL	n/a	n/a	n/a	-999	-999	n/a	n/a	pyFR	0	TJ015
2271.808	2.789	982559	ORIENT	n/a	n/a	n/a	-999	-999	n/a	n/a	pyFR	0	TJ015
2274.597	2.603	983674	WORD	n/a	wordpools/wordpool_EN.txt	WAVE	1	15	n/a	n/a	pyFR	0	TJ015
2277.2	2.473	984716	WORD	n/a	wordpools/wordpool_EN.txt	ROOM	2	15	n/a	n/a	pyFR	0	TJ015
2279.673	2.537	985705	WORD	n/a	wordpools/wordpool_EN.txt	CHIEF	3	15	n/a	n/a	pyFR	0	TJ015
2282.21	2.455	986720	WORD	n/a	wordpools/wordpool_EN.txt	SWORD	4	15	n/a	n/a	pyFR	0	TJ015
2284.665	2.52	987702	WORD	n/a	wordpools/wordpool_EN.txt	CORD	5	15	n/a	n/a	pyFR	0	TJ015
2287.185	2.806	988710	WORD	n/a	wordpools/wordpool_EN.txt	SEA	6	15	n/a	n/a	pyFR	0	TJ015
2289.991	2.505	989833	WORD	n/a	wordpools/wordpool_EN.txt	JAIL	7	15	n/a	n/a	pyFR	0	TJ015
2292.496	2.554	990835	WORD	n/a	wordpools/wordpool_EN.txt	SALT	8	15	n/a	n/a	pyFR	0	TJ015
2295.05	2.539	991856	WORD	n/a	wordpools/wordpool_EN.txt	BADGE	9	15	n/a	n/a	pyFR	0	TJ015
2297.589	2.687	992872	WORD	n/a	wordpools/wordpool_EN.txt	EEL	10	15	n/a	n/a	pyFR	0	TJ015
2300.276	2.589	993947	WORD	n/a	wordpools/wordpool_EN.txt	PALM	11	15	n/a	n/a	pyFR	0	TJ015
2302.865	2.805	994983	WORD	n/a	wordpools/wordpool_EN.txt	SNAIL	12	15	n/a	n/a	pyFR	0	TJ015
2305.67	2.672	996105	WORD	n/a	wordpools/wordpool_EN.txt	JET	13	15	n/a	n/a	pyFR	0	TJ015
2308.342	2.57	997174	WORD	n/a	wordpools/wordpool_EN.txt	FLAME	14	15	n/a	n/a	pyFR	0	TJ015
2310.912	1.606	998202	WORD	n/a	wordpools/wordpool_EN.txt	DAD	15	15	n/a	n/a	pyFR	0	TJ015
2312.518	1.117	998844	START	n/a	n/a	n/a	n/a	15	[-999 -999 -999]	-999	pyFR	0	TJ015
2313.635	4.141	999291	PROB	n/a	n/a	n/a	n/a	15	[1 5 1]	7	pyFR	0	TJ015
2317.776	7.312	1000948	PROB	n/a	n/a	n/a	n/a	15	[4 5 8]	17	pyFR	0	TJ015
2325.088	5.978	1003873	PROB	n/a	n/a	n/a	n/a	15	[5 2 4]	11	pyFR	0	TJ015
2331.066	8.497	1006264	PROB	n/a	n/a	n/a	n/a	15	[7 4 4]	15	pyFR	0	TJ015
2339.563	1.072	1009663	STOP	n/a	n/a	n/a	n/a	15	[-999 -999 -999]	-999	pyFR	0	TJ015
2340.635	2.385	1010092	REC_START	n/a	n/a	n/a	-999	-999	n/a	n/a	pyFR	0	TJ015
2343.02	0.746	1011046	REC_WORD	0.746	n/a	BIRD	-999	15	n/a	n/a	pyFR	0	TJ015
2343.766	0.726	1011345	REC_WORD	0.726	n/a	EEL	-999	15	n/a	n/a	pyFR	0	TJ015
2344.492	0.557	1011635	REC_WORD	0.557	n/a	PALM	-999	15	n/a	n/a	pyFR	0	TJ015
2345.049	4.724	1011858	REC_WORD	4.724	n/a	SWEAT	-999	15	n/a	n/a	pyFR	0	TJ015
2349.773	4.295	1013748	REC_WORD	4.295	n/a	JET	-999	15	n/a	n/a	pyFR	0	TJ015
2354.068	34.589	1015466	REC_WORD	34.589	n/a	DAD	-999	15	n/a	n/a	pyFR	0	TJ015
2388.657	0.016	1029303	TRIAL	n/a	n/a	n/a	-999	-999	n/a	n/a	pyFR	0	TJ015
2388.673	2.838	1029310	ORIENT	n/a	n/a	n/a	-999	-999	n/a	n/a	pyFR	0	TJ015
2391.511	2.822	1030445	WORD	n/a	wordpools/wordpool_EN.txt	DRUM	1	16	n/a	n/a	pyFR	0	TJ015
2394.333	2.438	1031574	WORD	n/a	wordpools/wordpool_EN.txt	FROG	2	16	n/a	n/a	pyFR	0	TJ015
2396.771	2.638	1032549	WORD	n/a	wordpools/wordpool_EN.txt	SPARK	3	16	n/a	n/a	pyFR	0	TJ015
2399.409	2.537	1033604	WORD	n/a	wordpools/wordpool_EN.txt	BARN	4	16	n/a	n/a	pyFR	0	TJ015
2401.946	2.573	1034619	WORD	n/a	wordpools/wordpool_EN.txt	PANTS	5	16	n/a	n/a	pyFR	0	TJ015
2404.519	2.57	1035649	WORD	n/a	wordpools/wordpool_EN.txt	TOOTH	6	16	n/a	n/a	pyFR	0	TJ015
2407.089	2.439	1036677	WORD	n/a	wordpools/wordpool_EN.txt	KITE	7	16	n/a	n/a	pyFR	0	TJ015
2409.528	2.52	1037652	WORD	n/a	wordpools/wordpool_EN.txt	FUR	8	16	n/a	n/a	pyFR	0	TJ015
2412.048	2.773	1038661	WORD	n/a	wordpools/wordpool_EN.txt	CUBE	9	16	n/a	n/a	pyFR	0	TJ015
2414.821	2.705	1039770	WORD	n/a	wordpools/wordpool_EN.txt	NET	10	16	n/a	n/a	pyFR	0	TJ015
2417.526	2.437	1040852	WORD	n/a	wordpools/wordpool_EN.txt	BOWL	11	16	n/a	n/a	pyFR	0	TJ015
2419.963	2.505	1041827	WORD	n/a	wordpools/wordpool_EN.txt	PASTE	12	16	n/a	n/a	pyFR	0	TJ015
2422.468	2.621	1042829	WORD	n/a	wordpools/wordpool_EN.txt	WALL	13	16	n/a	n/a	pyFR	0	TJ015
2425.089	2.489	1043877	WORD	n/a	wordpools/wordpool_EN.txt	PEA	14	16	n/a	n/a	pyFR	0	TJ015
2427.578	1.62	1044873	WORD	n/a	wordpools/wordpool_EN.txt	TANK	15	16	n/a	n/a	pyFR	0	TJ015
2429.198	0.816	1045521	START	n/a	n/a	n/a	n/a	16	[-999 -999 -999]	-999	pyFR	0	TJ015
2430.014	7.013	1045848	PROB	n/a	n/a	n/a	n/a	16	[5 4 6]	15	pyFR	0	TJ015
2437.027	4.46	1048653	PROB	n/a	n/a	n/a	n/a	16	[1 1 6]	8	pyFR	0	TJ015
2441.487	8.3	1050437	PROB	n/a	n/a	n/a	n/a	16	[1 5 8]	14	pyFR	0	TJ015
2449.787	1.067	1053758	STOP	n/a	n/a	n/a	n/a	16	[-999 -999 -999]	-999	pyFR	0	TJ015
2450.854	27.178	1054185	REC_START	n/a	n/a	n/a	-999	-999	n/a	n/a	pyFR	0	TJ015
2478.032	551.936	1065057	REC_WORD	551.936	n/a	TREE	-999	16	n/a	n/a	pyFR	0	TJ015
3029.968	0.085	1285855	SESS_END	n/a	n/a	n/a	-999	-999	n/a	n/a	pyFR	0	TJ015
3030.053	0.0	1285889	E	n/a	n/a	n/a	-999	-999	n/a	n/a	pyFR	0	TJ015
