onset	duration	sample	trial_type	response_time	stim_file	item_name	serialpos	list	test	answer	experiment	session	subject
0.0	0.001	2321095	B	n/a	n/a	n/a	-999	-999	n/a	n/a	pyFR	1	TJ050
0.001	69.483	2321097	SESS_START	n/a	n/a	n/a	-999	-999	n/a	n/a	pyFR	1	TJ050
69.484	0.025	2460058	START	n/a	n/a	n/a	n/a	0	[-999 -999 -999]	-999	pyFR	1	TJ050
69.509	3.339	2460108	PROB	n/a	n/a	n/a	n/a	0	[1 1 5]	7	pyFR	1	TJ050
72.848	4.473	2466785	PROB	n/a	n/a	n/a	n/a	0	[9 2 3]	14	pyFR	1	TJ050
77.321	2.272	2475731	PROB	n/a	n/a	n/a	n/a	0	[1 3 1]	5	pyFR	1	TJ050
79.593	3.356	2480275	PROB	n/a	n/a	n/a	n/a	0	[2 9 3]	14	pyFR	1	TJ050
82.949	2.487	2486987	PROB	n/a	n/a	n/a	n/a	0	[1 7 4]	12	pyFR	1	TJ050
85.436	4.657	2491960	PROB	n/a	n/a	n/a	n/a	0	[8 8 8]	24	pyFR	1	TJ050
90.093	2.905	2501274	PROB	n/a	n/a	n/a	n/a	0	[1 7 7]	15	pyFR	1	TJ050
92.998	2.522	2507084	PROB	n/a	n/a	n/a	n/a	0	[7 6 1]	14	pyFR	1	TJ050
95.52	2.503	2512128	PROB	n/a	n/a	n/a	n/a	0	[3 9 3]	15	pyFR	1	TJ050
98.023	4.12	2517133	PROB	n/a	n/a	n/a	n/a	0	[9 4 7]	20	pyFR	1	TJ050
102.143	82.092	2525373	STOP	n/a	n/a	n/a	n/a	0	[-999 -999 -999]	-999	pyFR	1	TJ050
184.235	0.016	2689551	TRIAL	n/a	n/a	n/a	-999	1	n/a	n/a	pyFR	1	TJ050
184.251	2.94	2689583	ORIENT	n/a	n/a	n/a	-999	1	n/a	n/a	pyFR	1	TJ050
187.191	2.721	2695463	WORD	n/a	wordpools/wordpool_EN.txt	CLAY	1	1	n/a	n/a	pyFR	1	TJ050
189.912	2.705	2700905	WORD	n/a	wordpools/wordpool_EN.txt	MAP	2	1	n/a	n/a	pyFR	1	TJ050
192.617	2.57	2706314	WORD	n/a	wordpools/wordpool_EN.txt	BRUSH	3	1	n/a	n/a	pyFR	1	TJ050
195.187	2.438	2711454	WORD	n/a	wordpools/wordpool_EN.txt	PEARL	4	1	n/a	n/a	pyFR	1	TJ050
197.625	2.554	2716330	WORD	n/a	wordpools/wordpool_EN.txt	FOOD	5	1	n/a	n/a	pyFR	1	TJ050
200.179	2.488	2721438	WORD	n/a	wordpools/wordpool_EN.txt	FLEA	6	1	n/a	n/a	pyFR	1	TJ050
202.667	2.671	2726414	WORD	n/a	wordpools/wordpool_EN.txt	PHONE	7	1	n/a	n/a	pyFR	1	TJ050
205.338	2.538	2731755	WORD	n/a	wordpools/wordpool_EN.txt	CAPE	8	1	n/a	n/a	pyFR	1	TJ050
207.876	2.821	2736831	WORD	n/a	wordpools/wordpool_EN.txt	KITE	9	1	n/a	n/a	pyFR	1	TJ050
210.697	2.453	2742473	WORD	n/a	wordpools/wordpool_EN.txt	SPONGE	10	1	n/a	n/a	pyFR	1	TJ050
213.15	2.723	2747379	WORD	n/a	wordpools/wordpool_EN.txt	CASH	11	1	n/a	n/a	pyFR	1	TJ050
215.873	2.654	2752825	WORD	n/a	wordpools/wordpool_EN.txt	BRANCH	12	1	n/a	n/a	pyFR	1	TJ050
218.527	2.47	2758132	WORD	n/a	wordpools/wordpool_EN.txt	BAT	13	1	n/a	n/a	pyFR	1	TJ050
220.997	2.639	2763072	WORD	n/a	wordpools/wordpool_EN.txt	BRIDGE	14	1	n/a	n/a	pyFR	1	TJ050
223.636	1.619	2768350	WORD	n/a	wordpools/wordpool_EN.txt	PARK	15	1	n/a	n/a	pyFR	1	TJ050
225.255	1.017	2771588	START	n/a	n/a	n/a	n/a	1	[-999 -999 -999]	-999	pyFR	1	TJ050
226.272	3.957	2773622	PROB	n/a	n/a	n/a	n/a	1	[8 3 5]	16	pyFR	1	TJ050
230.229	3.189	2781536	PROB	n/a	n/a	n/a	n/a	1	[5 8 6]	18	pyFR	1	TJ050
233.418	3.289	2787913	PROB	n/a	n/a	n/a	n/a	1	[2 8 6]	16	pyFR	1	TJ050
236.707	2.37	2794491	PROB	n/a	n/a	n/a	n/a	1	[3 7 4]	14	pyFR	1	TJ050
239.077	3.139	2799231	PROB	n/a	n/a	n/a	n/a	1	[5 4 6]	15	pyFR	1	TJ050
242.216	2.505	2805509	PROB	n/a	n/a	n/a	n/a	1	[8 1 7]	15	pyFR	1	TJ050
244.721	3.623	2810519	PROB	n/a	n/a	n/a	n/a	1	[5 9 7]	21	pyFR	1	TJ050
248.344	1.136	2817764	STOP	n/a	n/a	n/a	n/a	1	[-999 -999 -999]	-999	pyFR	1	TJ050
249.48	1.004	2820036	REC_START	n/a	n/a	n/a	-999	1	n/a	n/a	pyFR	1	TJ050
250.484	1.862	2822044	REC_WORD_VV	1.862	n/a	<>	-999	1	n/a	n/a	pyFR	1	TJ050
252.346	1.208	2825768	REC_WORD	1.208	n/a	CAPE	-999	1	n/a	n/a	pyFR	1	TJ050
253.554	1.325	2828184	REC_WORD	1.325	n/a	BRUSH	-999	1	n/a	n/a	pyFR	1	TJ050
254.879	1.391	2830834	REC_WORD	1.391	n/a	FLEA	-999	1	n/a	n/a	pyFR	1	TJ050
256.27	1.546	2833616	REC_WORD	1.546	n/a	PHONE	-999	1	n/a	n/a	pyFR	1	TJ050
257.816	8.165	2836708	REC_WORD	8.165	n/a	PARK	-999	1	n/a	n/a	pyFR	1	TJ050
265.981	0.769	2853037	REC_WORD	0.769	n/a	CASH	-999	1	n/a	n/a	pyFR	1	TJ050
266.75	2.238	2854575	REC_WORD	2.238	n/a	MONEY	-999	1	n/a	n/a	pyFR	1	TJ050
268.988	5.743	2859051	REC_WORD_VV	5.743	n/a	<>	-999	1	n/a	n/a	pyFR	1	TJ050
274.731	16.563	2870536	REC_WORD	16.563	n/a	CLAY	-999	1	n/a	n/a	pyFR	1	TJ050
291.294	22.06	2903661	REC_WORD	22.06	n/a	BRUSH	-999	1	n/a	n/a	pyFR	1	TJ050
313.354	0.016	2947779	TRIAL	n/a	n/a	n/a	-999	2	n/a	n/a	pyFR	1	TJ050
313.37	2.637	2947811	ORIENT	n/a	n/a	n/a	-999	2	n/a	n/a	pyFR	1	TJ050
316.007	2.538	2953085	WORD	n/a	wordpools/wordpool_EN.txt	SEED	1	2	n/a	n/a	pyFR	1	TJ050
318.545	2.704	2958161	WORD	n/a	wordpools/wordpool_EN.txt	STRAW	2	2	n/a	n/a	pyFR	1	TJ050
321.249	2.489	2963569	WORD	n/a	wordpools/wordpool_EN.txt	FACE	3	2	n/a	n/a	pyFR	1	TJ050
323.738	2.687	2968547	WORD	n/a	wordpools/wordpool_EN.txt	TEETH	4	2	n/a	n/a	pyFR	1	TJ050
326.425	2.587	2973920	WORD	n/a	wordpools/wordpool_EN.txt	BEACH	5	2	n/a	n/a	pyFR	1	TJ050
329.012	2.622	2979094	WORD	n/a	wordpools/wordpool_EN.txt	PURSE	6	2	n/a	n/a	pyFR	1	TJ050
331.634	2.67	2984338	WORD	n/a	wordpools/wordpool_EN.txt	POLE	7	2	n/a	n/a	pyFR	1	TJ050
334.304	2.573	2989678	WORD	n/a	wordpools/wordpool_EN.txt	FROG	8	2	n/a	n/a	pyFR	1	TJ050
336.877	2.72	2994824	WORD	n/a	wordpools/wordpool_EN.txt	VASE	9	2	n/a	n/a	pyFR	1	TJ050
339.597	2.454	3000263	WORD	n/a	wordpools/wordpool_EN.txt	BEAN	10	2	n/a	n/a	pyFR	1	TJ050
342.051	2.655	3005171	WORD	n/a	wordpools/wordpool_EN.txt	TAIL	11	2	n/a	n/a	pyFR	1	TJ050
344.706	2.738	3010481	WORD	n/a	wordpools/wordpool_EN.txt	MAZE	12	2	n/a	n/a	pyFR	1	TJ050
347.444	2.804	3015957	WORD	n/a	wordpools/wordpool_EN.txt	BLOOM	13	2	n/a	n/a	pyFR	1	TJ050
350.248	2.455	3021565	WORD	n/a	wordpools/wordpool_EN.txt	VEST	14	2	n/a	n/a	pyFR	1	TJ050
352.703	1.619	3026474	WORD	n/a	wordpools/wordpool_EN.txt	PEAR	15	2	n/a	n/a	pyFR	1	TJ050
354.322	1.202	3029712	START	n/a	n/a	n/a	n/a	2	[-999 -999 -999]	-999	pyFR	1	TJ050
355.524	4.357	3032116	PROB	n/a	n/a	n/a	n/a	2	[1 8 7]	16	pyFR	1	TJ050
359.881	2.186	3040830	PROB	n/a	n/a	n/a	n/a	2	[2 7 3]	12	pyFR	1	TJ050
362.067	1.805	3045202	PROB	n/a	n/a	n/a	n/a	2	[4 5 5]	14	pyFR	1	TJ050
363.872	2.587	3048812	PROB	n/a	n/a	n/a	n/a	2	[4 3 8]	15	pyFR	1	TJ050
366.459	3.172	3053985	PROB	n/a	n/a	n/a	n/a	2	[4 9 7]	20	pyFR	1	TJ050
369.631	2.004	3060329	PROB	n/a	n/a	n/a	n/a	2	[2 8 2]	12	pyFR	1	TJ050
371.635	2.403	3064337	PROB	n/a	n/a	n/a	n/a	2	[5 9 1]	15	pyFR	1	TJ050
374.038	2.458	3069143	PROB	n/a	n/a	n/a	n/a	2	[7 5 2]	14	pyFR	1	TJ050
376.496	1.216	3074059	STOP	n/a	n/a	n/a	n/a	2	[-999 -999 -999]	-999	pyFR	1	TJ050
377.712	0.657	3076491	REC_START	n/a	n/a	n/a	-999	2	n/a	n/a	pyFR	1	TJ050
378.369	0.676	3077805	REC_WORD_VV	0.676	n/a	<>	-999	2	n/a	n/a	pyFR	1	TJ050
379.045	1.139	3079157	REC_WORD	1.139	n/a	BEAN	-999	2	n/a	n/a	pyFR	1	TJ050
380.184	2.185	3081434	REC_WORD	2.185	n/a	TAIL	-999	2	n/a	n/a	pyFR	1	TJ050
382.369	1.651	3085804	REC_WORD	1.651	n/a	TAIL	-999	2	n/a	n/a	pyFR	1	TJ050
384.02	2.37	3089106	REC_WORD	2.37	n/a	MAZE	-999	2	n/a	n/a	pyFR	1	TJ050
386.39	1.126	3093846	REC_WORD	1.126	n/a	TEETH	-999	2	n/a	n/a	pyFR	1	TJ050
387.516	12.594	3096098	REC_WORD	12.594	n/a	FACE	-999	2	n/a	n/a	pyFR	1	TJ050
400.11	1.747	3121285	REC_WORD	1.747	n/a	VEST	-999	2	n/a	n/a	pyFR	1	TJ050
401.857	11.377	3124779	REC_WORD_VV	11.377	n/a	<>	-999	2	n/a	n/a	pyFR	1	TJ050
413.234	5.91	3147532	REC_WORD	5.91	n/a	TEETH	-999	2	n/a	n/a	pyFR	1	TJ050
419.144	33.695	3159352	REC_WORD	33.695	n/a	EAR	-999	2	n/a	n/a	pyFR	1	TJ050
452.839	0.015	3226739	TRIAL	n/a	n/a	n/a	-999	3	n/a	n/a	pyFR	1	TJ050
452.854	2.789	3226769	ORIENT	n/a	n/a	n/a	-999	3	n/a	n/a	pyFR	1	TJ050
455.643	2.771	3232347	WORD	n/a	wordpools/wordpool_EN.txt	OAK	1	3	n/a	n/a	pyFR	1	TJ050
458.414	2.67	3237889	WORD	n/a	wordpools/wordpool_EN.txt	PIE	2	3	n/a	n/a	pyFR	1	TJ050
461.084	2.773	3243228	WORD	n/a	wordpools/wordpool_EN.txt	HOLE	3	3	n/a	n/a	pyFR	1	TJ050
463.857	2.688	3248774	WORD	n/a	wordpools/wordpool_EN.txt	FOOT	4	3	n/a	n/a	pyFR	1	TJ050
466.545	2.821	3254150	WORD	n/a	wordpools/wordpool_EN.txt	SEAT	5	3	n/a	n/a	pyFR	1	TJ050
469.366	2.737	3259792	WORD	n/a	wordpools/wordpool_EN.txt	CHALK	6	3	n/a	n/a	pyFR	1	TJ050
472.103	2.605	3265266	WORD	n/a	wordpools/wordpool_EN.txt	CLOWN	7	3	n/a	n/a	pyFR	1	TJ050
474.708	2.688	3270475	WORD	n/a	wordpools/wordpool_EN.txt	SHARK	8	3	n/a	n/a	pyFR	1	TJ050
477.396	2.604	3275851	WORD	n/a	wordpools/wordpool_EN.txt	SHIRT	9	3	n/a	n/a	pyFR	1	TJ050
480.0	2.605	3281059	WORD	n/a	wordpools/wordpool_EN.txt	CUBE	10	3	n/a	n/a	pyFR	1	TJ050
482.605	2.62	3286269	WORD	n/a	wordpools/wordpool_EN.txt	GRASS	11	3	n/a	n/a	pyFR	1	TJ050
485.225	2.755	3291509	WORD	n/a	wordpools/wordpool_EN.txt	CHEEK	12	3	n/a	n/a	pyFR	1	TJ050
487.98	2.538	3297018	WORD	n/a	wordpools/wordpool_EN.txt	SAIL	13	3	n/a	n/a	pyFR	1	TJ050
490.518	2.721	3302094	WORD	n/a	wordpools/wordpool_EN.txt	WALL	14	3	n/a	n/a	pyFR	1	TJ050
493.239	1.621	3307536	WORD	n/a	wordpools/wordpool_EN.txt	INK	15	3	n/a	n/a	pyFR	1	TJ050
494.86	0.867	3310778	START	n/a	n/a	n/a	n/a	3	[-999 -999 -999]	-999	pyFR	1	TJ050
495.727	3.956	3312512	PROB	n/a	n/a	n/a	n/a	3	[4 6 6]	16	pyFR	1	TJ050
499.683	2.888	3320424	PROB	n/a	n/a	n/a	n/a	3	[4 2 3]	9	pyFR	1	TJ050
502.571	2.905	3326199	PROB	n/a	n/a	n/a	n/a	3	[2 4 4]	10	pyFR	1	TJ050
505.476	2.637	3332009	PROB	n/a	n/a	n/a	n/a	3	[1 4 5]	10	pyFR	1	TJ050
508.113	2.187	3337283	PROB	n/a	n/a	n/a	n/a	3	[6 5 1]	12	pyFR	1	TJ050
510.3	2.838	3341657	PROB	n/a	n/a	n/a	n/a	3	[7 5 8]	23	pyFR	1	TJ050
513.138	4.076	3347333	PROB	n/a	n/a	n/a	n/a	3	[2 6 6]	14	pyFR	1	TJ050
517.214	1.05	3355484	STOP	n/a	n/a	n/a	n/a	3	[-999 -999 -999]	-999	pyFR	1	TJ050
518.264	1.512	3357584	REC_START	n/a	n/a	n/a	-999	3	n/a	n/a	pyFR	1	TJ050
519.776	1.335	3360608	REC_WORD	1.335	n/a	OAK	-999	3	n/a	n/a	pyFR	1	TJ050
521.111	1.082	3363278	REC_WORD	1.082	n/a	TREE	-999	3	n/a	n/a	pyFR	1	TJ050
522.193	1.187	3365442	REC_WORD	1.187	n/a	PIE	-999	3	n/a	n/a	pyFR	1	TJ050
523.38	1.353	3367816	REC_WORD	1.353	n/a	HOLE	-999	3	n/a	n/a	pyFR	1	TJ050
524.733	1.102	3370522	REC_WORD	1.102	n/a	GRASS	-999	3	n/a	n/a	pyFR	1	TJ050
525.835	2.428	3372726	REC_WORD	2.428	n/a	FOOT	-999	3	n/a	n/a	pyFR	1	TJ050
528.263	0.956	3377581	REC_WORD_VV	0.956	n/a	<>	-999	3	n/a	n/a	pyFR	1	TJ050
529.219	1.83	3379493	REC_WORD	1.83	n/a	SEAT	-999	3	n/a	n/a	pyFR	1	TJ050
531.049	3.866	3383153	REC_WORD_VV	3.866	n/a	<>	-999	3	n/a	n/a	pyFR	1	TJ050
534.915	4.293	3390885	REC_WORD	4.293	n/a	BRANCH	-999	3	n/a	n/a	pyFR	1	TJ050
539.208	22.405	3399471	REC_WORD_VV	22.405	n/a	<>	-999	3	n/a	n/a	pyFR	1	TJ050
561.613	37.321	3444279	REC_WORD	37.321	n/a	MOUTH	-999	3	n/a	n/a	pyFR	1	TJ050
598.934	0.016	3518918	TRIAL	n/a	n/a	n/a	-999	4	n/a	n/a	pyFR	1	TJ050
598.95	2.939	3518950	ORIENT	n/a	n/a	n/a	-999	4	n/a	n/a	pyFR	1	TJ050
601.889	2.738	3524828	WORD	n/a	wordpools/wordpool_EN.txt	KING	1	4	n/a	n/a	pyFR	1	TJ050
604.627	2.587	3530304	WORD	n/a	wordpools/wordpool_EN.txt	CAGE	2	4	n/a	n/a	pyFR	1	TJ050
607.214	2.754	3535478	WORD	n/a	wordpools/wordpool_EN.txt	DUCK	3	4	n/a	n/a	pyFR	1	TJ050
609.968	2.539	3540985	WORD	n/a	wordpools/wordpool_EN.txt	LOCK	4	4	n/a	n/a	pyFR	1	TJ050
612.507	2.587	3546063	WORD	n/a	wordpools/wordpool_EN.txt	BAND	5	4	n/a	n/a	pyFR	1	TJ050
615.094	2.722	3551237	WORD	n/a	wordpools/wordpool_EN.txt	TRUCK	6	4	n/a	n/a	pyFR	1	TJ050
617.816	2.654	3556681	WORD	n/a	wordpools/wordpool_EN.txt	STRING	7	4	n/a	n/a	pyFR	1	TJ050
620.47	2.787	3561989	WORD	n/a	wordpools/wordpool_EN.txt	LAMB	8	4	n/a	n/a	pyFR	1	TJ050
623.257	2.755	3567562	WORD	n/a	wordpools/wordpool_EN.txt	BOWL	9	4	n/a	n/a	pyFR	1	TJ050
626.012	2.806	3573072	WORD	n/a	wordpools/wordpool_EN.txt	SWAMP	10	4	n/a	n/a	pyFR	1	TJ050
628.818	2.821	3578684	WORD	n/a	wordpools/wordpool_EN.txt	ZOO	11	4	n/a	n/a	pyFR	1	TJ050
631.639	2.62	3584326	WORD	n/a	wordpools/wordpool_EN.txt	PLANT	12	4	n/a	n/a	pyFR	1	TJ050
634.259	2.771	3589565	WORD	n/a	wordpools/wordpool_EN.txt	CLOCK	13	4	n/a	n/a	pyFR	1	TJ050
637.03	2.74	3595107	WORD	n/a	wordpools/wordpool_EN.txt	OAR	14	4	n/a	n/a	pyFR	1	TJ050
639.77	1.62	3600587	WORD	n/a	wordpools/wordpool_EN.txt	PANTS	15	4	n/a	n/a	pyFR	1	TJ050
641.39	0.866	3603827	START	n/a	n/a	n/a	n/a	4	[-999 -999 -999]	-999	pyFR	1	TJ050
642.256	3.84	3605559	PROB	n/a	n/a	n/a	n/a	4	[7 1 9]	17	pyFR	1	TJ050
646.096	2.203	3613239	PROB	n/a	n/a	n/a	n/a	4	[2 1 9]	12	pyFR	1	TJ050
648.299	2.288	3617644	PROB	n/a	n/a	n/a	n/a	4	[1 7 7]	15	pyFR	1	TJ050
650.587	2.805	3622220	PROB	n/a	n/a	n/a	n/a	4	[1 3 3]	7	pyFR	1	TJ050
653.392	2.137	3627830	PROB	n/a	n/a	n/a	n/a	4	[4 2 5]	11	pyFR	1	TJ050
655.529	2.57	3632104	PROB	n/a	n/a	n/a	n/a	4	[9 6 2]	17	pyFR	1	TJ050
658.099	2.355	3637244	PROB	n/a	n/a	n/a	n/a	4	[1 2 5]	8	pyFR	1	TJ050
660.454	3.512	3641954	PROB	n/a	n/a	n/a	n/a	4	[8 9 2]	19	pyFR	1	TJ050
663.966	1.079	3648977	STOP	n/a	n/a	n/a	n/a	4	[-999 -999 -999]	-999	pyFR	1	TJ050
665.045	0.4	3651135	REC_START	n/a	n/a	n/a	-999	4	n/a	n/a	pyFR	1	TJ050
665.445	0.498	3651935	REC_WORD_VV	0.498	n/a	<>	-999	4	n/a	n/a	pyFR	1	TJ050
665.943	1.142	3652931	REC_WORD	1.142	n/a	ZOO	-999	4	n/a	n/a	pyFR	1	TJ050
667.085	1.816	3655215	REC_WORD	1.816	n/a	BAND	-999	4	n/a	n/a	pyFR	1	TJ050
668.901	5.243	3658847	REC_WORD	5.243	n/a	TRUCK	-999	4	n/a	n/a	pyFR	1	TJ050
674.144	1.0	3669333	REC_WORD_VV	1.0	n/a	<>	-999	4	n/a	n/a	pyFR	1	TJ050
675.144	9.782	3671332	REC_WORD_VV	9.782	n/a	<>	-999	4	n/a	n/a	pyFR	1	TJ050
684.926	1.477	3690896	REC_WORD	1.477	n/a	TOWER	-999	4	n/a	n/a	pyFR	1	TJ050
686.403	2.088	3693850	REC_WORD	2.088	n/a	CLOCK	-999	4	n/a	n/a	pyFR	1	TJ050
688.491	5.587	3698025	REC_WORD_VV	5.587	n/a	<>	-999	4	n/a	n/a	pyFR	1	TJ050
694.078	1.455	3709199	REC_WORD	1.455	n/a	OAR	-999	4	n/a	n/a	pyFR	1	TJ050
695.533	3.341	3712109	REC_WORD	3.341	n/a	PEAR	-999	4	n/a	n/a	pyFR	1	TJ050
698.874	44.654	3718791	REC_WORD_VV	44.654	n/a	<>	-999	4	n/a	n/a	pyFR	1	TJ050
743.528	0.016	3808095	TRIAL	n/a	n/a	n/a	-999	5	n/a	n/a	pyFR	1	TJ050
743.544	2.938	3808127	ORIENT	n/a	n/a	n/a	-999	5	n/a	n/a	pyFR	1	TJ050
746.482	2.471	3814003	WORD	n/a	wordpools/wordpool_EN.txt	PALM	1	5	n/a	n/a	pyFR	1	TJ050
748.953	2.538	3818945	WORD	n/a	wordpools/wordpool_EN.txt	HOSE	2	5	n/a	n/a	pyFR	1	TJ050
751.491	2.837	3824021	WORD	n/a	wordpools/wordpool_EN.txt	CROWN	3	5	n/a	n/a	pyFR	1	TJ050
754.328	2.688	3829695	WORD	n/a	wordpools/wordpool_EN.txt	YARD	4	5	n/a	n/a	pyFR	1	TJ050
757.016	2.655	3835070	WORD	n/a	wordpools/wordpool_EN.txt	HILL	5	5	n/a	n/a	pyFR	1	TJ050
759.671	2.487	3840380	WORD	n/a	wordpools/wordpool_EN.txt	LEAF	6	5	n/a	n/a	pyFR	1	TJ050
762.158	2.755	3845354	WORD	n/a	wordpools/wordpool_EN.txt	BEAK	7	5	n/a	n/a	pyFR	1	TJ050
764.913	2.555	3850864	WORD	n/a	wordpools/wordpool_EN.txt	NEST	8	5	n/a	n/a	pyFR	1	TJ050
767.468	2.786	3855974	WORD	n/a	wordpools/wordpool_EN.txt	SLEEVE	9	5	n/a	n/a	pyFR	1	TJ050
770.254	2.489	3861545	WORD	n/a	wordpools/wordpool_EN.txt	OWL	10	5	n/a	n/a	pyFR	1	TJ050
772.743	2.805	3866523	WORD	n/a	wordpools/wordpool_EN.txt	WOOD	11	5	n/a	n/a	pyFR	1	TJ050
775.548	2.804	3872133	WORD	n/a	wordpools/wordpool_EN.txt	SKUNK	12	5	n/a	n/a	pyFR	1	TJ050
778.352	2.604	3877741	WORD	n/a	wordpools/wordpool_EN.txt	CORD	13	5	n/a	n/a	pyFR	1	TJ050
780.956	2.59	3882949	WORD	n/a	wordpools/wordpool_EN.txt	LEG	14	5	n/a	n/a	pyFR	1	TJ050
783.546	1.618	3888128	WORD	n/a	wordpools/wordpool_EN.txt	STAIR	15	5	n/a	n/a	pyFR	1	TJ050
785.164	1.068	3891364	START	n/a	n/a	n/a	n/a	5	[-999 -999 -999]	-999	pyFR	1	TJ050
786.232	3.573	3893500	PROB	n/a	n/a	n/a	n/a	5	[4 1 5]	10	pyFR	1	TJ050
789.805	2.671	3900646	PROB	n/a	n/a	n/a	n/a	5	[4 4 8]	16	pyFR	1	TJ050
792.476	2.22	3905988	PROB	n/a	n/a	n/a	n/a	5	[6 3 5]	14	pyFR	1	TJ050
794.696	2.238	3910428	PROB	n/a	n/a	n/a	n/a	5	[3 7 3]	13	pyFR	1	TJ050
796.934	3.773	3914903	PROB	n/a	n/a	n/a	n/a	5	[6 3 2]	10	pyFR	1	TJ050
800.707	2.336	3922449	PROB	n/a	n/a	n/a	n/a	5	[7 1 6]	14	pyFR	1	TJ050
803.043	2.12	3927121	PROB	n/a	n/a	n/a	n/a	5	[5 1 3]	11	pyFR	1	TJ050
805.163	2.589	3931361	PROB	n/a	n/a	n/a	n/a	5	[2 7 8]	17	pyFR	1	TJ050
807.752	1.069	3936539	STOP	n/a	n/a	n/a	n/a	5	[-999 -999 -999]	-999	pyFR	1	TJ050
808.821	1.45	3938676	REC_START	n/a	n/a	n/a	-999	5	n/a	n/a	pyFR	1	TJ050
810.271	1.658	3941576	REC_WORD	1.658	n/a	OWL	-999	5	n/a	n/a	pyFR	1	TJ050
811.929	1.384	3944892	REC_WORD	1.384	n/a	NEST	-999	5	n/a	n/a	pyFR	1	TJ050
813.313	1.428	3947660	REC_WORD	1.428	n/a	HILL	-999	5	n/a	n/a	pyFR	1	TJ050
814.741	1.449	3950516	REC_WORD	1.449	n/a	YARD	-999	5	n/a	n/a	pyFR	1	TJ050
816.19	3.236	3953414	REC_WORD	3.236	n/a	CROWN	-999	5	n/a	n/a	pyFR	1	TJ050
819.426	7.206	3959886	REC_WORD	7.206	n/a	STAIR	-999	5	n/a	n/a	pyFR	1	TJ050
826.632	0.811	3974297	REC_WORD	0.811	n/a	CORD	-999	5	n/a	n/a	pyFR	1	TJ050
827.443	6.407	3975919	REC_WORD	6.407	n/a	LEG	-999	5	n/a	n/a	pyFR	1	TJ050
833.85	2.197	3988733	REC_WORD	2.197	n/a	SLEEVE	-999	5	n/a	n/a	pyFR	1	TJ050
836.047	14.032	3993126	REC_WORD	14.032	n/a	PALM	-999	5	n/a	n/a	pyFR	1	TJ050
850.079	20.429	4021189	REC_WORD	20.429	n/a	NEST	-999	5	n/a	n/a	pyFR	1	TJ050
870.508	0.016	4062046	TRIAL	n/a	n/a	n/a	-999	6	n/a	n/a	pyFR	1	TJ050
870.524	2.822	4062078	ORIENT	n/a	n/a	n/a	-999	6	n/a	n/a	pyFR	1	TJ050
873.346	2.704	4067722	WORD	n/a	wordpools/wordpool_EN.txt	LAND	1	6	n/a	n/a	pyFR	1	TJ050
876.05	2.538	4073129	WORD	n/a	wordpools/wordpool_EN.txt	RAKE	2	6	n/a	n/a	pyFR	1	TJ050
878.588	2.503	4078205	WORD	n/a	wordpools/wordpool_EN.txt	PET	3	6	n/a	n/a	pyFR	1	TJ050
881.091	2.639	4083211	WORD	n/a	wordpools/wordpool_EN.txt	TRAY	4	6	n/a	n/a	pyFR	1	TJ050
883.73	2.571	4088489	WORD	n/a	wordpools/wordpool_EN.txt	PIT	5	6	n/a	n/a	pyFR	1	TJ050
886.301	2.438	4093631	WORD	n/a	wordpools/wordpool_EN.txt	SIGN	6	6	n/a	n/a	pyFR	1	TJ050
888.739	2.821	4098507	WORD	n/a	wordpools/wordpool_EN.txt	JUICE	7	6	n/a	n/a	pyFR	1	TJ050
891.56	2.486	4104148	WORD	n/a	wordpools/wordpool_EN.txt	JET	8	6	n/a	n/a	pyFR	1	TJ050
894.046	2.806	4109120	WORD	n/a	wordpools/wordpool_EN.txt	BEAR	9	6	n/a	n/a	pyFR	1	TJ050
896.852	2.704	4114732	WORD	n/a	wordpools/wordpool_EN.txt	SALT	10	6	n/a	n/a	pyFR	1	TJ050
899.556	2.521	4120140	WORD	n/a	wordpools/wordpool_EN.txt	FARM	11	6	n/a	n/a	pyFR	1	TJ050
902.077	2.588	4125182	WORD	n/a	wordpools/wordpool_EN.txt	STAR	12	6	n/a	n/a	pyFR	1	TJ050
904.665	2.805	4130357	WORD	n/a	wordpools/wordpool_EN.txt	CROW	13	6	n/a	n/a	pyFR	1	TJ050
907.47	2.753	4135967	WORD	n/a	wordpools/wordpool_EN.txt	BUSH	14	6	n/a	n/a	pyFR	1	TJ050
910.223	1.605	4141473	WORD	n/a	wordpools/wordpool_EN.txt	ROPE	15	6	n/a	n/a	pyFR	1	TJ050
911.828	0.918	4144683	START	n/a	n/a	n/a	n/a	6	[-999 -999 -999]	-999	pyFR	1	TJ050
912.746	4.389	4146519	PROB	n/a	n/a	n/a	n/a	6	[1 7 5]	13	pyFR	1	TJ050
917.135	3.507	4155296	PROB	n/a	n/a	n/a	n/a	6	[9 8 6]	23	pyFR	1	TJ050
920.642	2.587	4162310	PROB	n/a	n/a	n/a	n/a	6	[6 9 1]	16	pyFR	1	TJ050
923.229	2.137	4167484	PROB	n/a	n/a	n/a	n/a	6	[2 2 1]	5	pyFR	1	TJ050
925.366	3.073	4171758	PROB	n/a	n/a	n/a	n/a	6	[8 9 5]	22	pyFR	1	TJ050
928.439	2.503	4177904	PROB	n/a	n/a	n/a	n/a	6	[6 3 3]	12	pyFR	1	TJ050
930.942	4.08	4182909	PROB	n/a	n/a	n/a	n/a	6	[5 3 2]	10	pyFR	1	TJ050
935.022	1.146	4191069	STOP	n/a	n/a	n/a	n/a	6	[-999 -999 -999]	-999	pyFR	1	TJ050
936.168	0.613	4193361	REC_START	n/a	n/a	n/a	-999	6	n/a	n/a	pyFR	1	TJ050
936.781	1.809	4194587	REC_WORD_VV	1.809	n/a	<>	-999	6	n/a	n/a	pyFR	1	TJ050
938.59	0.938	4198205	REC_WORD	0.938	n/a	PET	-999	6	n/a	n/a	pyFR	1	TJ050
939.528	1.041	4200081	REC_WORD	1.041	n/a	BEAR	-999	6	n/a	n/a	pyFR	1	TJ050
940.569	2.733	4202163	REC_WORD	2.733	n/a	JET	-999	6	n/a	n/a	pyFR	1	TJ050
943.302	21.99	4207628	REC_WORD	21.99	n/a	CROW	-999	6	n/a	n/a	pyFR	1	TJ050
965.292	54.066	4251607	REC_WORD	54.066	n/a	YARD	-999	6	n/a	n/a	pyFR	1	TJ050
1019.358	0.017	4359735	TRIAL	n/a	n/a	n/a	-999	7	n/a	n/a	pyFR	1	TJ050
1019.375	2.972	4359769	ORIENT	n/a	n/a	n/a	-999	7	n/a	n/a	pyFR	1	TJ050
1022.347	2.454	4365713	WORD	n/a	wordpools/wordpool_EN.txt	SKI	1	7	n/a	n/a	pyFR	1	TJ050
1024.801	2.688	4370620	WORD	n/a	wordpools/wordpool_EN.txt	CAT	2	7	n/a	n/a	pyFR	1	TJ050
1027.489	2.787	4375996	WORD	n/a	wordpools/wordpool_EN.txt	GLOVE	3	7	n/a	n/a	pyFR	1	TJ050
1030.276	2.505	4381570	WORD	n/a	wordpools/wordpool_EN.txt	KEY	4	7	n/a	n/a	pyFR	1	TJ050
1032.781	2.486	4386580	WORD	n/a	wordpools/wordpool_EN.txt	MOUSE	5	7	n/a	n/a	pyFR	1	TJ050
1035.267	2.439	4391552	WORD	n/a	wordpools/wordpool_EN.txt	BOOK	6	7	n/a	n/a	pyFR	1	TJ050
1037.706	2.52	4396429	WORD	n/a	wordpools/wordpool_EN.txt	GOAT	7	7	n/a	n/a	pyFR	1	TJ050
1040.226	2.471	4401469	WORD	n/a	wordpools/wordpool_EN.txt	JAIL	8	7	n/a	n/a	pyFR	1	TJ050
1042.697	2.672	4406411	WORD	n/a	wordpools/wordpool_EN.txt	JAR	9	7	n/a	n/a	pyFR	1	TJ050
1045.369	2.753	4411755	WORD	n/a	wordpools/wordpool_EN.txt	GUARD	10	7	n/a	n/a	pyFR	1	TJ050
1048.122	2.506	4417261	WORD	n/a	wordpools/wordpool_EN.txt	TOE	11	7	n/a	n/a	pyFR	1	TJ050
1050.628	2.52	4422272	WORD	n/a	wordpools/wordpool_EN.txt	FORT	12	7	n/a	n/a	pyFR	1	TJ050
1053.148	2.638	4427312	WORD	n/a	wordpools/wordpool_EN.txt	SWORD	13	7	n/a	n/a	pyFR	1	TJ050
1055.786	2.705	4432588	WORD	n/a	wordpools/wordpool_EN.txt	MUG	14	7	n/a	n/a	pyFR	1	TJ050
1058.491	1.619	4437998	WORD	n/a	wordpools/wordpool_EN.txt	STOVE	15	7	n/a	n/a	pyFR	1	TJ050
1060.11	0.884	4441236	START	n/a	n/a	n/a	n/a	7	[-999 -999 -999]	-999	pyFR	1	TJ050
1060.994	3.44	4443004	PROB	n/a	n/a	n/a	n/a	7	[2 9 5]	16	pyFR	1	TJ050
1064.434	2.203	4449883	PROB	n/a	n/a	n/a	n/a	7	[7 9 7]	23	pyFR	1	TJ050
1066.637	2.554	4454289	PROB	n/a	n/a	n/a	n/a	7	[2 7 6]	15	pyFR	1	TJ050
1069.191	2.905	4459397	PROB	n/a	n/a	n/a	n/a	7	[5 6 6]	17	pyFR	1	TJ050
1072.096	2.388	4465207	PROB	n/a	n/a	n/a	n/a	7	[8 7 4]	19	pyFR	1	TJ050
1074.484	2.804	4469983	PROB	n/a	n/a	n/a	n/a	7	[4 9 3]	16	pyFR	1	TJ050
1077.288	3.2	4475590	PROB	n/a	n/a	n/a	n/a	7	[4 4 3]	11	pyFR	1	TJ050
1080.488	1.226	4481990	STOP	n/a	n/a	n/a	n/a	7	[-999 -999 -999]	-999	pyFR	1	TJ050
1081.714	0.0	4484442	REC_WORD_VV	0.0	n/a	<>	-999	7	n/a	n/a	pyFR	1	TJ050
1081.714	1.796	4484442	REC_START	n/a	n/a	n/a	-999	7	n/a	n/a	pyFR	1	TJ050
1083.51	0.633	4488034	REC_WORD	0.633	n/a	MUG	-999	7	n/a	n/a	pyFR	1	TJ050
1084.143	2.681	4489300	REC_WORD	2.681	n/a	GUARD	-999	7	n/a	n/a	pyFR	1	TJ050
1086.824	1.084	4494662	REC_WORD	1.084	n/a	FORT	-999	7	n/a	n/a	pyFR	1	TJ050
1087.908	5.88	4496830	REC_WORD	5.88	n/a	STOVE	-999	7	n/a	n/a	pyFR	1	TJ050
1093.788	5.18	4508589	REC_WORD_VV	5.18	n/a	<>	-999	7	n/a	n/a	pyFR	1	TJ050
1098.968	5.307	4518949	REC_WORD	5.307	n/a	BEAR	-999	7	n/a	n/a	pyFR	1	TJ050
1104.275	2.606	4529562	REC_WORD	2.606	n/a	SKI	-999	7	n/a	n/a	pyFR	1	TJ050
1106.881	5.479	4534774	REC_WORD	5.479	n/a	CAT	-999	7	n/a	n/a	pyFR	1	TJ050
1112.36	77.601	4545732	REC_WORD	77.601	n/a	PET	-999	7	n/a	n/a	pyFR	1	TJ050
1189.961	0.016	4700928	TRIAL	n/a	n/a	n/a	-999	8	n/a	n/a	pyFR	1	TJ050
1189.977	2.957	4700960	ORIENT	n/a	n/a	n/a	-999	8	n/a	n/a	pyFR	1	TJ050
1192.934	2.488	4706874	WORD	n/a	wordpools/wordpool_EN.txt	FUR	1	8	n/a	n/a	pyFR	1	TJ050
1195.422	2.603	4711850	WORD	n/a	wordpools/wordpool_EN.txt	THREAD	2	8	n/a	n/a	pyFR	1	TJ050
1198.025	2.755	4717055	WORD	n/a	wordpools/wordpool_EN.txt	BED	3	8	n/a	n/a	pyFR	1	TJ050
1200.78	2.822	4722565	WORD	n/a	wordpools/wordpool_EN.txt	HOUSE	4	8	n/a	n/a	pyFR	1	TJ050
1203.602	2.771	4728209	WORD	n/a	wordpools/wordpool_EN.txt	HORN	5	8	n/a	n/a	pyFR	1	TJ050
1206.373	2.754	4733751	WORD	n/a	wordpools/wordpool_EN.txt	FUDGE	6	8	n/a	n/a	pyFR	1	TJ050
1209.127	2.672	4739259	WORD	n/a	wordpools/wordpool_EN.txt	ROOT	7	8	n/a	n/a	pyFR	1	TJ050
1211.799	2.738	4744602	WORD	n/a	wordpools/wordpool_EN.txt	STICK	8	8	n/a	n/a	pyFR	1	TJ050
1214.537	2.753	4750078	WORD	n/a	wordpools/wordpool_EN.txt	HEART	9	8	n/a	n/a	pyFR	1	TJ050
1217.29	2.572	4755584	WORD	n/a	wordpools/wordpool_EN.txt	CLIFF	10	8	n/a	n/a	pyFR	1	TJ050
1219.862	2.672	4760728	WORD	n/a	wordpools/wordpool_EN.txt	LAKE	11	8	n/a	n/a	pyFR	1	TJ050
1222.534	2.67	4766072	WORD	n/a	wordpools/wordpool_EN.txt	WEED	12	8	n/a	n/a	pyFR	1	TJ050
1225.204	2.522	4771411	WORD	n/a	wordpools/wordpool_EN.txt	JEEP	13	8	n/a	n/a	pyFR	1	TJ050
1227.726	2.771	4776455	WORD	n/a	wordpools/wordpool_EN.txt	EAR	14	8	n/a	n/a	pyFR	1	TJ050
1230.497	1.619	4781997	WORD	n/a	wordpools/wordpool_EN.txt	SOCK	15	8	n/a	n/a	pyFR	1	TJ050
1232.116	0.884	4785235	START	n/a	n/a	n/a	n/a	8	[-999 -999 -999]	-999	pyFR	1	TJ050
1233.0	4.123	4787003	PROB	n/a	n/a	n/a	n/a	8	[6 3 7]	16	pyFR	1	TJ050
1237.123	3.224	4795249	PROB	n/a	n/a	n/a	n/a	8	[4 6 1]	11	pyFR	1	TJ050
1240.347	3.99	4801696	PROB	n/a	n/a	n/a	n/a	8	[9 4 1]	14	pyFR	1	TJ050
1244.337	3.238	4809676	PROB	n/a	n/a	n/a	n/a	8	[9 7 4]	20	pyFR	1	TJ050
1247.575	3.422	4816152	PROB	n/a	n/a	n/a	n/a	8	[8 5 3]	16	pyFR	1	TJ050
1250.997	3.13	4822996	PROB	n/a	n/a	n/a	n/a	8	[8 8 8]	24	pyFR	1	TJ050
1254.127	1.128	4829255	STOP	n/a	n/a	n/a	n/a	8	[-999 -999 -999]	-999	pyFR	1	TJ050
1255.255	1.261	4831511	REC_START	n/a	n/a	n/a	-999	8	n/a	n/a	pyFR	1	TJ050
1256.516	0.761	4834033	REC_WORD	0.761	n/a	EAR	-999	8	n/a	n/a	pyFR	1	TJ050
1257.277	1.097	4835555	REC_WORD	1.097	n/a	SOCK	-999	8	n/a	n/a	pyFR	1	TJ050
1258.374	1.277	4837749	REC_WORD	1.277	n/a	JEEP	-999	8	n/a	n/a	pyFR	1	TJ050
1259.651	1.868	4840303	REC_WORD	1.868	n/a	WEED	-999	8	n/a	n/a	pyFR	1	TJ050
1261.519	4.252	4844039	REC_WORD	4.252	n/a	BED	-999	8	n/a	n/a	pyFR	1	TJ050
1265.771	3.011	4852542	REC_WORD_VV	3.011	n/a	<>	-999	8	n/a	n/a	pyFR	1	TJ050
1268.782	3.323	4858564	REC_WORD	3.323	n/a	HOUSE	-999	8	n/a	n/a	pyFR	1	TJ050
1272.105	5.332	4865210	REC_WORD_VV	5.332	n/a	<>	-999	8	n/a	n/a	pyFR	1	TJ050
1277.437	6.206	4875874	REC_WORD	6.206	n/a	JEEP	-999	8	n/a	n/a	pyFR	1	TJ050
1283.643	38.792	4888285	REC_WORD	38.792	n/a	FUR	-999	8	n/a	n/a	pyFR	1	TJ050
1322.435	0.016	4965866	TRIAL	n/a	n/a	n/a	-999	9	n/a	n/a	pyFR	1	TJ050
1322.451	2.704	4965898	ORIENT	n/a	n/a	n/a	-999	9	n/a	n/a	pyFR	1	TJ050
1325.155	2.689	4971306	WORD	n/a	wordpools/wordpool_EN.txt	ROAD	1	9	n/a	n/a	pyFR	1	TJ050
1327.844	2.688	4976684	WORD	n/a	wordpools/wordpool_EN.txt	WAVE	2	9	n/a	n/a	pyFR	1	TJ050
1330.532	2.47	4982060	WORD	n/a	wordpools/wordpool_EN.txt	ROSE	3	9	n/a	n/a	pyFR	1	TJ050
1333.002	2.505	4986999	WORD	n/a	wordpools/wordpool_EN.txt	TAPE	4	9	n/a	n/a	pyFR	1	TJ050
1335.507	2.453	4992009	WORD	n/a	wordpools/wordpool_EN.txt	LAMP	5	9	n/a	n/a	pyFR	1	TJ050
1337.96	2.672	4996915	WORD	n/a	wordpools/wordpool_EN.txt	FISH	6	9	n/a	n/a	pyFR	1	TJ050
1340.632	2.722	5002259	WORD	n/a	wordpools/wordpool_EN.txt	HORSE	7	9	n/a	n/a	pyFR	1	TJ050
1343.354	2.554	5007703	WORD	n/a	wordpools/wordpool_EN.txt	CART	8	9	n/a	n/a	pyFR	1	TJ050
1345.908	2.755	5012810	WORD	n/a	wordpools/wordpool_EN.txt	SEA	9	9	n/a	n/a	pyFR	1	TJ050
1348.663	2.704	5018320	WORD	n/a	wordpools/wordpool_EN.txt	BALL	10	9	n/a	n/a	pyFR	1	TJ050
1351.367	2.737	5023728	WORD	n/a	wordpools/wordpool_EN.txt	SNOW	11	9	n/a	n/a	pyFR	1	TJ050
1354.104	2.706	5029202	WORD	n/a	wordpools/wordpool_EN.txt	DART	12	9	n/a	n/a	pyFR	1	TJ050
1356.81	2.554	5034614	WORD	n/a	wordpools/wordpool_EN.txt	BADGE	13	9	n/a	n/a	pyFR	1	TJ050
1359.364	2.537	5039721	WORD	n/a	wordpools/wordpool_EN.txt	CAR	14	9	n/a	n/a	pyFR	1	TJ050
1361.901	1.621	5044795	WORD	n/a	wordpools/wordpool_EN.txt	GEESE	15	9	n/a	n/a	pyFR	1	TJ050
1363.522	1.067	5048037	START	n/a	n/a	n/a	n/a	9	[-999 -999 -999]	-999	pyFR	1	TJ050
1364.589	4.257	5050171	PROB	n/a	n/a	n/a	n/a	9	[3 6 4]	13	pyFR	1	TJ050
1368.846	3.106	5058685	PROB	n/a	n/a	n/a	n/a	9	[7 2 4]	13	pyFR	1	TJ050
1371.952	2.369	5064896	PROB	n/a	n/a	n/a	n/a	9	[1 7 5]	13	pyFR	1	TJ050
1374.321	2.138	5069634	PROB	n/a	n/a	n/a	n/a	9	[2 1 1]	4	pyFR	1	TJ050
1376.459	2.288	5073910	PROB	n/a	n/a	n/a	n/a	9	[2 5 5]	12	pyFR	1	TJ050
1378.747	3.038	5078486	PROB	n/a	n/a	n/a	n/a	9	[2 3 8]	13	pyFR	1	TJ050
1381.785	3.326	5084562	PROB	n/a	n/a	n/a	n/a	9	[7 1 9]	17	pyFR	1	TJ050
1385.111	1.214	5091214	STOP	n/a	n/a	n/a	n/a	9	[-999 -999 -999]	-999	pyFR	1	TJ050
1386.325	1.055	5093641	REC_START	n/a	n/a	n/a	-999	9	n/a	n/a	pyFR	1	TJ050
1387.38	0.769	5095751	REC_WORD_VV	0.769	n/a	<>	-999	9	n/a	n/a	pyFR	1	TJ050
1388.149	5.386	5097289	REC_WORD	5.386	n/a	CAR	-999	9	n/a	n/a	pyFR	1	TJ050
1393.535	5.56	5108061	REC_WORD	5.56	n/a	HORSE	-999	9	n/a	n/a	pyFR	1	TJ050
1399.095	16.325	5119180	REC_WORD	16.325	n/a	SKI	-999	9	n/a	n/a	pyFR	1	TJ050
1415.42	1.987	5151829	REC_WORD	1.987	n/a	COMFORT	-999	9	n/a	n/a	pyFR	1	TJ050
1417.407	12.687	5155803	REC_WORD	12.687	n/a	FUDGE	-999	9	n/a	n/a	pyFR	1	TJ050
1430.094	27.486	5181176	REC_WORD	27.486	n/a	FISH	-999	9	n/a	n/a	pyFR	1	TJ050
1457.58	0.015	5236146	TRIAL	n/a	n/a	n/a	-999	10	n/a	n/a	pyFR	1	TJ050
1457.595	2.973	5236176	ORIENT	n/a	n/a	n/a	-999	10	n/a	n/a	pyFR	1	TJ050
1460.568	2.788	5242122	WORD	n/a	wordpools/wordpool_EN.txt	WORM	1	10	n/a	n/a	pyFR	1	TJ050
1463.356	2.72	5247698	WORD	n/a	wordpools/wordpool_EN.txt	COUCH	2	10	n/a	n/a	pyFR	1	TJ050
1466.076	2.739	5253137	WORD	n/a	wordpools/wordpool_EN.txt	COIN	3	10	n/a	n/a	pyFR	1	TJ050
1468.815	2.503	5258615	WORD	n/a	wordpools/wordpool_EN.txt	SKY	4	10	n/a	n/a	pyFR	1	TJ050
1471.318	2.472	5263621	WORD	n/a	wordpools/wordpool_EN.txt	CARD	5	10	n/a	n/a	pyFR	1	TJ050
1473.79	2.537	5268565	WORD	n/a	wordpools/wordpool_EN.txt	DAD	6	10	n/a	n/a	pyFR	1	TJ050
1476.327	2.671	5273639	WORD	n/a	wordpools/wordpool_EN.txt	COW	7	10	n/a	n/a	pyFR	1	TJ050
1478.998	2.621	5278981	WORD	n/a	wordpools/wordpool_EN.txt	SHELL	8	10	n/a	n/a	pyFR	1	TJ050
1481.619	2.722	5284222	WORD	n/a	wordpools/wordpool_EN.txt	BARN	9	10	n/a	n/a	pyFR	1	TJ050
1484.341	2.454	5289666	WORD	n/a	wordpools/wordpool_EN.txt	RAIN	10	10	n/a	n/a	pyFR	1	TJ050
1486.795	2.755	5294574	WORD	n/a	wordpools/wordpool_EN.txt	BOOT	11	10	n/a	n/a	pyFR	1	TJ050
1489.55	2.804	5300084	WORD	n/a	wordpools/wordpool_EN.txt	BREAD	12	10	n/a	n/a	pyFR	1	TJ050
1492.354	2.438	5305692	WORD	n/a	wordpools/wordpool_EN.txt	SPOON	13	10	n/a	n/a	pyFR	1	TJ050
1494.792	2.469	5310567	WORD	n/a	wordpools/wordpool_EN.txt	POND	14	10	n/a	n/a	pyFR	1	TJ050
1497.261	1.605	5315505	WORD	n/a	wordpools/wordpool_EN.txt	STEAM	15	10	n/a	n/a	pyFR	1	TJ050
1498.866	0.951	5318715	START	n/a	n/a	n/a	n/a	10	[-999 -999 -999]	-999	pyFR	1	TJ050
1499.817	3.221	5320617	PROB	n/a	n/a	n/a	n/a	10	[7 1 8]	16	pyFR	1	TJ050
1503.038	2.488	5327059	PROB	n/a	n/a	n/a	n/a	10	[3 6 2]	11	pyFR	1	TJ050
1505.526	2.754	5332035	PROB	n/a	n/a	n/a	n/a	10	[4 2 4]	10	pyFR	1	TJ050
1508.28	2.288	5337542	PROB	n/a	n/a	n/a	n/a	10	[6 5 2]	13	pyFR	1	TJ050
1510.568	2.254	5342118	PROB	n/a	n/a	n/a	n/a	10	[5 5 1]	11	pyFR	1	TJ050
1512.822	2.604	5346626	PROB	n/a	n/a	n/a	n/a	10	[1 7 9]	17	pyFR	1	TJ050
1515.426	2.654	5351834	PROB	n/a	n/a	n/a	n/a	10	[5 6 8]	18	pyFR	1	TJ050
1518.08	4.424	5357142	PROB	n/a	n/a	n/a	n/a	10	[3 1 9]	13	pyFR	1	TJ050
1522.504	1.187	5365989	STOP	n/a	n/a	n/a	n/a	10	[-999 -999 -999]	-999	pyFR	1	TJ050
1523.691	0.435	5368363	REC_START	n/a	n/a	n/a	-999	10	n/a	n/a	pyFR	1	TJ050
1524.126	1.0	5369233	REC_WORD_VV	1.0	n/a	<>	-999	10	n/a	n/a	pyFR	1	TJ050
1525.126	0.746	5371233	REC_WORD_VV	0.746	n/a	<>	-999	10	n/a	n/a	pyFR	1	TJ050
1525.872	1.343	5372725	REC_WORD	1.343	n/a	COW	-999	10	n/a	n/a	pyFR	1	TJ050
1527.215	1.714	5375411	REC_WORD	1.714	n/a	DAD	-999	10	n/a	n/a	pyFR	1	TJ050
1528.929	4.499	5378839	REC_WORD	4.499	n/a	STEAM	-999	10	n/a	n/a	pyFR	1	TJ050
1533.428	0.592	5387836	REC_WORD	0.592	n/a	RAIN	-999	10	n/a	n/a	pyFR	1	TJ050
1534.02	12.829	5389020	REC_WORD	12.829	n/a	BARN	-999	10	n/a	n/a	pyFR	1	TJ050
1546.849	1.892	5414677	REC_WORD	1.892	n/a	COUCH	-999	10	n/a	n/a	pyFR	1	TJ050
1548.741	5.264	5418461	REC_WORD_VV	5.264	n/a	<>	-999	10	n/a	n/a	pyFR	1	TJ050
1554.005	57.717	5428989	REC_WORD	57.717	n/a	SKI	-999	10	n/a	n/a	pyFR	1	TJ050
1611.722	0.016	5544419	TRIAL	n/a	n/a	n/a	-999	11	n/a	n/a	pyFR	1	TJ050
1611.738	2.772	5544451	ORIENT	n/a	n/a	n/a	-999	11	n/a	n/a	pyFR	1	TJ050
1614.51	2.62	5549994	WORD	n/a	wordpools/wordpool_EN.txt	FLOOR	1	11	n/a	n/a	pyFR	1	TJ050
1617.13	2.555	5555234	WORD	n/a	wordpools/wordpool_EN.txt	QUEEN	2	11	n/a	n/a	pyFR	1	TJ050
1619.685	2.52	5560344	WORD	n/a	wordpools/wordpool_EN.txt	MULE	3	11	n/a	n/a	pyFR	1	TJ050
1622.205	2.455	5565384	WORD	n/a	wordpools/wordpool_EN.txt	RUG	4	11	n/a	n/a	pyFR	1	TJ050
1624.66	2.487	5570294	WORD	n/a	wordpools/wordpool_EN.txt	WHEEL	5	11	n/a	n/a	pyFR	1	TJ050
1627.147	2.821	5575267	WORD	n/a	wordpools/wordpool_EN.txt	CUP	6	11	n/a	n/a	pyFR	1	TJ050
1629.968	2.606	5580909	WORD	n/a	wordpools/wordpool_EN.txt	DIME	7	11	n/a	n/a	pyFR	1	TJ050
1632.574	2.62	5586121	WORD	n/a	wordpools/wordpool_EN.txt	DESK	8	11	n/a	n/a	pyFR	1	TJ050
1635.194	2.505	5591361	WORD	n/a	wordpools/wordpool_EN.txt	ROOF	9	11	n/a	n/a	pyFR	1	TJ050
1637.699	2.705	5596371	WORD	n/a	wordpools/wordpool_EN.txt	MOOSE	10	11	n/a	n/a	pyFR	1	TJ050
1640.404	2.787	5601780	WORD	n/a	wordpools/wordpool_EN.txt	DITCH	11	11	n/a	n/a	pyFR	1	TJ050
1643.191	2.555	5607354	WORD	n/a	wordpools/wordpool_EN.txt	BOX	12	11	n/a	n/a	pyFR	1	TJ050
1645.746	2.821	5612464	WORD	n/a	wordpools/wordpool_EN.txt	BANK	13	11	n/a	n/a	pyFR	1	TJ050
1648.567	2.822	5618106	WORD	n/a	wordpools/wordpool_EN.txt	TOOTH	14	11	n/a	n/a	pyFR	1	TJ050
1651.389	1.619	5623750	WORD	n/a	wordpools/wordpool_EN.txt	VINE	15	11	n/a	n/a	pyFR	1	TJ050
1653.008	1.101	5626988	START	n/a	n/a	n/a	n/a	11	[-999 -999 -999]	-999	pyFR	1	TJ050
1654.109	4.258	5629189	PROB	n/a	n/a	n/a	n/a	11	[9 7 8]	23	pyFR	1	TJ050
1658.367	3.739	5637705	PROB	n/a	n/a	n/a	n/a	11	[9 7 8]	24	pyFR	1	TJ050
1662.106	2.971	5645183	PROB	n/a	n/a	n/a	n/a	11	[2 2 3]	7	pyFR	1	TJ050
1665.077	2.622	5651125	PROB	n/a	n/a	n/a	n/a	11	[1 6 3]	10	pyFR	1	TJ050
1667.699	2.403	5656368	PROB	n/a	n/a	n/a	n/a	11	[9 3 6]	18	pyFR	1	TJ050
1670.102	2.238	5661174	PROB	n/a	n/a	n/a	n/a	11	[5 2 4]	11	pyFR	1	TJ050
1672.34	1.763	5665650	PROB	n/a	n/a	n/a	n/a	11	[8 2 1]	11	pyFR	1	TJ050
1674.103	1.058	5669176	STOP	n/a	n/a	n/a	n/a	11	[-999 -999 -999]	-999	pyFR	1	TJ050
1675.161	1.472	5671292	REC_START	n/a	n/a	n/a	-999	11	n/a	n/a	pyFR	1	TJ050
1676.633	0.463	5674236	REC_WORD	0.463	n/a	MULE	-999	11	n/a	n/a	pyFR	1	TJ050
1677.096	0.734	5675162	REC_WORD	0.734	n/a	RUG	-999	11	n/a	n/a	pyFR	1	TJ050
1677.83	1.021	5676630	REC_WORD	1.021	n/a	WHEEL	-999	11	n/a	n/a	pyFR	1	TJ050
1678.851	3.819	5678672	REC_WORD	3.819	n/a	ROOF	-999	11	n/a	n/a	pyFR	1	TJ050
1682.67	20.518	5686309	REC_WORD_VV	20.518	n/a	<>	-999	11	n/a	n/a	pyFR	1	TJ050
1703.188	55.448	5727344	REC_WORD	55.448	n/a	BARN	-999	11	n/a	n/a	pyFR	1	TJ050
1758.636	0.016	5838236	TRIAL	n/a	n/a	n/a	-999	12	n/a	n/a	pyFR	1	TJ050
1758.652	2.755	5838268	ORIENT	n/a	n/a	n/a	-999	12	n/a	n/a	pyFR	1	TJ050
1761.407	2.553	5843777	WORD	n/a	wordpools/wordpool_EN.txt	TOY	1	12	n/a	n/a	pyFR	1	TJ050
1763.96	2.773	5848883	WORD	n/a	wordpools/wordpool_EN.txt	CORN	2	12	n/a	n/a	pyFR	1	TJ050
1766.733	2.586	5854429	WORD	n/a	wordpools/wordpool_EN.txt	SUIT	3	12	n/a	n/a	pyFR	1	TJ050
1769.319	2.738	5859601	WORD	n/a	wordpools/wordpool_EN.txt	PEACH	4	12	n/a	n/a	pyFR	1	TJ050
1772.057	2.589	5865077	WORD	n/a	wordpools/wordpool_EN.txt	TIE	5	12	n/a	n/a	pyFR	1	TJ050
1774.646	2.47	5870254	WORD	n/a	wordpools/wordpool_EN.txt	HEN	6	12	n/a	n/a	pyFR	1	TJ050
1777.116	2.455	5875194	WORD	n/a	wordpools/wordpool_EN.txt	BRICK	7	12	n/a	n/a	pyFR	1	TJ050
1779.571	2.553	5880104	WORD	n/a	wordpools/wordpool_EN.txt	PIPE	8	12	n/a	n/a	pyFR	1	TJ050
1782.124	2.472	5885210	WORD	n/a	wordpools/wordpool_EN.txt	BOY	9	12	n/a	n/a	pyFR	1	TJ050
1784.596	2.537	5890154	WORD	n/a	wordpools/wordpool_EN.txt	TOAD	10	12	n/a	n/a	pyFR	1	TJ050
1787.133	2.722	5895228	WORD	n/a	wordpools/wordpool_EN.txt	GRAPE	11	12	n/a	n/a	pyFR	1	TJ050
1789.855	2.721	5900671	WORD	n/a	wordpools/wordpool_EN.txt	SPRING	12	12	n/a	n/a	pyFR	1	TJ050
1792.576	2.537	5906113	WORD	n/a	wordpools/wordpool_EN.txt	STEAK	13	12	n/a	n/a	pyFR	1	TJ050
1795.113	2.822	5911187	WORD	n/a	wordpools/wordpool_EN.txt	SOAP	14	12	n/a	n/a	pyFR	1	TJ050
1797.935	1.621	5916831	WORD	n/a	wordpools/wordpool_EN.txt	MAT	15	12	n/a	n/a	pyFR	1	TJ050
1799.556	1.117	5920073	START	n/a	n/a	n/a	n/a	12	[-999 -999 -999]	-999	pyFR	1	TJ050
1800.673	4.14	5922307	PROB	n/a	n/a	n/a	n/a	12	[5 4 4]	13	pyFR	1	TJ050
1804.813	2.22	5930586	PROB	n/a	n/a	n/a	n/a	12	[8 1 2]	11	pyFR	1	TJ050
1807.033	2.338	5935026	PROB	n/a	n/a	n/a	n/a	12	[4 8 5]	17	pyFR	1	TJ050
1809.371	2.337	5939702	PROB	n/a	n/a	n/a	n/a	12	[2 6 6]	14	pyFR	1	TJ050
1811.708	3.022	5944376	PROB	n/a	n/a	n/a	n/a	12	[4 6 6]	16	pyFR	1	TJ050
1814.73	5.157	5950419	PROB	n/a	n/a	n/a	n/a	12	[6 2 2]	10	pyFR	1	TJ050
1819.887	1.054	5960733	STOP	n/a	n/a	n/a	n/a	12	[-999 -999 -999]	-999	pyFR	1	TJ050
1820.941	3.947	5962841	REC_START	n/a	n/a	n/a	-999	12	n/a	n/a	pyFR	1	TJ050
1824.888	0.883	5970735	REC_WORD	0.883	n/a	TIE	-999	12	n/a	n/a	pyFR	1	TJ050
1825.771	0.913	5972501	REC_WORD	0.913	n/a	BRICK	-999	12	n/a	n/a	pyFR	1	TJ050
1826.684	2.3	5974327	REC_WORD	2.3	n/a	PIPE	-999	12	n/a	n/a	pyFR	1	TJ050
1828.984	3.328	5978926	REC_WORD	3.328	n/a	ROOF	-999	12	n/a	n/a	pyFR	1	TJ050
1832.312	11.676	5985582	REC_WORD	11.676	n/a	TOAD	-999	12	n/a	n/a	pyFR	1	TJ050
1843.988	1.581	6008933	REC_WORD	1.581	n/a	CORN	-999	12	n/a	n/a	pyFR	1	TJ050
1845.569	50.883	6012095	REC_WORD	50.883	n/a	PEACH	-999	12	n/a	n/a	pyFR	1	TJ050
1896.452	0.015	6113857	TRIAL	n/a	n/a	n/a	-999	13	n/a	n/a	pyFR	1	TJ050
1896.467	2.906	6113887	ORIENT	n/a	n/a	n/a	-999	13	n/a	n/a	pyFR	1	TJ050
1899.373	2.72	6119699	WORD	n/a	wordpools/wordpool_EN.txt	ROCK	1	13	n/a	n/a	pyFR	1	TJ050
1902.093	2.538	6125139	WORD	n/a	wordpools/wordpool_EN.txt	DEER	2	13	n/a	n/a	pyFR	1	TJ050
1904.631	2.47	6130215	WORD	n/a	wordpools/wordpool_EN.txt	MILK	3	13	n/a	n/a	pyFR	1	TJ050
1907.101	2.556	6135155	WORD	n/a	wordpools/wordpool_EN.txt	BAG	4	13	n/a	n/a	pyFR	1	TJ050
1909.657	2.821	6140266	WORD	n/a	wordpools/wordpool_EN.txt	GOLD	5	13	n/a	n/a	pyFR	1	TJ050
1912.478	2.52	6145908	WORD	n/a	wordpools/wordpool_EN.txt	TOAST	6	13	n/a	n/a	pyFR	1	TJ050
1914.998	2.488	6150948	WORD	n/a	wordpools/wordpool_EN.txt	SLIME	7	13	n/a	n/a	pyFR	1	TJ050
1917.486	2.571	6155924	WORD	n/a	wordpools/wordpool_EN.txt	FLUTE	8	13	n/a	n/a	pyFR	1	TJ050
1920.057	2.672	6161066	WORD	n/a	wordpools/wordpool_EN.txt	DOG	9	13	n/a	n/a	pyFR	1	TJ050
1922.729	2.486	6166409	WORD	n/a	wordpools/wordpool_EN.txt	WEB	10	13	n/a	n/a	pyFR	1	TJ050
1925.215	2.438	6171381	WORD	n/a	wordpools/wordpool_EN.txt	WOLF	11	13	n/a	n/a	pyFR	1	TJ050
1927.653	2.571	6176257	WORD	n/a	wordpools/wordpool_EN.txt	SHIELD	12	13	n/a	n/a	pyFR	1	TJ050
1930.224	2.787	6181399	WORD	n/a	wordpools/wordpool_EN.txt	JUDGE	13	13	n/a	n/a	pyFR	1	TJ050
1933.011	2.656	6186973	WORD	n/a	wordpools/wordpool_EN.txt	BOARD	14	13	n/a	n/a	pyFR	1	TJ050
1935.667	1.619	6192284	WORD	n/a	wordpools/wordpool_EN.txt	GATE	15	13	n/a	n/a	pyFR	1	TJ050
1937.286	0.868	6195522	START	n/a	n/a	n/a	n/a	13	[-999 -999 -999]	-999	pyFR	1	TJ050
1938.154	4.208	6197258	PROB	n/a	n/a	n/a	n/a	13	[4 9 2]	15	pyFR	1	TJ050
1942.362	3.905	6205674	PROB	n/a	n/a	n/a	n/a	13	[9 2 4]	15	pyFR	1	TJ050
1946.267	2.704	6213484	PROB	n/a	n/a	n/a	n/a	13	[1 6 8]	15	pyFR	1	TJ050
1948.971	3.189	6218891	PROB	n/a	n/a	n/a	n/a	13	[7 4 7]	18	pyFR	1	TJ050
1952.16	4.459	6225269	PROB	n/a	n/a	n/a	n/a	13	[7 4 1]	12	pyFR	1	TJ050
1956.619	2.156	6234187	PROB	n/a	n/a	n/a	n/a	13	[1 8 1]	10	pyFR	1	TJ050
1958.775	1.067	6238499	STOP	n/a	n/a	n/a	n/a	13	[-999 -999 -999]	-999	pyFR	1	TJ050
1959.842	2.1	6240633	REC_START	n/a	n/a	n/a	-999	13	n/a	n/a	pyFR	1	TJ050
1961.942	0.375	6244833	REC_WORD	0.375	n/a	GOLD	-999	13	n/a	n/a	pyFR	1	TJ050
1962.317	14.774	6245582	REC_WORD	14.774	n/a	SLIME	-999	13	n/a	n/a	pyFR	1	TJ050
1977.091	0.27	6275129	REC_WORD	0.27	n/a	GOLD	-999	13	n/a	n/a	pyFR	1	TJ050
1977.361	0.513	6275669	REC_WORD	0.513	n/a	SLIME	-999	13	n/a	n/a	pyFR	1	TJ050
1977.874	0.535	6276695	REC_WORD	0.535	n/a	WHEEL	-999	13	n/a	n/a	pyFR	1	TJ050
1978.409	105.943	6277765	REC_WORD	105.943	n/a	WEB	-999	13	n/a	n/a	pyFR	1	TJ050
2084.352	0.015	6489643	TRIAL	n/a	n/a	n/a	-999	14	n/a	n/a	pyFR	1	TJ050
2084.367	3.022	6489673	ORIENT	n/a	n/a	n/a	-999	14	n/a	n/a	pyFR	1	TJ050
2087.389	2.471	6495717	WORD	n/a	wordpools/wordpool_EN.txt	TREE	1	14	n/a	n/a	pyFR	1	TJ050
2089.86	2.554	6500659	WORD	n/a	wordpools/wordpool_EN.txt	LAWN	2	14	n/a	n/a	pyFR	1	TJ050
2092.414	2.821	6505767	WORD	n/a	wordpools/wordpool_EN.txt	CLOTH	3	14	n/a	n/a	pyFR	1	TJ050
2095.235	2.605	6511409	WORD	n/a	wordpools/wordpool_EN.txt	BLUSH	4	14	n/a	n/a	pyFR	1	TJ050
2097.84	2.771	6516618	WORD	n/a	wordpools/wordpool_EN.txt	TENT	5	14	n/a	n/a	pyFR	1	TJ050
2100.611	2.504	6522160	WORD	n/a	wordpools/wordpool_EN.txt	TANK	6	14	n/a	n/a	pyFR	1	TJ050
2103.115	2.771	6527168	WORD	n/a	wordpools/wordpool_EN.txt	FILM	7	14	n/a	n/a	pyFR	1	TJ050
2105.886	2.672	6532710	WORD	n/a	wordpools/wordpool_EN.txt	RIB	8	14	n/a	n/a	pyFR	1	TJ050
2108.558	2.436	6538054	WORD	n/a	wordpools/wordpool_EN.txt	STORE	9	14	n/a	n/a	pyFR	1	TJ050
2110.994	2.589	6542925	WORD	n/a	wordpools/wordpool_EN.txt	AXE	10	14	n/a	n/a	pyFR	1	TJ050
2113.583	2.687	6548103	WORD	n/a	wordpools/wordpool_EN.txt	TEA	11	14	n/a	n/a	pyFR	1	TJ050
2116.27	2.455	6553477	WORD	n/a	wordpools/wordpool_EN.txt	BELL	12	14	n/a	n/a	pyFR	1	TJ050
2118.725	2.621	6558387	WORD	n/a	wordpools/wordpool_EN.txt	FRUIT	13	14	n/a	n/a	pyFR	1	TJ050
2121.346	2.67	6563629	WORD	n/a	wordpools/wordpool_EN.txt	MAIL	14	14	n/a	n/a	pyFR	1	TJ050
2124.016	1.605	6568968	WORD	n/a	wordpools/wordpool_EN.txt	SPEAR	15	14	n/a	n/a	pyFR	1	TJ050
2125.621	1.001	6572178	START	n/a	n/a	n/a	n/a	14	[-999 -999 -999]	-999	pyFR	1	TJ050
2126.622	2.788	6574180	PROB	n/a	n/a	n/a	n/a	14	[9 2 4]	15	pyFR	1	TJ050
2129.41	2.27	6579756	PROB	n/a	n/a	n/a	n/a	14	[5 8 6]	18	pyFR	1	TJ050
2131.68	3.673	6584296	PROB	n/a	n/a	n/a	n/a	14	[2 7 8]	19	pyFR	1	TJ050
2135.353	3.423	6591642	PROB	n/a	n/a	n/a	n/a	14	[9 9 7]	26	pyFR	1	TJ050
2138.776	2.704	6598487	PROB	n/a	n/a	n/a	n/a	14	[6 7 2]	15	pyFR	1	TJ050
2141.48	7.534	6603895	PROB	n/a	n/a	n/a	n/a	14	[9 8 9]	25	pyFR	1	TJ050
2149.014	1.063	6618963	STOP	n/a	n/a	n/a	n/a	14	[-999 -999 -999]	-999	pyFR	1	TJ050
2150.077	2.871	6621088	REC_START	n/a	n/a	n/a	-999	14	n/a	n/a	pyFR	1	TJ050
2152.948	0.999	6626830	REC_WORD	0.999	n/a	TEA	-999	14	n/a	n/a	pyFR	1	TJ050
2153.947	1.984	6628828	REC_WORD	1.984	n/a	BELL	-999	14	n/a	n/a	pyFR	1	TJ050
2155.931	2.71	6632796	REC_WORD	2.71	n/a	TANK	-999	14	n/a	n/a	pyFR	1	TJ050
2158.641	3.088	6638216	REC_WORD	3.088	n/a	WORM	-999	14	n/a	n/a	pyFR	1	TJ050
2161.729	2.89	6644392	REC_WORD	2.89	n/a	RAIN	-999	14	n/a	n/a	pyFR	1	TJ050
2164.619	64.441	6650171	REC_WORD	64.441	n/a	RIB	-999	14	n/a	n/a	pyFR	1	TJ050
2229.06	0.016	6779049	TRIAL	n/a	n/a	n/a	-999	15	n/a	n/a	pyFR	1	TJ050
2229.076	2.972	6779081	ORIENT	n/a	n/a	n/a	-999	15	n/a	n/a	pyFR	1	TJ050
2232.048	2.555	6785024	WORD	n/a	wordpools/wordpool_EN.txt	SINK	1	15	n/a	n/a	pyFR	1	TJ050
2234.603	2.671	6790134	WORD	n/a	wordpools/wordpool_EN.txt	GIRL	2	15	n/a	n/a	pyFR	1	TJ050
2237.274	2.455	6795476	WORD	n/a	wordpools/wordpool_EN.txt	CRANE	3	15	n/a	n/a	pyFR	1	TJ050
2239.729	2.704	6800386	WORD	n/a	wordpools/wordpool_EN.txt	SMILE	4	15	n/a	n/a	pyFR	1	TJ050
2242.433	2.671	6805794	WORD	n/a	wordpools/wordpool_EN.txt	GLASS	5	15	n/a	n/a	pyFR	1	TJ050
2245.104	2.505	6811135	WORD	n/a	wordpools/wordpool_EN.txt	DOLL	6	15	n/a	n/a	pyFR	1	TJ050
2247.609	2.553	6816145	WORD	n/a	wordpools/wordpool_EN.txt	MOTH	7	15	n/a	n/a	pyFR	1	TJ050
2250.162	2.522	6821251	WORD	n/a	wordpools/wordpool_EN.txt	MOLE	8	15	n/a	n/a	pyFR	1	TJ050
2252.684	2.637	6826295	WORD	n/a	wordpools/wordpool_EN.txt	NET	9	15	n/a	n/a	pyFR	1	TJ050
2255.321	2.572	6831569	WORD	n/a	wordpools/wordpool_EN.txt	STEM	10	15	n/a	n/a	pyFR	1	TJ050
2257.893	2.754	6836712	WORD	n/a	wordpools/wordpool_EN.txt	RICE	11	15	n/a	n/a	pyFR	1	TJ050
2260.647	2.772	6842220	WORD	n/a	wordpools/wordpool_EN.txt	FLAME	12	15	n/a	n/a	pyFR	1	TJ050
2263.419	2.603	6847764	WORD	n/a	wordpools/wordpool_EN.txt	NAIL	13	15	n/a	n/a	pyFR	1	TJ050
2266.022	2.605	6852970	WORD	n/a	wordpools/wordpool_EN.txt	SNAIL	14	15	n/a	n/a	pyFR	1	TJ050
2268.627	1.62	6858180	WORD	n/a	wordpools/wordpool_EN.txt	SNAKE	15	15	n/a	n/a	pyFR	1	TJ050
2270.247	1.202	6861420	START	n/a	n/a	n/a	n/a	15	[-999 -999 -999]	-999	pyFR	1	TJ050
2271.449	3.805	6863823	PROB	n/a	n/a	n/a	n/a	15	[6 7 5]	18	pyFR	1	TJ050
2275.254	3.924	6871433	PROB	n/a	n/a	n/a	n/a	15	[9 6 3]	18	pyFR	1	TJ050
2279.178	3.038	6879281	PROB	n/a	n/a	n/a	n/a	15	[1 4 7]	12	pyFR	1	TJ050
2282.216	2.02	6885357	PROB	n/a	n/a	n/a	n/a	15	[7 2 2]	11	pyFR	1	TJ050
2284.236	2.905	6889396	PROB	n/a	n/a	n/a	n/a	15	[9 7 6]	22	pyFR	1	TJ050
2287.141	2.888	6895206	PROB	n/a	n/a	n/a	n/a	15	[2 9 4]	15	pyFR	1	TJ050
2290.029	2.363	6900982	PROB	n/a	n/a	n/a	n/a	15	[5 5 9]	19	pyFR	1	TJ050
2292.392	1.128	6905708	STOP	n/a	n/a	n/a	n/a	15	[-999 -999 -999]	-999	pyFR	1	TJ050
2293.52	8.102	6907964	REC_START	n/a	n/a	n/a	-999	15	n/a	n/a	pyFR	1	TJ050
2301.622	0.534	6924167	REC_WORD_VV	0.534	n/a	<>	-999	15	n/a	n/a	pyFR	1	TJ050
2302.156	2.049	6925235	REC_WORD_VV	2.049	n/a	<>	-999	15	n/a	n/a	pyFR	1	TJ050
2304.205	5.094	6929333	REC_WORD	5.094	n/a	MOTH	-999	15	n/a	n/a	pyFR	1	TJ050
2309.299	4.774	6939521	REC_WORD_VV	4.774	n/a	<>	-999	15	n/a	n/a	pyFR	1	TJ050
2314.073	0.366	6949068	REC_WORD	0.366	n/a	MOTH	-999	15	n/a	n/a	pyFR	1	TJ050
2314.439	2.865	6949800	REC_WORD	2.865	n/a	SMILE	-999	15	n/a	n/a	pyFR	1	TJ050
2317.304	0.536	6955530	REC_WORD	0.536	n/a	TEA	-999	15	n/a	n/a	pyFR	1	TJ050
2317.84	0.548	6956602	REC_WORD	0.548	n/a	RICE	-999	15	n/a	n/a	pyFR	1	TJ050
2318.388	11.162	6957698	REC_WORD	11.162	n/a	FLAME	-999	15	n/a	n/a	pyFR	1	TJ050
2329.55	2.544	6980021	REC_WORD	2.544	n/a	STEM	-999	15	n/a	n/a	pyFR	1	TJ050
2332.094	0.996	6985109	REC_WORD	0.996	n/a	SNAIL	-999	15	n/a	n/a	pyFR	1	TJ050
2333.09	2.56	6987101	REC_WORD	2.56	n/a	NAIL	-999	15	n/a	n/a	pyFR	1	TJ050
2335.65	22.495	6992221	REC_WORD	22.495	n/a	MOLE	-999	15	n/a	n/a	pyFR	1	TJ050
2358.145	0.015	7037209	TRIAL	n/a	n/a	n/a	-999	16	n/a	n/a	pyFR	1	TJ050
2358.16	2.739	7037239	ORIENT	n/a	n/a	n/a	-999	16	n/a	n/a	pyFR	1	TJ050
2360.899	2.571	7042717	WORD	n/a	wordpools/wordpool_EN.txt	SHEET	1	16	n/a	n/a	pyFR	1	TJ050
2363.47	2.487	7047859	WORD	n/a	wordpools/wordpool_EN.txt	WHALE	2	16	n/a	n/a	pyFR	1	TJ050
2365.957	2.472	7052832	WORD	n/a	wordpools/wordpool_EN.txt	SOUP	3	16	n/a	n/a	pyFR	1	TJ050
2368.429	2.487	7057776	WORD	n/a	wordpools/wordpool_EN.txt	FENCE	4	16	n/a	n/a	pyFR	1	TJ050
2370.916	2.621	7062750	WORD	n/a	wordpools/wordpool_EN.txt	SLUSH	5	16	n/a	n/a	pyFR	1	TJ050
2373.537	2.637	7067992	WORD	n/a	wordpools/wordpool_EN.txt	SQUARE	6	16	n/a	n/a	pyFR	1	TJ050
2376.174	2.689	7073266	WORD	n/a	wordpools/wordpool_EN.txt	PLATE	7	16	n/a	n/a	pyFR	1	TJ050
2378.863	2.521	7078643	WORD	n/a	wordpools/wordpool_EN.txt	MUD	8	16	n/a	n/a	pyFR	1	TJ050
2381.384	2.571	7083685	WORD	n/a	wordpools/wordpool_EN.txt	STORM	9	16	n/a	n/a	pyFR	1	TJ050
2383.955	2.487	7088827	WORD	n/a	wordpools/wordpool_EN.txt	SUN	10	16	n/a	n/a	pyFR	1	TJ050
2386.442	2.77	7093801	WORD	n/a	wordpools/wordpool_EN.txt	HOOF	11	16	n/a	n/a	pyFR	1	TJ050
2389.212	2.539	7099341	WORD	n/a	wordpools/wordpool_EN.txt	ROOM	12	16	n/a	n/a	pyFR	1	TJ050
2391.751	2.605	7104418	WORD	n/a	wordpools/wordpool_EN.txt	PEN	13	16	n/a	n/a	pyFR	1	TJ050
2394.356	2.837	7109628	WORD	n/a	wordpools/wordpool_EN.txt	BENCH	14	16	n/a	n/a	pyFR	1	TJ050
2397.193	1.604	7115302	WORD	n/a	wordpools/wordpool_EN.txt	APE	15	16	n/a	n/a	pyFR	1	TJ050
2398.797	1.2	7118510	START	n/a	n/a	n/a	n/a	16	[-999 -999 -999]	-999	pyFR	1	TJ050
2399.997	2.823	7120910	PROB	n/a	n/a	n/a	n/a	16	[3 6 2]	11	pyFR	1	TJ050
2402.82	3.138	7126556	PROB	n/a	n/a	n/a	n/a	16	[5 9 6]	20	pyFR	1	TJ050
2405.958	2.27	7132831	PROB	n/a	n/a	n/a	n/a	16	[6 7 3]	16	pyFR	1	TJ050
2408.228	2.754	7137371	PROB	n/a	n/a	n/a	n/a	16	[8 6 6]	20	pyFR	1	TJ050
2410.982	3.005	7142879	PROB	n/a	n/a	n/a	n/a	16	[3 9 1]	13	pyFR	1	TJ050
2413.987	2.204	7148889	PROB	n/a	n/a	n/a	n/a	16	[1 8 7]	16	pyFR	1	TJ050
2416.191	1.954	7153297	PROB	n/a	n/a	n/a	n/a	16	[1 8 8]	17	pyFR	1	TJ050
2418.145	2.15	7157205	PROB	n/a	n/a	n/a	n/a	16	[4 5 7]	16	pyFR	1	TJ050
2420.295	1.224	7161504	STOP	n/a	n/a	n/a	n/a	16	[-999 -999 -999]	-999	pyFR	1	TJ050
2421.519	0.0	7163952	REC_START	n/a	n/a	n/a	-999	16	n/a	n/a	pyFR	1	TJ050
2421.519	1.792	7163952	REC_WORD_VV	1.792	n/a	<>	-999	16	n/a	n/a	pyFR	1	TJ050
2423.311	0.735	7167536	REC_WORD	0.735	n/a	BENCH	-999	16	n/a	n/a	pyFR	1	TJ050
2424.046	2.283	7169006	REC_WORD	2.283	n/a	APE	-999	16	n/a	n/a	pyFR	1	TJ050
2426.329	1.976	7173572	REC_WORD_VV	1.976	n/a	<>	-999	16	n/a	n/a	pyFR	1	TJ050
2428.305	1.0	7177524	REC_WORD_VV	1.0	n/a	<>	-999	16	n/a	n/a	pyFR	1	TJ050
2429.305	4.352	7179524	REC_WORD_VV	4.352	n/a	<>	-999	16	n/a	n/a	pyFR	1	TJ050
2433.657	3.407	7188227	REC_WORD	3.407	n/a	SHEET	-999	16	n/a	n/a	pyFR	1	TJ050
2437.064	3.257	7195041	REC_WORD_VV	3.257	n/a	<>	-999	16	n/a	n/a	pyFR	1	TJ050
2440.321	7.519	7201555	REC_WORD	7.519	n/a	PARK	-999	16	n/a	n/a	pyFR	1	TJ050
2447.84	1415.037	7216592	REC_WORD	1415.037	n/a	MOTH	-999	16	n/a	n/a	pyFR	1	TJ050
3862.877	0.099	10046561	SESS_END	n/a	n/a	n/a	-999	16	n/a	n/a	pyFR	1	TJ050
3862.976	0.0	10046759	E	n/a	n/a	n/a	-999	16	n/a	n/a	pyFR	1	TJ050
