onset	duration	sample	trial_type	response_time	stim_file	item_name	serialpos	list	test	answer	experiment	session	subject
0.0	0.0	665865	SESS_START	n/a	n/a	n/a	-999	-999	n/a	n/a	pyFR	0	TJ039
0.0	293.012	665865	B	n/a	n/a	n/a	-999	-999	n/a	n/a	pyFR	0	TJ039
293.012	0.021	958876	START	n/a	n/a	n/a	n/a	0	[-999 -999 -999]	-999	pyFR	0	TJ039
293.033	7.766	958897	PROB	n/a	n/a	n/a	n/a	0	[6 3 1]	10	pyFR	0	TJ039
300.799	3.407	966663	PROB	n/a	n/a	n/a	n/a	0	[3 1 6]	10	pyFR	0	TJ039
304.206	6.646	970070	PROB	n/a	n/a	n/a	n/a	0	[5 7 8]	20	pyFR	0	TJ039
310.852	7.148	976716	PROB	n/a	n/a	n/a	n/a	0	[4 8 7]	18	pyFR	0	TJ039
318.0	3.641	983864	PROB	n/a	n/a	n/a	n/a	0	[3 8 6]	17	pyFR	0	TJ039
321.641	2.73	987505	PROB	n/a	n/a	n/a	n/a	0	[7 1 8]	16	pyFR	0	TJ039
324.371	426.931	990235	STOP	n/a	n/a	n/a	n/a	0	[-999 -999 -999]	-999	pyFR	0	TJ039
751.302	0.016	1417163	TRIAL	n/a	n/a	n/a	-999	1	n/a	n/a	pyFR	0	TJ039
751.318	3.022	1417179	ORIENT	n/a	n/a	n/a	-999	1	n/a	n/a	pyFR	0	TJ039
754.34	2.606	1420201	WORD	n/a	wordpools/wordpool_EN.txt	KING	1	1	n/a	n/a	pyFR	0	TJ039
756.946	2.772	1422807	WORD	n/a	wordpools/wordpool_EN.txt	SLEEVE	2	1	n/a	n/a	pyFR	0	TJ039
759.718	2.638	1425579	WORD	n/a	wordpools/wordpool_EN.txt	PRINCE	3	1	n/a	n/a	pyFR	0	TJ039
762.356	2.455	1428217	WORD	n/a	wordpools/wordpool_EN.txt	VEST	4	1	n/a	n/a	pyFR	0	TJ039
764.811	2.639	1430672	WORD	n/a	wordpools/wordpool_EN.txt	ANT	5	1	n/a	n/a	pyFR	0	TJ039
767.45	2.622	1433311	WORD	n/a	wordpools/wordpool_EN.txt	HOUSE	6	1	n/a	n/a	pyFR	0	TJ039
770.072	2.555	1435933	WORD	n/a	wordpools/wordpool_EN.txt	TREE	7	1	n/a	n/a	pyFR	0	TJ039
772.627	2.772	1438488	WORD	n/a	wordpools/wordpool_EN.txt	VINE	8	1	n/a	n/a	pyFR	0	TJ039
775.399	2.739	1441260	WORD	n/a	wordpools/wordpool_EN.txt	TOOTH	9	1	n/a	n/a	pyFR	0	TJ039
778.138	2.455	1443999	WORD	n/a	wordpools/wordpool_EN.txt	SWAMP	10	1	n/a	n/a	pyFR	0	TJ039
780.593	2.505	1446454	WORD	n/a	wordpools/wordpool_EN.txt	SUN	11	1	n/a	n/a	pyFR	0	TJ039
783.098	2.471	1448959	WORD	n/a	wordpools/wordpool_EN.txt	SINK	12	1	n/a	n/a	pyFR	0	TJ039
785.569	2.539	1451430	WORD	n/a	wordpools/wordpool_EN.txt	STORM	13	1	n/a	n/a	pyFR	0	TJ039
788.108	2.638	1453969	WORD	n/a	wordpools/wordpool_EN.txt	DRUM	14	1	n/a	n/a	pyFR	0	TJ039
790.746	1.605	1456607	WORD	n/a	wordpools/wordpool_EN.txt	NET	15	1	n/a	n/a	pyFR	0	TJ039
792.351	1.068	1458212	START	n/a	n/a	n/a	n/a	1	[-999 -999 -999]	-999	pyFR	0	TJ039
793.419	9.986	1459280	PROB	n/a	n/a	n/a	n/a	1	[5 5 1]	11	pyFR	0	TJ039
803.405	4.776	1469266	PROB	n/a	n/a	n/a	n/a	1	[7 8 7]	22	pyFR	0	TJ039
808.181	7.319	1474042	PROB	n/a	n/a	n/a	n/a	1	[8 7 3]	18	pyFR	0	TJ039
815.5	1.216	1481361	STOP	n/a	n/a	n/a	n/a	1	[-999 -999 -999]	-999	pyFR	0	TJ039
816.716	1.625	1482577	REC_START	n/a	n/a	n/a	-999	1	n/a	n/a	pyFR	0	TJ039
818.341	1.0	1484202	REC_WORD_VV	1.0	n/a	<>	-999	1	n/a	n/a	pyFR	0	TJ039
819.341	1.0	1485202	REC_WORD_VV	1.0	n/a	<>	-999	1	n/a	n/a	pyFR	0	TJ039
820.341	1.0	1486202	REC_WORD_VV	1.0	n/a	<>	-999	1	n/a	n/a	pyFR	0	TJ039
821.341	1.0	1487202	REC_WORD_VV	1.0	n/a	<>	-999	1	n/a	n/a	pyFR	0	TJ039
822.341	1.0	1488202	REC_WORD_VV	1.0	n/a	<>	-999	1	n/a	n/a	pyFR	0	TJ039
823.341	1.0	1489202	REC_WORD_VV	1.0	n/a	<>	-999	1	n/a	n/a	pyFR	0	TJ039
824.341	1.0	1490202	REC_WORD_VV	1.0	n/a	<>	-999	1	n/a	n/a	pyFR	0	TJ039
825.341	2.717	1491202	REC_WORD_VV	2.717	n/a	<>	-999	1	n/a	n/a	pyFR	0	TJ039
828.058	1.97	1493919	REC_WORD	1.97	n/a	KING	-999	1	n/a	n/a	pyFR	0	TJ039
830.028	1.978	1495889	REC_WORD	1.978	n/a	SLEEVE	-999	1	n/a	n/a	pyFR	0	TJ039
832.006	2.459	1497867	REC_WORD	2.459	n/a	PRINCE	-999	1	n/a	n/a	pyFR	0	TJ039
834.465	0.64	1500326	REC_WORD_VV	0.64	n/a	<>	-999	1	n/a	n/a	pyFR	0	TJ039
835.105	2.339	1500966	REC_WORD	2.339	n/a	VINE	-999	1	n/a	n/a	pyFR	0	TJ039
837.444	2.524	1503305	REC_WORD	2.524	n/a	ANT	-999	1	n/a	n/a	pyFR	0	TJ039
839.968	0.561	1505829	REC_WORD_VV	0.561	n/a	<>	-999	1	n/a	n/a	pyFR	0	TJ039
840.529	2.877	1506390	REC_WORD	2.877	n/a	HOUSE	-999	1	n/a	n/a	pyFR	0	TJ039
843.406	0.987	1509267	REC_WORD_VV	0.987	n/a	<>	-999	1	n/a	n/a	pyFR	0	TJ039
844.393	2.53	1510254	REC_WORD	2.53	n/a	SWAMP	-999	1	n/a	n/a	pyFR	0	TJ039
846.923	1.0	1512784	REC_WORD_VV	1.0	n/a	<>	-999	1	n/a	n/a	pyFR	0	TJ039
847.923	1.0	1513784	REC_WORD_VV	1.0	n/a	<>	-999	1	n/a	n/a	pyFR	0	TJ039
848.923	1.0	1514784	REC_WORD_VV	1.0	n/a	<>	-999	1	n/a	n/a	pyFR	0	TJ039
849.923	1.0	1515783	REC_WORD_VV	1.0	n/a	<>	-999	1	n/a	n/a	pyFR	0	TJ039
850.923	1.0	1516783	REC_WORD_VV	1.0	n/a	<>	-999	1	n/a	n/a	pyFR	0	TJ039
851.923	1.0	1517783	REC_WORD_VV	1.0	n/a	<>	-999	1	n/a	n/a	pyFR	0	TJ039
852.923	1.0	1518783	REC_WORD_VV	1.0	n/a	<>	-999	1	n/a	n/a	pyFR	0	TJ039
853.923	2.0	1519783	REC_WORD_VV	2.0	n/a	<>	-999	1	n/a	n/a	pyFR	0	TJ039
855.923	2.353	1521783	REC_WORD_VV	2.353	n/a	<>	-999	1	n/a	n/a	pyFR	0	TJ039
858.276	1.65	1524136	REC_WORD_VV	1.65	n/a	<>	-999	1	n/a	n/a	pyFR	0	TJ039
859.926	944.718	1525786	REC_WORD_VV	944.718	n/a	<>	-999	1	n/a	n/a	pyFR	0	TJ039
1804.644	0.016	2470499	TRIAL	n/a	n/a	n/a	-999	2	n/a	n/a	pyFR	0	TJ039
1804.66	2.622	2470515	ORIENT	n/a	n/a	n/a	-999	2	n/a	n/a	pyFR	0	TJ039
1807.282	2.572	2473137	WORD	n/a	wordpools/wordpool_EN.txt	BOAT	1	2	n/a	n/a	pyFR	0	TJ039
1809.854	2.672	2475709	WORD	n/a	wordpools/wordpool_EN.txt	OAK	2	2	n/a	n/a	pyFR	0	TJ039
1812.526	2.571	2478381	WORD	n/a	wordpools/wordpool_EN.txt	TRAY	3	2	n/a	n/a	pyFR	0	TJ039
1815.097	2.689	2480952	WORD	n/a	wordpools/wordpool_EN.txt	PIT	4	2	n/a	n/a	pyFR	0	TJ039
1817.786	2.639	2483641	WORD	n/a	wordpools/wordpool_EN.txt	SLUSH	5	2	n/a	n/a	pyFR	0	TJ039
1820.425	2.604	2486280	WORD	n/a	wordpools/wordpool_EN.txt	RUG	6	2	n/a	n/a	pyFR	0	TJ039
1823.029	2.673	2488884	WORD	n/a	wordpools/wordpool_EN.txt	FLAME	7	2	n/a	n/a	pyFR	0	TJ039
1825.702	2.605	2491557	WORD	n/a	wordpools/wordpool_EN.txt	SMILE	8	2	n/a	n/a	pyFR	0	TJ039
1828.307	2.655	2494162	WORD	n/a	wordpools/wordpool_EN.txt	BEACH	9	2	n/a	n/a	pyFR	0	TJ039
1830.962	2.455	2496817	WORD	n/a	wordpools/wordpool_EN.txt	RIB	10	2	n/a	n/a	pyFR	0	TJ039
1833.417	2.572	2499272	WORD	n/a	wordpools/wordpool_EN.txt	GLASS	11	2	n/a	n/a	pyFR	0	TJ039
1835.989	2.572	2501844	WORD	n/a	wordpools/wordpool_EN.txt	LAND	12	2	n/a	n/a	pyFR	0	TJ039
1838.561	2.739	2504416	WORD	n/a	wordpools/wordpool_EN.txt	STORE	13	2	n/a	n/a	pyFR	0	TJ039
1841.3	2.721	2507155	WORD	n/a	wordpools/wordpool_EN.txt	DAD	14	2	n/a	n/a	pyFR	0	TJ039
1844.021	1.605	2509876	WORD	n/a	wordpools/wordpool_EN.txt	DOLL	15	2	n/a	n/a	pyFR	0	TJ039
1845.626	0.951	2511481	START	n/a	n/a	n/a	n/a	2	[-999 -999 -999]	-999	pyFR	0	TJ039
1846.577	7.799	2512432	PROB	n/a	n/a	n/a	n/a	2	[2 5 4]	11	pyFR	0	TJ039
1854.376	2.622	2520231	PROB	n/a	n/a	n/a	n/a	2	[3 7 4]	14	pyFR	0	TJ039
1856.998	2.271	2522853	PROB	n/a	n/a	n/a	n/a	2	[3 3 5]	11	pyFR	0	TJ039
1859.269	2.238	2525124	PROB	n/a	n/a	n/a	n/a	2	[6 6 6]	18	pyFR	0	TJ039
1861.507	2.689	2527362	PROB	n/a	n/a	n/a	n/a	2	[6 2 7]	15	pyFR	0	TJ039
1864.196	1.981	2530051	PROB	n/a	n/a	n/a	n/a	2	[7 3 1]	11	pyFR	0	TJ039
1866.177	1.142	2532032	STOP	n/a	n/a	n/a	n/a	2	[-999 -999 -999]	-999	pyFR	0	TJ039
1867.319	2.623	2533174	REC_START	n/a	n/a	n/a	-999	2	n/a	n/a	pyFR	0	TJ039
1869.942	1.0	2535797	REC_WORD_VV	1.0	n/a	<>	-999	2	n/a	n/a	pyFR	0	TJ039
1870.942	1.0	2536797	REC_WORD_VV	1.0	n/a	<>	-999	2	n/a	n/a	pyFR	0	TJ039
1871.942	1.0	2537797	REC_WORD_VV	1.0	n/a	<>	-999	2	n/a	n/a	pyFR	0	TJ039
1872.942	2.683	2538797	REC_WORD_VV	2.683	n/a	<>	-999	2	n/a	n/a	pyFR	0	TJ039
1875.625	0.469	2541480	REC_WORD_VV	0.469	n/a	<>	-999	2	n/a	n/a	pyFR	0	TJ039
1876.094	2.059	2541949	REC_WORD	2.059	n/a	BOAT	-999	2	n/a	n/a	pyFR	0	TJ039
1878.153	0.232	2544008	REC_WORD_VV	0.232	n/a	<>	-999	2	n/a	n/a	pyFR	0	TJ039
1878.385	1.668	2544240	REC_WORD	1.668	n/a	BEACH	-999	2	n/a	n/a	pyFR	0	TJ039
1880.053	0.378	2545907	REC_WORD_VV	0.378	n/a	<>	-999	2	n/a	n/a	pyFR	0	TJ039
1880.431	2.682	2546285	REC_WORD	2.682	n/a	OAK	-999	2	n/a	n/a	pyFR	0	TJ039
1883.113	0.34	2548967	REC_WORD_VV	0.34	n/a	<>	-999	2	n/a	n/a	pyFR	0	TJ039
1883.453	2.204	2549307	REC_WORD	2.204	n/a	STORE	-999	2	n/a	n/a	pyFR	0	TJ039
1885.657	2.541	2551511	REC_WORD_VV	2.541	n/a	<>	-999	2	n/a	n/a	pyFR	0	TJ039
1888.198	1.961	2554052	REC_WORD	1.961	n/a	FLAME	-999	2	n/a	n/a	pyFR	0	TJ039
1890.159	0.978	2556013	REC_WORD	0.978	n/a	DOLL	-999	2	n/a	n/a	pyFR	0	TJ039
1891.137	2.801	2556991	REC_WORD	2.801	n/a	SMILE	-999	2	n/a	n/a	pyFR	0	TJ039
1893.938	7.522	2559792	REC_WORD_VV	7.522	n/a	<>	-999	2	n/a	n/a	pyFR	0	TJ039
1901.46	1.0	2567314	REC_WORD_VV	1.0	n/a	<>	-999	2	n/a	n/a	pyFR	0	TJ039
1902.46	1.0	2568314	REC_WORD_VV	1.0	n/a	<>	-999	2	n/a	n/a	pyFR	0	TJ039
1903.46	3.908	2569314	REC_WORD_VV	3.908	n/a	<>	-999	2	n/a	n/a	pyFR	0	TJ039
1907.368	1.0	2573222	REC_WORD_VV	1.0	n/a	<>	-999	2	n/a	n/a	pyFR	0	TJ039
1908.368	1.0	2574222	REC_WORD_VV	1.0	n/a	<>	-999	2	n/a	n/a	pyFR	0	TJ039
1909.368	1.0	2575222	REC_WORD_VV	1.0	n/a	<>	-999	2	n/a	n/a	pyFR	0	TJ039
1910.368	1.0	2576222	REC_WORD_VV	1.0	n/a	<>	-999	2	n/a	n/a	pyFR	0	TJ039
1911.368	181.169	2577222	REC_WORD_VV	181.169	n/a	<>	-999	2	n/a	n/a	pyFR	0	TJ039
2092.537	0.016	2758390	TRIAL	n/a	n/a	n/a	-999	3	n/a	n/a	pyFR	0	TJ039
2092.553	3.006	2758406	ORIENT	n/a	n/a	n/a	-999	3	n/a	n/a	pyFR	0	TJ039
2095.559	2.638	2761412	WORD	n/a	wordpools/wordpool_EN.txt	TOOL	1	3	n/a	n/a	pyFR	0	TJ039
2098.197	2.806	2764050	WORD	n/a	wordpools/wordpool_EN.txt	FILM	2	3	n/a	n/a	pyFR	0	TJ039
2101.003	2.438	2766856	WORD	n/a	wordpools/wordpool_EN.txt	MOOSE	3	3	n/a	n/a	pyFR	0	TJ039
2103.441	2.472	2769294	WORD	n/a	wordpools/wordpool_EN.txt	PEN	4	3	n/a	n/a	pyFR	0	TJ039
2105.913	2.655	2771766	WORD	n/a	wordpools/wordpool_EN.txt	CANE	5	3	n/a	n/a	pyFR	0	TJ039
2108.568	2.555	2774421	WORD	n/a	wordpools/wordpool_EN.txt	POND	6	3	n/a	n/a	pyFR	0	TJ039
2111.123	2.505	2776976	WORD	n/a	wordpools/wordpool_EN.txt	NOSE	7	3	n/a	n/a	pyFR	0	TJ039
2113.628	2.706	2779481	WORD	n/a	wordpools/wordpool_EN.txt	SHEEP	8	3	n/a	n/a	pyFR	0	TJ039
2116.334	2.722	2782187	WORD	n/a	wordpools/wordpool_EN.txt	ZOO	9	3	n/a	n/a	pyFR	0	TJ039
2119.056	2.538	2784909	WORD	n/a	wordpools/wordpool_EN.txt	GIRL	10	3	n/a	n/a	pyFR	0	TJ039
2121.594	2.489	2787447	WORD	n/a	wordpools/wordpool_EN.txt	TEA	11	3	n/a	n/a	pyFR	0	TJ039
2124.083	2.839	2789936	WORD	n/a	wordpools/wordpool_EN.txt	FISH	12	3	n/a	n/a	pyFR	0	TJ039
2126.922	2.605	2792775	WORD	n/a	wordpools/wordpool_EN.txt	POLE	13	3	n/a	n/a	pyFR	0	TJ039
2129.527	2.755	2795380	WORD	n/a	wordpools/wordpool_EN.txt	GOLD	14	3	n/a	n/a	pyFR	0	TJ039
2132.282	1.605	2798135	WORD	n/a	wordpools/wordpool_EN.txt	HAT	15	3	n/a	n/a	pyFR	0	TJ039
2133.887	1.101	2799740	START	n/a	n/a	n/a	n/a	3	[-999 -999 -999]	-999	pyFR	0	TJ039
2134.988	4.242	2800841	PROB	n/a	n/a	n/a	n/a	3	[4 1 2]	7	pyFR	0	TJ039
2139.23	3.173	2805083	PROB	n/a	n/a	n/a	n/a	3	[2 2 3]	7	pyFR	0	TJ039
2142.403	2.839	2808256	PROB	n/a	n/a	n/a	n/a	3	[4 2 2]	8	pyFR	0	TJ039
2145.242	5.644	2811095	PROB	n/a	n/a	n/a	n/a	3	[4 7 2]	13	pyFR	0	TJ039
2150.886	3.026	2816739	PROB	n/a	n/a	n/a	n/a	3	[8 6 6]	20	pyFR	0	TJ039
2153.912	1.2	2819765	STOP	n/a	n/a	n/a	n/a	3	[-999 -999 -999]	-999	pyFR	0	TJ039
2155.112	0.557	2820965	REC_START	n/a	n/a	n/a	-999	3	n/a	n/a	pyFR	0	TJ039
2155.669	1.0	2821522	REC_WORD_VV	1.0	n/a	<>	-999	3	n/a	n/a	pyFR	0	TJ039
2156.669	2.17	2822522	REC_WORD_VV	2.17	n/a	<>	-999	3	n/a	n/a	pyFR	0	TJ039
2158.839	1.0	2824692	REC_WORD_VV	1.0	n/a	<>	-999	3	n/a	n/a	pyFR	0	TJ039
2159.839	1.0	2825692	REC_WORD_VV	1.0	n/a	<>	-999	3	n/a	n/a	pyFR	0	TJ039
2160.839	1.0	2826692	REC_WORD_VV	1.0	n/a	<>	-999	3	n/a	n/a	pyFR	0	TJ039
2161.839	2.973	2827692	REC_WORD_VV	2.973	n/a	<>	-999	3	n/a	n/a	pyFR	0	TJ039
2164.812	1.0	2830665	REC_WORD_VV	1.0	n/a	<>	-999	3	n/a	n/a	pyFR	0	TJ039
2165.812	0.745	2831665	REC_WORD_VV	0.745	n/a	<>	-999	3	n/a	n/a	pyFR	0	TJ039
2166.557	1.0	2832410	REC_WORD	1.0	n/a	TOOL	-999	3	n/a	n/a	pyFR	0	TJ039
2167.557	1.0	2833410	REC_WORD_VV	1.0	n/a	<>	-999	3	n/a	n/a	pyFR	0	TJ039
2168.557	3.455	2834410	REC_WORD_VV	3.455	n/a	<>	-999	3	n/a	n/a	pyFR	0	TJ039
2172.012	1.0	2837865	REC_WORD	1.0	n/a	FILM	-999	3	n/a	n/a	pyFR	0	TJ039
2173.012	1.0	2838865	REC_WORD_VV	1.0	n/a	<>	-999	3	n/a	n/a	pyFR	0	TJ039
2174.012	1.0	2839865	REC_WORD_VV	1.0	n/a	<>	-999	3	n/a	n/a	pyFR	0	TJ039
2175.012	1.0	2840865	REC_WORD_VV	1.0	n/a	<>	-999	3	n/a	n/a	pyFR	0	TJ039
2176.012	1.0	2841865	REC_WORD_VV	1.0	n/a	<>	-999	3	n/a	n/a	pyFR	0	TJ039
2177.012	1.0	2842865	REC_WORD_VV	1.0	n/a	<>	-999	3	n/a	n/a	pyFR	0	TJ039
2178.012	1.0	2843865	REC_WORD_VV	1.0	n/a	<>	-999	3	n/a	n/a	pyFR	0	TJ039
2179.012	1.0	2844865	REC_WORD_VV	1.0	n/a	<>	-999	3	n/a	n/a	pyFR	0	TJ039
2180.012	1.0	2845865	REC_WORD_VV	1.0	n/a	<>	-999	3	n/a	n/a	pyFR	0	TJ039
2181.012	3.613	2846865	REC_WORD_VV	3.613	n/a	<>	-999	3	n/a	n/a	pyFR	0	TJ039
2184.625	1.144	2850478	REC_WORD	1.144	n/a	FILM	-999	3	n/a	n/a	pyFR	0	TJ039
2185.769	2.265	2851622	REC_WORD	2.265	n/a	TOOL	-999	3	n/a	n/a	pyFR	0	TJ039
2188.034	1.0	2853887	REC_WORD	1.0	n/a	BOOK	-999	3	n/a	n/a	pyFR	0	TJ039
2189.034	1.509	2854887	REC_WORD_VV	1.509	n/a	<>	-999	3	n/a	n/a	pyFR	0	TJ039
2190.543	1.805	2856396	REC_WORD_VV	1.805	n/a	<>	-999	3	n/a	n/a	pyFR	0	TJ039
2192.348	0.11	2858201	REC_WORD_VV	0.11	n/a	<>	-999	3	n/a	n/a	pyFR	0	TJ039
2192.458	1.7	2858311	REC_WORD	1.7	n/a	MOOSE	-999	3	n/a	n/a	pyFR	0	TJ039
2194.158	1.0	2860011	REC_WORD_VV	1.0	n/a	<>	-999	3	n/a	n/a	pyFR	0	TJ039
2195.158	1.0	2861011	REC_WORD_VV	1.0	n/a	<>	-999	3	n/a	n/a	pyFR	0	TJ039
2196.158	1.96	2862011	REC_WORD_VV	1.96	n/a	<>	-999	3	n/a	n/a	pyFR	0	TJ039
2198.118	404.54	2863971	REC_WORD_VV	404.54	n/a	<>	-999	3	n/a	n/a	pyFR	0	TJ039
2602.658	0.016	3268508	TRIAL	n/a	n/a	n/a	-999	4	n/a	n/a	pyFR	0	TJ039
2602.674	2.94	3268524	ORIENT	n/a	n/a	n/a	-999	4	n/a	n/a	pyFR	0	TJ039
2605.614	2.571	3271464	WORD	n/a	wordpools/wordpool_EN.txt	ROAD	1	4	n/a	n/a	pyFR	0	TJ039
2608.185	2.589	3274035	WORD	n/a	wordpools/wordpool_EN.txt	BOOT	2	4	n/a	n/a	pyFR	0	TJ039
2610.774	2.755	3276624	WORD	n/a	wordpools/wordpool_EN.txt	ARM	3	4	n/a	n/a	pyFR	0	TJ039
2613.529	2.539	3279379	WORD	n/a	wordpools/wordpool_EN.txt	CLOTH	4	4	n/a	n/a	pyFR	0	TJ039
2616.068	2.605	3281918	WORD	n/a	wordpools/wordpool_EN.txt	SAIL	5	4	n/a	n/a	pyFR	0	TJ039
2618.673	2.755	3284523	WORD	n/a	wordpools/wordpool_EN.txt	BRUSH	6	4	n/a	n/a	pyFR	0	TJ039
2621.428	2.522	3287278	WORD	n/a	wordpools/wordpool_EN.txt	DOOR	7	4	n/a	n/a	pyFR	0	TJ039
2623.95	2.472	3289800	WORD	n/a	wordpools/wordpool_EN.txt	GOAT	8	4	n/a	n/a	pyFR	0	TJ039
2626.422	2.622	3292272	WORD	n/a	wordpools/wordpool_EN.txt	BAND	9	4	n/a	n/a	pyFR	0	TJ039
2629.044	2.488	3294894	WORD	n/a	wordpools/wordpool_EN.txt	WHALE	10	4	n/a	n/a	pyFR	0	TJ039
2631.532	2.455	3297382	WORD	n/a	wordpools/wordpool_EN.txt	RAIN	11	4	n/a	n/a	pyFR	0	TJ039
2633.987	2.572	3299837	WORD	n/a	wordpools/wordpool_EN.txt	SHOE	12	4	n/a	n/a	pyFR	0	TJ039
2636.559	2.622	3302409	WORD	n/a	wordpools/wordpool_EN.txt	SOAP	13	4	n/a	n/a	pyFR	0	TJ039
2639.181	2.822	3305031	WORD	n/a	wordpools/wordpool_EN.txt	STREET	14	4	n/a	n/a	pyFR	0	TJ039
2642.003	1.621	3307853	WORD	n/a	wordpools/wordpool_EN.txt	HOLE	15	4	n/a	n/a	pyFR	0	TJ039
2643.624	0.951	3309474	START	n/a	n/a	n/a	n/a	4	[-999 -999 -999]	-999	pyFR	0	TJ039
2644.575	4.592	3310425	PROB	n/a	n/a	n/a	n/a	4	[1 9 4]	14	pyFR	0	TJ039
2649.167	4.576	3315017	PROB	n/a	n/a	n/a	n/a	4	[6 9 5]	20	pyFR	0	TJ039
2653.743	3.156	3319593	PROB	n/a	n/a	n/a	n/a	4	[6 9 8]	23	pyFR	0	TJ039
2656.899	2.405	3322749	PROB	n/a	n/a	n/a	n/a	4	[5 7 7]	19	pyFR	0	TJ039
2659.304	2.372	3325154	PROB	n/a	n/a	n/a	n/a	4	[6 7 1]	14	pyFR	0	TJ039
2661.676	2.668	3327526	PROB	n/a	n/a	n/a	n/a	4	[1 3 4]	8	pyFR	0	TJ039
2664.344	1.173	3330194	STOP	n/a	n/a	n/a	n/a	4	[-999 -999 -999]	-999	pyFR	0	TJ039
2665.517	4.494	3331367	REC_START	n/a	n/a	n/a	-999	4	n/a	n/a	pyFR	0	TJ039
2670.011	3.317	3335861	REC_WORD_VV	3.317	n/a	<>	-999	4	n/a	n/a	pyFR	0	TJ039
2673.328	1.688	3339178	REC_WORD_VV	1.688	n/a	<>	-999	4	n/a	n/a	pyFR	0	TJ039
2675.016	2.433	3340866	REC_WORD	2.433	n/a	ROAD	-999	4	n/a	n/a	pyFR	0	TJ039
2677.449	2.544	3343299	REC_WORD_VV	2.544	n/a	<>	-999	4	n/a	n/a	pyFR	0	TJ039
2679.993	1.757	3345843	REC_WORD	1.757	n/a	ARM	-999	4	n/a	n/a	pyFR	0	TJ039
2681.75	2.415	3347600	REC_WORD	2.415	n/a	BOOT	-999	4	n/a	n/a	pyFR	0	TJ039
2684.165	4.678	3350015	REC_WORD_VV	4.678	n/a	<>	-999	4	n/a	n/a	pyFR	0	TJ039
2688.843	0.438	3354693	REC_WORD_VV	0.438	n/a	<>	-999	4	n/a	n/a	pyFR	0	TJ039
2689.281	1.619	3355131	REC_WORD	1.619	n/a	BAND	-999	4	n/a	n/a	pyFR	0	TJ039
2690.9	1.31	3356750	REC_WORD	1.31	n/a	WHALE	-999	4	n/a	n/a	pyFR	0	TJ039
2692.21	3.3	3358060	REC_WORD	3.3	n/a	RAIN	-999	4	n/a	n/a	pyFR	0	TJ039
2695.51	1.393	3361360	REC_WORD_VV	1.393	n/a	<>	-999	4	n/a	n/a	pyFR	0	TJ039
2696.903	8.431	3362753	REC_WORD_VV	8.431	n/a	<>	-999	4	n/a	n/a	pyFR	0	TJ039
2705.334	152.201	3371184	REC_WORD_VV	152.201	n/a	<>	-999	4	n/a	n/a	pyFR	0	TJ039
2857.535	0.016	3523384	TRIAL	n/a	n/a	n/a	-999	5	n/a	n/a	pyFR	0	TJ039
2857.551	2.94	3523400	ORIENT	n/a	n/a	n/a	-999	5	n/a	n/a	pyFR	0	TJ039
2860.491	2.571	3526340	WORD	n/a	wordpools/wordpool_EN.txt	PHONE	1	5	n/a	n/a	pyFR	0	TJ039
2863.062	2.439	3528911	WORD	n/a	wordpools/wordpool_EN.txt	STRING	2	5	n/a	n/a	pyFR	0	TJ039
2865.501	2.822	3531350	WORD	n/a	wordpools/wordpool_EN.txt	WHEEL	3	5	n/a	n/a	pyFR	0	TJ039
2868.323	2.755	3534172	WORD	n/a	wordpools/wordpool_EN.txt	FACE	4	5	n/a	n/a	pyFR	0	TJ039
2871.078	2.455	3536927	WORD	n/a	wordpools/wordpool_EN.txt	GEESE	5	5	n/a	n/a	pyFR	0	TJ039
2873.533	2.505	3539382	WORD	n/a	wordpools/wordpool_EN.txt	JUDGE	6	5	n/a	n/a	pyFR	0	TJ039
2876.038	2.589	3541887	WORD	n/a	wordpools/wordpool_EN.txt	CLAY	7	5	n/a	n/a	pyFR	0	TJ039
2878.627	2.455	3544476	WORD	n/a	wordpools/wordpool_EN.txt	BLUSH	8	5	n/a	n/a	pyFR	0	TJ039
2881.082	2.655	3546931	WORD	n/a	wordpools/wordpool_EN.txt	FAN	9	5	n/a	n/a	pyFR	0	TJ039
2883.737	2.705	3549586	WORD	n/a	wordpools/wordpool_EN.txt	WING	10	5	n/a	n/a	pyFR	0	TJ039
2886.442	2.588	3552291	WORD	n/a	wordpools/wordpool_EN.txt	FOOT	11	5	n/a	n/a	pyFR	0	TJ039
2889.03	2.523	3554879	WORD	n/a	wordpools/wordpool_EN.txt	LIP	12	5	n/a	n/a	pyFR	0	TJ039
2891.553	2.47	3557402	WORD	n/a	wordpools/wordpool_EN.txt	FLAG	13	5	n/a	n/a	pyFR	0	TJ039
2894.023	2.807	3559872	WORD	n/a	wordpools/wordpool_EN.txt	PURSE	14	5	n/a	n/a	pyFR	0	TJ039
2896.83	1.605	3562679	WORD	n/a	wordpools/wordpool_EN.txt	SNOW	15	5	n/a	n/a	pyFR	0	TJ039
2898.435	1.184	3564284	START	n/a	n/a	n/a	n/a	5	[-999 -999 -999]	-999	pyFR	0	TJ039
2899.619	5.477	3565468	PROB	n/a	n/a	n/a	n/a	5	[8 8 3]	19	pyFR	0	TJ039
2905.096	5.261	3570945	PROB	n/a	n/a	n/a	n/a	5	[8 9 5]	22	pyFR	0	TJ039
2910.357	2.705	3576205	PROB	n/a	n/a	n/a	n/a	5	[7 1 6]	14	pyFR	0	TJ039
2913.062	3.957	3578910	PROB	n/a	n/a	n/a	n/a	5	[9 8 7]	24	pyFR	0	TJ039
2917.019	5.044	3582867	PROB	n/a	n/a	n/a	n/a	5	[9 5 7]	21	pyFR	0	TJ039
2922.063	1.087	3587911	STOP	n/a	n/a	n/a	n/a	5	[-999 -999 -999]	-999	pyFR	0	TJ039
2923.15	6.094	3588998	REC_START	n/a	n/a	n/a	-999	5	n/a	n/a	pyFR	0	TJ039
2929.244	2.112	3595092	REC_WORD	2.112	n/a	WING	-999	5	n/a	n/a	pyFR	0	TJ039
2931.356	2.066	3597204	REC_WORD_VV	2.066	n/a	<>	-999	5	n/a	n/a	pyFR	0	TJ039
2933.422	2.202	3599270	REC_WORD	2.202	n/a	FOOT	-999	5	n/a	n/a	pyFR	0	TJ039
2935.624	1.575	3601472	REC_WORD	1.575	n/a	LIP	-999	5	n/a	n/a	pyFR	0	TJ039
2937.199	1.551	3603047	REC_WORD	1.551	n/a	BUSH	-999	5	n/a	n/a	pyFR	0	TJ039
2938.75	0.645	3604598	REC_WORD_VV	0.645	n/a	<>	-999	5	n/a	n/a	pyFR	0	TJ039
2939.395	4.501	3605243	REC_WORD	4.501	n/a	PURSE	-999	5	n/a	n/a	pyFR	0	TJ039
2943.896	3.089	3609744	REC_WORD_VV	3.089	n/a	<>	-999	5	n/a	n/a	pyFR	0	TJ039
2946.985	3.954	3612833	REC_WORD_VV	3.954	n/a	<>	-999	5	n/a	n/a	pyFR	0	TJ039
2950.939	1.829	3616787	REC_WORD_VV	1.829	n/a	<>	-999	5	n/a	n/a	pyFR	0	TJ039
2952.768	6.792	3618616	REC_WORD_VV	6.792	n/a	<>	-999	5	n/a	n/a	pyFR	0	TJ039
2959.56	3.808	3625408	REC_WORD	3.808	n/a	WHEEL	-999	5	n/a	n/a	pyFR	0	TJ039
2963.368	109.782	3629216	REC_WORD_VV	109.782	n/a	<>	-999	5	n/a	n/a	pyFR	0	TJ039
3073.15	0.016	3738998	TRIAL	n/a	n/a	n/a	-999	6	n/a	n/a	pyFR	0	TJ039
3073.166	2.855	3739014	ORIENT	n/a	n/a	n/a	-999	6	n/a	n/a	pyFR	0	TJ039
3076.021	2.707	3741869	WORD	n/a	wordpools/wordpool_EN.txt	WORLD	1	6	n/a	n/a	pyFR	0	TJ039
3078.728	2.772	3744576	WORD	n/a	wordpools/wordpool_EN.txt	CLOWN	2	6	n/a	n/a	pyFR	0	TJ039
3081.5	2.789	3747347	WORD	n/a	wordpools/wordpool_EN.txt	HOSE	3	6	n/a	n/a	pyFR	0	TJ039
3084.289	2.571	3750136	WORD	n/a	wordpools/wordpool_EN.txt	BREAD	4	6	n/a	n/a	pyFR	0	TJ039
3086.86	2.722	3752707	WORD	n/a	wordpools/wordpool_EN.txt	STEM	5	6	n/a	n/a	pyFR	0	TJ039
3089.582	2.689	3755429	WORD	n/a	wordpools/wordpool_EN.txt	FROG	6	6	n/a	n/a	pyFR	0	TJ039
3092.271	2.755	3758118	WORD	n/a	wordpools/wordpool_EN.txt	MUD	7	6	n/a	n/a	pyFR	0	TJ039
3095.026	2.69	3760873	WORD	n/a	wordpools/wordpool_EN.txt	CLOUD	8	6	n/a	n/a	pyFR	0	TJ039
3097.716	2.655	3763563	WORD	n/a	wordpools/wordpool_EN.txt	PASTE	9	6	n/a	n/a	pyFR	0	TJ039
3100.371	2.588	3766218	WORD	n/a	wordpools/wordpool_EN.txt	BRIDGE	10	6	n/a	n/a	pyFR	0	TJ039
3102.959	2.606	3768806	WORD	n/a	wordpools/wordpool_EN.txt	YARD	11	6	n/a	n/a	pyFR	0	TJ039
3105.565	2.421	3771412	WORD	n/a	wordpools/wordpool_EN.txt	BOOK	12	6	n/a	n/a	pyFR	0	TJ039
3107.986	2.822	3773833	WORD	n/a	wordpools/wordpool_EN.txt	BENCH	13	6	n/a	n/a	pyFR	0	TJ039
3110.808	2.606	3776655	WORD	n/a	wordpools/wordpool_EN.txt	JEEP	14	6	n/a	n/a	pyFR	0	TJ039
3113.414	1.621	3779261	WORD	n/a	wordpools/wordpool_EN.txt	SKUNK	15	6	n/a	n/a	pyFR	0	TJ039
3115.035	0.9	3780882	START	n/a	n/a	n/a	n/a	6	[-999 -999 -999]	-999	pyFR	0	TJ039
3115.935	4.793	3781782	PROB	n/a	n/a	n/a	n/a	6	[2 4 4]	10	pyFR	0	TJ039
3120.728	4.66	3786575	PROB	n/a	n/a	n/a	n/a	6	[9 5 4]	18	pyFR	0	TJ039
3125.388	2.338	3791235	PROB	n/a	n/a	n/a	n/a	6	[4 5 8]	17	pyFR	0	TJ039
3127.726	2.037	3793573	PROB	n/a	n/a	n/a	n/a	6	[2 8 1]	11	pyFR	0	TJ039
3129.763	4.409	3795610	PROB	n/a	n/a	n/a	n/a	6	[6 7 1]	14	pyFR	0	TJ039
3134.172	9.5	3800019	PROB	n/a	n/a	n/a	n/a	6	[9 6 9]	24	pyFR	0	TJ039
3143.672	1.205	3809519	STOP	n/a	n/a	n/a	n/a	6	[-999 -999 -999]	-999	pyFR	0	TJ039
3144.877	6.186	3810724	REC_START	n/a	n/a	n/a	-999	6	n/a	n/a	pyFR	0	TJ039
3151.063	1.383	3816910	REC_WORD	1.383	n/a	WORLD	-999	6	n/a	n/a	pyFR	0	TJ039
3152.446	1.595	3818293	REC_WORD	1.595	n/a	CLOWN	-999	6	n/a	n/a	pyFR	0	TJ039
3154.041	1.926	3819888	REC_WORD	1.926	n/a	CLOUD	-999	6	n/a	n/a	pyFR	0	TJ039
3155.967	0.818	3821814	REC_WORD	0.818	n/a	FROG	-999	6	n/a	n/a	pyFR	0	TJ039
3156.785	2.295	3822632	REC_WORD	2.295	n/a	SKUNK	-999	6	n/a	n/a	pyFR	0	TJ039
3159.08	2.244	3824927	REC_WORD_VV	2.244	n/a	<>	-999	6	n/a	n/a	pyFR	0	TJ039
3161.324	1.604	3827171	REC_WORD_VV	1.604	n/a	<>	-999	6	n/a	n/a	pyFR	0	TJ039
3162.928	6.363	3828775	REC_WORD_VV	6.363	n/a	<>	-999	6	n/a	n/a	pyFR	0	TJ039
3169.291	2.601	3835138	REC_WORD	2.601	n/a	BOOK	-999	6	n/a	n/a	pyFR	0	TJ039
3171.892	6.663	3837739	REC_WORD_VV	6.663	n/a	<>	-999	6	n/a	n/a	pyFR	0	TJ039
3178.555	1.0	3844402	REC_WORD_VV	1.0	n/a	<>	-999	6	n/a	n/a	pyFR	0	TJ039
3179.555	6.409	3845402	REC_WORD_VV	6.409	n/a	<>	-999	6	n/a	n/a	pyFR	0	TJ039
3185.964	1.0	3851811	REC_WORD_VV	1.0	n/a	<>	-999	6	n/a	n/a	pyFR	0	TJ039
3186.964	210.753	3852811	REC_WORD_VV	210.753	n/a	<>	-999	6	n/a	n/a	pyFR	0	TJ039
3397.717	0.016	4063563	TRIAL	n/a	n/a	n/a	-999	7	n/a	n/a	pyFR	0	TJ039
3397.733	2.672	4063579	ORIENT	n/a	n/a	n/a	-999	7	n/a	n/a	pyFR	0	TJ039
3400.405	2.672	4066251	WORD	n/a	wordpools/wordpool_EN.txt	TRASH	1	7	n/a	n/a	pyFR	0	TJ039
3403.077	2.438	4068923	WORD	n/a	wordpools/wordpool_EN.txt	DITCH	2	7	n/a	n/a	pyFR	0	TJ039
3405.515	2.455	4071361	WORD	n/a	wordpools/wordpool_EN.txt	CHEEK	3	7	n/a	n/a	pyFR	0	TJ039
3407.97	2.739	4073816	WORD	n/a	wordpools/wordpool_EN.txt	DART	4	7	n/a	n/a	pyFR	0	TJ039
3410.709	2.638	4076555	WORD	n/a	wordpools/wordpool_EN.txt	MOUTH	5	7	n/a	n/a	pyFR	0	TJ039
3413.347	2.739	4079193	WORD	n/a	wordpools/wordpool_EN.txt	BEAK	6	7	n/a	n/a	pyFR	0	TJ039
3416.086	2.806	4081932	WORD	n/a	wordpools/wordpool_EN.txt	PLANE	7	7	n/a	n/a	pyFR	0	TJ039
3418.892	2.538	4084738	WORD	n/a	wordpools/wordpool_EN.txt	JAR	8	7	n/a	n/a	pyFR	0	TJ039
3421.43	2.606	4087276	WORD	n/a	wordpools/wordpool_EN.txt	MAP	9	7	n/a	n/a	pyFR	0	TJ039
3424.036	2.454	4089881	WORD	n/a	wordpools/wordpool_EN.txt	SIGN	10	7	n/a	n/a	pyFR	0	TJ039
3426.49	2.489	4092335	WORD	n/a	wordpools/wordpool_EN.txt	BARN	11	7	n/a	n/a	pyFR	0	TJ039
3428.979	2.805	4094824	WORD	n/a	wordpools/wordpool_EN.txt	DOG	12	7	n/a	n/a	pyFR	0	TJ039
3431.784	2.539	4097629	WORD	n/a	wordpools/wordpool_EN.txt	TEETH	13	7	n/a	n/a	pyFR	0	TJ039
3434.323	2.538	4100168	WORD	n/a	wordpools/wordpool_EN.txt	CAT	14	7	n/a	n/a	pyFR	0	TJ039
3436.861	1.605	4102706	WORD	n/a	wordpools/wordpool_EN.txt	PIE	15	7	n/a	n/a	pyFR	0	TJ039
3438.466	1.151	4104311	START	n/a	n/a	n/a	n/a	7	[-999 -999 -999]	-999	pyFR	0	TJ039
3439.617	5.444	4105462	PROB	n/a	n/a	n/a	n/a	7	[9 6 8]	23	pyFR	0	TJ039
3445.061	5.327	4110906	PROB	n/a	n/a	n/a	n/a	7	[3 1 3]	7	pyFR	0	TJ039
3450.388	3.808	4116233	PROB	n/a	n/a	n/a	n/a	7	[7 6 3]	16	pyFR	0	TJ039
3454.196	2.588	4120041	PROB	n/a	n/a	n/a	n/a	7	[6 5 5]	16	pyFR	0	TJ039
3456.784	4.245	4122629	PROB	n/a	n/a	n/a	n/a	7	[5 1 2]	8	pyFR	0	TJ039
3461.029	1.067	4126874	STOP	n/a	n/a	n/a	n/a	7	[-999 -999 -999]	-999	pyFR	0	TJ039
3462.096	1.558	4127941	REC_START	n/a	n/a	n/a	-999	7	n/a	n/a	pyFR	0	TJ039
3463.654	1.0	4129499	REC_WORD_VV	1.0	n/a	<>	-999	7	n/a	n/a	pyFR	0	TJ039
3464.654	3.717	4130499	REC_WORD_VV	3.717	n/a	<>	-999	7	n/a	n/a	pyFR	0	TJ039
3468.371	0.435	4134216	REC_WORD_VV	0.435	n/a	<>	-999	7	n/a	n/a	pyFR	0	TJ039
3468.806	1.765	4134651	REC_WORD	1.765	n/a	CAT	-999	7	n/a	n/a	pyFR	0	TJ039
3470.571	1.51	4136416	REC_WORD_VV	1.51	n/a	<>	-999	7	n/a	n/a	pyFR	0	TJ039
3472.081	0.785	4137926	REC_WORD	0.785	n/a	TRASH	-999	7	n/a	n/a	pyFR	0	TJ039
3472.866	1.853	4138711	REC_WORD	1.853	n/a	DITCH	-999	7	n/a	n/a	pyFR	0	TJ039
3474.719	2.345	4140564	REC_WORD_VV	2.345	n/a	<>	-999	7	n/a	n/a	pyFR	0	TJ039
3477.064	1.834	4142909	REC_WORD	1.834	n/a	CHEEK	-999	7	n/a	n/a	pyFR	0	TJ039
3478.898	0.375	4144743	REC_WORD_VV	0.375	n/a	<>	-999	7	n/a	n/a	pyFR	0	TJ039
3479.273	2.486	4145118	REC_WORD	2.486	n/a	DOG	-999	7	n/a	n/a	pyFR	0	TJ039
3481.759	6.025	4147604	REC_WORD_VV	6.025	n/a	<>	-999	7	n/a	n/a	pyFR	0	TJ039
3487.784	2.92	4153629	REC_WORD	2.92	n/a	BARN	-999	7	n/a	n/a	pyFR	0	TJ039
3490.704	4.037	4156549	REC_WORD_VV	4.037	n/a	<>	-999	7	n/a	n/a	pyFR	0	TJ039
3494.741	1.0	4160586	REC_WORD_VV	1.0	n/a	<>	-999	7	n/a	n/a	pyFR	0	TJ039
3495.741	0.459	4161586	REC_WORD_VV	0.459	n/a	<>	-999	7	n/a	n/a	pyFR	0	TJ039
3496.2	0.537	4162045	REC_WORD	0.537	n/a	DART	-999	7	n/a	n/a	pyFR	0	TJ039
3496.737	3.37	4162582	REC_WORD	3.37	n/a	CART	-999	7	n/a	n/a	pyFR	0	TJ039
3500.107	1.421	4165952	REC_WORD_VV	1.421	n/a	<>	-999	7	n/a	n/a	pyFR	0	TJ039
3501.528	4.416	4167373	REC_WORD_VV	4.416	n/a	<>	-999	7	n/a	n/a	pyFR	0	TJ039
3505.944	618.361	4171789	REC_WORD_VV	618.361	n/a	<>	-999	7	n/a	n/a	pyFR	0	TJ039
4124.305	0.016	4790146	TRIAL	n/a	n/a	n/a	-999	8	n/a	n/a	pyFR	0	TJ039
4124.321	2.672	4790162	ORIENT	n/a	n/a	n/a	-999	8	n/a	n/a	pyFR	0	TJ039
4126.993	2.589	4792834	WORD	n/a	wordpools/wordpool_EN.txt	MUG	1	8	n/a	n/a	pyFR	0	TJ039
4129.582	2.571	4795423	WORD	n/a	wordpools/wordpool_EN.txt	TAPE	2	8	n/a	n/a	pyFR	0	TJ039
4132.153	2.639	4797994	WORD	n/a	wordpools/wordpool_EN.txt	SNAIL	3	8	n/a	n/a	pyFR	0	TJ039
4134.792	2.822	4800633	WORD	n/a	wordpools/wordpool_EN.txt	LEAF	4	8	n/a	n/a	pyFR	0	TJ039
4137.614	2.422	4803455	WORD	n/a	wordpools/wordpool_EN.txt	STEAK	5	8	n/a	n/a	pyFR	0	TJ039
4140.036	2.622	4805877	WORD	n/a	wordpools/wordpool_EN.txt	CHALK	6	8	n/a	n/a	pyFR	0	TJ039
4142.658	2.789	4808499	WORD	n/a	wordpools/wordpool_EN.txt	STICK	7	8	n/a	n/a	pyFR	0	TJ039
4145.447	2.421	4811288	WORD	n/a	wordpools/wordpool_EN.txt	SHELL	8	8	n/a	n/a	pyFR	0	TJ039
4147.868	2.555	4813709	WORD	n/a	wordpools/wordpool_EN.txt	CHIN	9	8	n/a	n/a	pyFR	0	TJ039
4150.423	2.622	4816264	WORD	n/a	wordpools/wordpool_EN.txt	VAN	10	8	n/a	n/a	pyFR	0	TJ039
4153.045	2.505	4818886	WORD	n/a	wordpools/wordpool_EN.txt	HAND	11	8	n/a	n/a	pyFR	0	TJ039
4155.55	2.806	4821391	WORD	n/a	wordpools/wordpool_EN.txt	TANK	12	8	n/a	n/a	pyFR	0	TJ039
4158.356	2.79	4824197	WORD	n/a	wordpools/wordpool_EN.txt	PLATE	13	8	n/a	n/a	pyFR	0	TJ039
4161.146	2.788	4826987	WORD	n/a	wordpools/wordpool_EN.txt	PEACH	14	8	n/a	n/a	pyFR	0	TJ039
4163.934	1.621	4829775	WORD	n/a	wordpools/wordpool_EN.txt	CAKE	15	8	n/a	n/a	pyFR	0	TJ039
4165.555	1.184	4831396	START	n/a	n/a	n/a	n/a	8	[-999 -999 -999]	-999	pyFR	0	TJ039
4166.739	6.163	4832580	PROB	n/a	n/a	n/a	n/a	8	[3 3 1]	7	pyFR	0	TJ039
4172.902	3.156	4838743	PROB	n/a	n/a	n/a	n/a	8	[3 1 8]	12	pyFR	0	TJ039
4176.058	3.841	4841899	PROB	n/a	n/a	n/a	n/a	8	[7 7 6]	20	pyFR	0	TJ039
4179.899	1.703	4845740	PROB	n/a	n/a	n/a	n/a	8	[1 1 1]	3	pyFR	0	TJ039
4181.602	4.324	4847443	PROB	n/a	n/a	n/a	n/a	8	[5 2 6]	13	pyFR	0	TJ039
4185.926	1.155	4851767	STOP	n/a	n/a	n/a	n/a	8	[-999 -999 -999]	-999	pyFR	0	TJ039
4187.081	4.657	4852922	REC_START	n/a	n/a	n/a	-999	8	n/a	n/a	pyFR	0	TJ039
4191.738	2.669	4857579	REC_WORD_VV	2.669	n/a	<>	-999	8	n/a	n/a	pyFR	0	TJ039
4194.407	1.771	4860248	REC_WORD	1.771	n/a	MUG	-999	8	n/a	n/a	pyFR	0	TJ039
4196.178	2.598	4862019	REC_WORD	2.598	n/a	TANK	-999	8	n/a	n/a	pyFR	0	TJ039
4198.776	3.699	4864617	REC_WORD	3.699	n/a	SNAIL	-999	8	n/a	n/a	pyFR	0	TJ039
4202.475	2.973	4868316	REC_WORD_VV	2.973	n/a	<>	-999	8	n/a	n/a	pyFR	0	TJ039
4205.448	1.846	4871289	REC_WORD_VV	1.846	n/a	<>	-999	8	n/a	n/a	pyFR	0	TJ039
4207.294	6.538	4873135	REC_WORD_VV	6.538	n/a	<>	-999	8	n/a	n/a	pyFR	0	TJ039
4213.832	7.818	4879673	REC_WORD_VV	7.818	n/a	<>	-999	8	n/a	n/a	pyFR	0	TJ039
4221.65	9.791	4887491	REC_WORD_VV	9.791	n/a	<>	-999	8	n/a	n/a	pyFR	0	TJ039
4231.441	78.903	4897282	REC_WORD_VV	78.903	n/a	<>	-999	8	n/a	n/a	pyFR	0	TJ039
4310.344	0.016	4976184	TRIAL	n/a	n/a	n/a	-999	9	n/a	n/a	pyFR	0	TJ039
4310.36	3.006	4976200	ORIENT	n/a	n/a	n/a	-999	9	n/a	n/a	pyFR	0	TJ039
4313.366	2.639	4979206	WORD	n/a	wordpools/wordpool_EN.txt	ROOM	1	9	n/a	n/a	pyFR	0	TJ039
4316.005	2.455	4981845	WORD	n/a	wordpools/wordpool_EN.txt	MAZE	2	9	n/a	n/a	pyFR	0	TJ039
4318.46	2.505	4984300	WORD	n/a	wordpools/wordpool_EN.txt	OWL	3	9	n/a	n/a	pyFR	0	TJ039
4320.965	2.505	4986805	WORD	n/a	wordpools/wordpool_EN.txt	LAMP	4	9	n/a	n/a	pyFR	0	TJ039
4323.47	2.739	4989310	WORD	n/a	wordpools/wordpool_EN.txt	MULE	5	9	n/a	n/a	pyFR	0	TJ039
4326.209	2.438	4992049	WORD	n/a	wordpools/wordpool_EN.txt	LAWN	6	9	n/a	n/a	pyFR	0	TJ039
4328.647	2.472	4994487	WORD	n/a	wordpools/wordpool_EN.txt	WAVE	7	9	n/a	n/a	pyFR	0	TJ039
4331.119	2.521	4996959	WORD	n/a	wordpools/wordpool_EN.txt	BANK	8	9	n/a	n/a	pyFR	0	TJ039
4333.64	2.739	4999480	WORD	n/a	wordpools/wordpool_EN.txt	CALF	9	9	n/a	n/a	pyFR	0	TJ039
4336.379	2.605	5002219	WORD	n/a	wordpools/wordpool_EN.txt	SHEET	10	9	n/a	n/a	pyFR	0	TJ039
4338.984	2.789	5004824	WORD	n/a	wordpools/wordpool_EN.txt	TRAIN	11	9	n/a	n/a	pyFR	0	TJ039
4341.773	2.539	5007613	WORD	n/a	wordpools/wordpool_EN.txt	CUBE	12	9	n/a	n/a	pyFR	0	TJ039
4344.312	2.471	5010152	WORD	n/a	wordpools/wordpool_EN.txt	SPOON	13	9	n/a	n/a	pyFR	0	TJ039
4346.783	2.555	5012623	WORD	n/a	wordpools/wordpool_EN.txt	HEART	14	9	n/a	n/a	pyFR	0	TJ039
4349.338	1.622	5015178	WORD	n/a	wordpools/wordpool_EN.txt	SPARK	15	9	n/a	n/a	pyFR	0	TJ039
4350.96	1.1	5016800	START	n/a	n/a	n/a	n/a	9	[-999 -999 -999]	-999	pyFR	0	TJ039
4352.06	5.261	5017900	PROB	n/a	n/a	n/a	n/a	9	[3 4 2]	9	pyFR	0	TJ039
4357.321	3.407	5023161	PROB	n/a	n/a	n/a	n/a	9	[2 8 7]	17	pyFR	0	TJ039
4360.728	2.104	5026568	PROB	n/a	n/a	n/a	n/a	9	[6 7 7]	20	pyFR	0	TJ039
4362.832	4.375	5028672	PROB	n/a	n/a	n/a	n/a	9	[4 2 6]	12	pyFR	0	TJ039
4367.207	3.882	5033047	PROB	n/a	n/a	n/a	n/a	9	[4 7 6]	17	pyFR	0	TJ039
4371.089	1.146	5036929	STOP	n/a	n/a	n/a	n/a	9	[-999 -999 -999]	-999	pyFR	0	TJ039
4372.235	4.119	5038075	REC_START	n/a	n/a	n/a	-999	9	n/a	n/a	pyFR	0	TJ039
4376.354	3.725	5042194	REC_WORD_VV	3.725	n/a	<>	-999	9	n/a	n/a	pyFR	0	TJ039
4380.079	1.292	5045919	REC_WORD	1.292	n/a	CUBE	-999	9	n/a	n/a	pyFR	0	TJ039
4381.371	3.872	5047211	REC_WORD	3.872	n/a	SPOON	-999	9	n/a	n/a	pyFR	0	TJ039
4385.243	1.582	5051083	REC_WORD	1.582	n/a	HEART	-999	9	n/a	n/a	pyFR	0	TJ039
4386.825	2.755	5052665	REC_WORD	2.755	n/a	SPARK	-999	9	n/a	n/a	pyFR	0	TJ039
4389.58	7.793	5055420	REC_WORD_VV	7.793	n/a	<>	-999	9	n/a	n/a	pyFR	0	TJ039
4397.373	3.621	5063213	REC_WORD	3.621	n/a	ROOM	-999	9	n/a	n/a	pyFR	0	TJ039
4400.994	2.755	5066834	REC_WORD_VV	2.755	n/a	<>	-999	9	n/a	n/a	pyFR	0	TJ039
4403.749	4.326	5069589	REC_WORD	4.326	n/a	CAT	-999	9	n/a	n/a	pyFR	0	TJ039
4408.075	1.0	5073915	REC_WORD_VV	1.0	n/a	<>	-999	9	n/a	n/a	pyFR	0	TJ039
4409.075	7.935	5074915	REC_WORD_VV	7.935	n/a	<>	-999	9	n/a	n/a	pyFR	0	TJ039
4417.01	1170.308	5082850	REC_WORD_VV	1170.308	n/a	<>	-999	9	n/a	n/a	pyFR	0	TJ039
5587.318	0.016	1131508	TRIAL	n/a	n/a	n/a	-999	10	n/a	n/a	pyFR	0	TJ039
5587.334	2.789	1131524	ORIENT	n/a	n/a	n/a	-999	10	n/a	n/a	pyFR	0	TJ039
5590.123	2.522	1134313	WORD	n/a	wordpools/wordpool_EN.txt	SPEAR	1	10	n/a	n/a	pyFR	0	TJ039
5592.645	2.705	1136835	WORD	n/a	wordpools/wordpool_EN.txt	DRESS	2	10	n/a	n/a	pyFR	0	TJ039
5595.35	2.555	1139540	WORD	n/a	wordpools/wordpool_EN.txt	CLIFF	3	10	n/a	n/a	pyFR	0	TJ039
5597.905	2.622	1142095	WORD	n/a	wordpools/wordpool_EN.txt	BEE	4	10	n/a	n/a	pyFR	0	TJ039
5600.527	2.555	1144717	WORD	n/a	wordpools/wordpool_EN.txt	CROW	5	10	n/a	n/a	pyFR	0	TJ039
5603.082	2.455	1147272	WORD	n/a	wordpools/wordpool_EN.txt	FARM	6	10	n/a	n/a	pyFR	0	TJ039
5605.537	2.672	1149727	WORD	n/a	wordpools/wordpool_EN.txt	MOUSE	7	10	n/a	n/a	pyFR	0	TJ039
5608.209	2.622	1152399	WORD	n/a	wordpools/wordpool_EN.txt	MAIL	8	10	n/a	n/a	pyFR	0	TJ039
5610.831	2.739	1155021	WORD	n/a	wordpools/wordpool_EN.txt	SQUARE	9	10	n/a	n/a	pyFR	0	TJ039
5613.57	2.638	1157760	WORD	n/a	wordpools/wordpool_EN.txt	BELL	10	10	n/a	n/a	pyFR	0	TJ039
5616.208	2.555	1160398	WORD	n/a	wordpools/wordpool_EN.txt	FOG	11	10	n/a	n/a	pyFR	0	TJ039
5618.763	2.572	1162953	WORD	n/a	wordpools/wordpool_EN.txt	ARK	12	10	n/a	n/a	pyFR	0	TJ039
5621.335	2.505	1165525	WORD	n/a	wordpools/wordpool_EN.txt	MOON	13	10	n/a	n/a	pyFR	0	TJ039
5623.84	2.823	1168030	WORD	n/a	wordpools/wordpool_EN.txt	TRUCK	14	10	n/a	n/a	pyFR	0	TJ039
5626.663	1.621	1170853	WORD	n/a	wordpools/wordpool_EN.txt	PEA	15	10	n/a	n/a	pyFR	0	TJ039
5628.284	1.184	1172474	START	n/a	n/a	n/a	n/a	10	[-999 -999 -999]	-999	pyFR	0	TJ039
5629.468	4.242	1173658	PROB	n/a	n/a	n/a	n/a	10	[8 9 4]	21	pyFR	0	TJ039
5633.71	3.357	1177900	PROB	n/a	n/a	n/a	n/a	10	[9 7 4]	2	pyFR	0	TJ039
5637.067	6.262	1181257	PROB	n/a	n/a	n/a	n/a	10	[4 5 3]	12	pyFR	0	TJ039
5643.329	2.188	1187519	PROB	n/a	n/a	n/a	n/a	10	[3 5 4]	12	pyFR	0	TJ039
5645.517	3.09	1189707	PROB	n/a	n/a	n/a	n/a	10	[7 5 8]	20	pyFR	0	TJ039
5648.607	1.169	1192797	STOP	n/a	n/a	n/a	n/a	10	[-999 -999 -999]	-999	pyFR	0	TJ039
5649.776	1.667	1193966	REC_START	n/a	n/a	n/a	-999	10	n/a	n/a	pyFR	0	TJ039
5651.443	3.263	1195633	REC_WORD_VV	3.263	n/a	<>	-999	10	n/a	n/a	pyFR	0	TJ039
5654.706	1.459	1198896	REC_WORD	1.459	n/a	SPEAR	-999	10	n/a	n/a	pyFR	0	TJ039
5656.165	2.592	1200355	REC_WORD	2.592	n/a	DRESS	-999	10	n/a	n/a	pyFR	0	TJ039
5658.757	2.81	1202947	REC_WORD	2.81	n/a	CLIFF	-999	10	n/a	n/a	pyFR	0	TJ039
5661.567	1.85	1205757	REC_WORD_VV	1.85	n/a	<>	-999	10	n/a	n/a	pyFR	0	TJ039
5663.417	2.074	1207607	REC_WORD	2.074	n/a	MOUSE	-999	10	n/a	n/a	pyFR	0	TJ039
5665.491	2.644	1209681	REC_WORD	2.644	n/a	MAIL	-999	10	n/a	n/a	pyFR	0	TJ039
5668.135	6.671	1212324	REC_WORD_VV	6.671	n/a	<>	-999	10	n/a	n/a	pyFR	0	TJ039
5674.806	11.898	1218995	REC_WORD_VV	11.898	n/a	<>	-999	10	n/a	n/a	pyFR	0	TJ039
5686.704	4.525	1230893	REC_WORD_VV	4.525	n/a	<>	-999	10	n/a	n/a	pyFR	0	TJ039
5691.229	1.0	1235418	REC_WORD_VV	1.0	n/a	<>	-999	10	n/a	n/a	pyFR	0	TJ039
5692.229	34.885	1236418	REC_WORD_VV	34.885	n/a	<>	-999	10	n/a	n/a	pyFR	0	TJ039
5727.114	0.016	1271303	TRIAL	n/a	n/a	n/a	-999	11	n/a	n/a	pyFR	0	TJ039
5727.13	2.823	1271319	ORIENT	n/a	n/a	n/a	-999	11	n/a	n/a	pyFR	0	TJ039
5729.953	2.538	1274142	WORD	n/a	wordpools/wordpool_EN.txt	MILK	1	11	n/a	n/a	pyFR	0	TJ039
5732.491	2.538	1276680	WORD	n/a	wordpools/wordpool_EN.txt	STOOL	2	11	n/a	n/a	pyFR	0	TJ039
5735.029	2.439	1279218	WORD	n/a	wordpools/wordpool_EN.txt	STEAM	3	11	n/a	n/a	pyFR	0	TJ039
5737.468	2.722	1281657	WORD	n/a	wordpools/wordpool_EN.txt	TENT	4	11	n/a	n/a	pyFR	0	TJ039
5740.19	2.756	1284379	WORD	n/a	wordpools/wordpool_EN.txt	SHRIMP	5	11	n/a	n/a	pyFR	0	TJ039
5742.946	2.605	1287135	WORD	n/a	wordpools/wordpool_EN.txt	HEN	6	11	n/a	n/a	pyFR	0	TJ039
5745.551	2.755	1289740	WORD	n/a	wordpools/wordpool_EN.txt	JUICE	7	11	n/a	n/a	pyFR	0	TJ039
5748.306	2.689	1292495	WORD	n/a	wordpools/wordpool_EN.txt	CONE	8	11	n/a	n/a	pyFR	0	TJ039
5750.995	2.755	1295184	WORD	n/a	wordpools/wordpool_EN.txt	KITE	9	11	n/a	n/a	pyFR	0	TJ039
5753.75	2.756	1297939	WORD	n/a	wordpools/wordpool_EN.txt	WOLF	10	11	n/a	n/a	pyFR	0	TJ039
5756.506	2.521	1300695	WORD	n/a	wordpools/wordpool_EN.txt	CRANE	11	11	n/a	n/a	pyFR	0	TJ039
5759.027	2.689	1303216	WORD	n/a	wordpools/wordpool_EN.txt	SEED	12	11	n/a	n/a	pyFR	0	TJ039
5761.716	2.439	1305905	WORD	n/a	wordpools/wordpool_EN.txt	MAT	13	11	n/a	n/a	pyFR	0	TJ039
5764.155	2.571	1308344	WORD	n/a	wordpools/wordpool_EN.txt	GATE	14	11	n/a	n/a	pyFR	0	TJ039
5766.726	1.605	1310915	WORD	n/a	wordpools/wordpool_EN.txt	CORN	15	11	n/a	n/a	pyFR	0	TJ039
5768.331	0.967	1312520	START	n/a	n/a	n/a	n/a	11	[-999 -999 -999]	-999	pyFR	0	TJ039
5769.298	5.945	1313487	PROB	n/a	n/a	n/a	n/a	11	[9 6 4]	19	pyFR	0	TJ039
5775.243	2.788	1319432	PROB	n/a	n/a	n/a	n/a	11	[4 4 7]	15	pyFR	0	TJ039
5778.031	2.256	1322220	PROB	n/a	n/a	n/a	n/a	11	[8 5 8]	21	pyFR	0	TJ039
5780.287	3.941	1324476	PROB	n/a	n/a	n/a	n/a	11	[5 3 9]	17	pyFR	0	TJ039
5784.228	2.939	1328417	PROB	n/a	n/a	n/a	n/a	11	[1 6 5]	12	pyFR	0	TJ039
5787.167	3.987	1331356	PROB	n/a	n/a	n/a	n/a	11	[4 6 3]	13	pyFR	0	TJ039
5791.154	1.124	1335343	STOP	n/a	n/a	n/a	n/a	11	[-999 -999 -999]	-999	pyFR	0	TJ039
5792.278	0.981	1336467	REC_START	n/a	n/a	n/a	-999	11	n/a	n/a	pyFR	0	TJ039
5793.259	1.372	1337448	REC_WORD_VV	1.372	n/a	<>	-999	11	n/a	n/a	pyFR	0	TJ039
5794.631	1.847	1338820	REC_WORD_VV	1.847	n/a	<>	-999	11	n/a	n/a	pyFR	0	TJ039
5796.478	2.248	1340667	REC_WORD	2.248	n/a	WOLF	-999	11	n/a	n/a	pyFR	0	TJ039
5798.726	2.08	1342915	REC_WORD_VV	2.08	n/a	<>	-999	11	n/a	n/a	pyFR	0	TJ039
5800.806	1.283	1344995	REC_WORD	1.283	n/a	MILK	-999	11	n/a	n/a	pyFR	0	TJ039
5802.089	1.938	1346278	REC_WORD	1.938	n/a	STOOL	-999	11	n/a	n/a	pyFR	0	TJ039
5804.027	2.591	1348216	REC_WORD	2.591	n/a	CRANE	-999	11	n/a	n/a	pyFR	0	TJ039
5806.618	2.447	1350807	REC_WORD	2.447	n/a	GATE	-999	11	n/a	n/a	pyFR	0	TJ039
5809.065	5.034	1353254	REC_WORD_VV	5.034	n/a	<>	-999	11	n/a	n/a	pyFR	0	TJ039
5814.099	2.481	1358288	REC_WORD_VV	2.481	n/a	<>	-999	11	n/a	n/a	pyFR	0	TJ039
5816.58	19.14	1360769	REC_WORD_VV	19.14	n/a	<>	-999	11	n/a	n/a	pyFR	0	TJ039
5835.72	66.061	1379909	REC_WORD_VV	66.061	n/a	<>	-999	11	n/a	n/a	pyFR	0	TJ039
5901.781	0.016	1445970	TRIAL	n/a	n/a	n/a	-999	12	n/a	n/a	pyFR	0	TJ039
5901.797	2.922	1445986	ORIENT	n/a	n/a	n/a	-999	12	n/a	n/a	pyFR	0	TJ039
5904.719	2.439	1448908	WORD	n/a	wordpools/wordpool_EN.txt	APE	1	12	n/a	n/a	pyFR	0	TJ039
5907.158	2.638	1451347	WORD	n/a	wordpools/wordpool_EN.txt	RAKE	2	12	n/a	n/a	pyFR	0	TJ039
5909.796	2.772	1453984	WORD	n/a	wordpools/wordpool_EN.txt	EAR	3	12	n/a	n/a	pyFR	0	TJ039
5912.568	2.522	1456756	WORD	n/a	wordpools/wordpool_EN.txt	BED	4	12	n/a	n/a	pyFR	0	TJ039
5915.09	2.756	1459278	WORD	n/a	wordpools/wordpool_EN.txt	BOX	5	12	n/a	n/a	pyFR	0	TJ039
5917.846	2.605	1462034	WORD	n/a	wordpools/wordpool_EN.txt	DESK	6	12	n/a	n/a	pyFR	0	TJ039
5920.451	2.472	1464639	WORD	n/a	wordpools/wordpool_EN.txt	HOOK	7	12	n/a	n/a	pyFR	0	TJ039
5922.923	2.672	1467111	WORD	n/a	wordpools/wordpool_EN.txt	JET	8	12	n/a	n/a	pyFR	0	TJ039
5925.595	2.621	1469783	WORD	n/a	wordpools/wordpool_EN.txt	BOMB	9	12	n/a	n/a	pyFR	0	TJ039
5928.216	2.706	1472404	WORD	n/a	wordpools/wordpool_EN.txt	CORD	10	12	n/a	n/a	pyFR	0	TJ039
5930.922	2.722	1475110	WORD	n/a	wordpools/wordpool_EN.txt	FORT	11	12	n/a	n/a	pyFR	0	TJ039
5933.644	2.622	1477832	WORD	n/a	wordpools/wordpool_EN.txt	BADGE	12	12	n/a	n/a	pyFR	0	TJ039
5936.266	2.455	1480454	WORD	n/a	wordpools/wordpool_EN.txt	CART	13	12	n/a	n/a	pyFR	0	TJ039
5938.721	2.722	1482909	WORD	n/a	wordpools/wordpool_EN.txt	SWORD	14	12	n/a	n/a	pyFR	0	TJ039
5941.443	1.605	1485631	WORD	n/a	wordpools/wordpool_EN.txt	GLOVE	15	12	n/a	n/a	pyFR	0	TJ039
5943.048	1.0	1487236	START	n/a	n/a	n/a	n/a	12	[-999 -999 -999]	-999	pyFR	0	TJ039
5944.048	13.828	1488236	PROB	n/a	n/a	n/a	n/a	12	[7 2 8]	17	pyFR	0	TJ039
5957.876	2.722	1502064	PROB	n/a	n/a	n/a	n/a	12	[1 8 5]	14	pyFR	0	TJ039
5960.598	2.204	1504786	PROB	n/a	n/a	n/a	n/a	12	[4 5 4]	13	pyFR	0	TJ039
5962.802	8.178	1506990	PROB	n/a	n/a	n/a	n/a	12	[9 7 9]	25	pyFR	0	TJ039
5970.98	1.058	1515168	STOP	n/a	n/a	n/a	n/a	12	[-999 -999 -999]	-999	pyFR	0	TJ039
5972.038	1.534	1516226	REC_START	n/a	n/a	n/a	-999	12	n/a	n/a	pyFR	0	TJ039
5973.572	4.643	1517760	REC_WORD_VV	4.643	n/a	<>	-999	12	n/a	n/a	pyFR	0	TJ039
5978.215	1.392	1522403	REC_WORD	1.392	n/a	BOMB	-999	12	n/a	n/a	pyFR	0	TJ039
5979.607	2.288	1523795	REC_WORD	2.288	n/a	CORD	-999	12	n/a	n/a	pyFR	0	TJ039
5981.895	2.506	1526083	REC_WORD_VV	2.506	n/a	<>	-999	12	n/a	n/a	pyFR	0	TJ039
5984.401	1.906	1528589	REC_WORD_VV	1.906	n/a	<>	-999	12	n/a	n/a	pyFR	0	TJ039
5986.307	2.134	1530495	REC_WORD_VV	2.134	n/a	<>	-999	12	n/a	n/a	pyFR	0	TJ039
5988.441	1.0	1532629	REC_WORD_VV	1.0	n/a	<>	-999	12	n/a	n/a	pyFR	0	TJ039
5989.441	3.041	1533629	REC_WORD_VV	3.041	n/a	<>	-999	12	n/a	n/a	pyFR	0	TJ039
5992.482	13.195	1536670	REC_WORD_VV	13.195	n/a	<>	-999	12	n/a	n/a	pyFR	0	TJ039
6005.677	2.422	1549865	REC_WORD_VV	2.422	n/a	<>	-999	12	n/a	n/a	pyFR	0	TJ039
6008.099	229.571	1552287	REC_WORD_VV	229.571	n/a	<>	-999	12	n/a	n/a	pyFR	0	TJ039
6237.67	0.016	1781857	TRIAL	n/a	n/a	n/a	-999	13	n/a	n/a	pyFR	0	TJ039
6237.686	2.622	1781873	ORIENT	n/a	n/a	n/a	-999	13	n/a	n/a	pyFR	0	TJ039
6240.308	2.806	1784495	WORD	n/a	wordpools/wordpool_EN.txt	TIE	1	13	n/a	n/a	pyFR	0	TJ039
6243.114	2.738	1787301	WORD	n/a	wordpools/wordpool_EN.txt	FUDGE	2	13	n/a	n/a	pyFR	0	TJ039
6245.852	2.656	1790039	WORD	n/a	wordpools/wordpool_EN.txt	INK	3	13	n/a	n/a	pyFR	0	TJ039
6248.508	2.471	1792695	WORD	n/a	wordpools/wordpool_EN.txt	COW	4	13	n/a	n/a	pyFR	0	TJ039
6250.979	2.706	1795166	WORD	n/a	wordpools/wordpool_EN.txt	JAIL	5	13	n/a	n/a	pyFR	0	TJ039
6253.685	2.655	1797872	WORD	n/a	wordpools/wordpool_EN.txt	CHAIR	6	13	n/a	n/a	pyFR	0	TJ039
6256.34	2.488	1800527	WORD	n/a	wordpools/wordpool_EN.txt	SHIELD	7	13	n/a	n/a	pyFR	0	TJ039
6258.828	2.672	1803015	WORD	n/a	wordpools/wordpool_EN.txt	TOE	8	13	n/a	n/a	pyFR	0	TJ039
6261.5	2.539	1805687	WORD	n/a	wordpools/wordpool_EN.txt	CARD	9	13	n/a	n/a	pyFR	0	TJ039
6264.039	2.572	1808226	WORD	n/a	wordpools/wordpool_EN.txt	SUIT	10	13	n/a	n/a	pyFR	0	TJ039
6266.611	2.505	1810798	WORD	n/a	wordpools/wordpool_EN.txt	HORN	11	13	n/a	n/a	pyFR	0	TJ039
6269.116	2.805	1813303	WORD	n/a	wordpools/wordpool_EN.txt	TOAD	12	13	n/a	n/a	pyFR	0	TJ039
6271.921	2.505	1816108	WORD	n/a	wordpools/wordpool_EN.txt	STAR	13	13	n/a	n/a	pyFR	0	TJ039
6274.426	2.639	1818613	WORD	n/a	wordpools/wordpool_EN.txt	HAWK	14	13	n/a	n/a	pyFR	0	TJ039
6277.065	1.604	1821252	WORD	n/a	wordpools/wordpool_EN.txt	FOOD	15	13	n/a	n/a	pyFR	0	TJ039
6278.669	0.985	1822856	START	n/a	n/a	n/a	n/a	13	[-999 -999 -999]	-999	pyFR	0	TJ039
6279.654	4.458	1823841	PROB	n/a	n/a	n/a	n/a	13	[8 1 5]	14	pyFR	0	TJ039
6284.112	3.725	1828299	PROB	n/a	n/a	n/a	n/a	13	[1 8 9]	18	pyFR	0	TJ039
6287.837	1.92	1832024	PROB	n/a	n/a	n/a	n/a	13	[9 3 1]	13	pyFR	0	TJ039
6289.757	3.707	1833944	PROB	n/a	n/a	n/a	n/a	13	[6 3 7]	16	pyFR	0	TJ039
6293.464	4.209	1837651	PROB	n/a	n/a	n/a	n/a	13	[6 2 6]	14	pyFR	0	TJ039
6297.673	3.145	1841860	PROB	n/a	n/a	n/a	n/a	13	[8 8 8]	24	pyFR	0	TJ039
6300.818	1.081	1845005	STOP	n/a	n/a	n/a	n/a	13	[-999 -999 -999]	-999	pyFR	0	TJ039
6301.899	3.479	1846086	REC_START	n/a	n/a	n/a	-999	13	n/a	n/a	pyFR	0	TJ039
6305.378	2.423	1849565	REC_WORD_VV	2.423	n/a	<>	-999	13	n/a	n/a	pyFR	0	TJ039
6307.801	2.176	1851988	REC_WORD	2.176	n/a	TIE	-999	13	n/a	n/a	pyFR	0	TJ039
6309.977	1.88	1854164	REC_WORD	1.88	n/a	SUIT	-999	13	n/a	n/a	pyFR	0	TJ039
6311.857	2.68	1856044	REC_WORD	2.68	n/a	CARD	-999	13	n/a	n/a	pyFR	0	TJ039
6314.537	2.671	1858724	REC_WORD	2.671	n/a	HAWK	-999	13	n/a	n/a	pyFR	0	TJ039
6317.208	1.348	1861395	REC_WORD_VV	1.348	n/a	<>	-999	13	n/a	n/a	pyFR	0	TJ039
6318.556	2.544	1862743	REC_WORD	2.544	n/a	SHIELD	-999	13	n/a	n/a	pyFR	0	TJ039
6321.1	2.544	1865287	REC_WORD_VV	2.544	n/a	<>	-999	13	n/a	n/a	pyFR	0	TJ039
6323.644	1.0	1867831	REC_WORD	1.0	n/a	COW	-999	13	n/a	n/a	pyFR	0	TJ039
6324.644	2.967	1868831	REC_WORD_VV	2.967	n/a	<>	-999	13	n/a	n/a	pyFR	0	TJ039
6327.611	2.162	1871798	REC_WORD_VV	2.162	n/a	<>	-999	13	n/a	n/a	pyFR	0	TJ039
6329.773	3.903	1873960	REC_WORD	3.903	n/a	TOAD	-999	13	n/a	n/a	pyFR	0	TJ039
6333.676	4.521	1877863	REC_WORD_VV	4.521	n/a	<>	-999	13	n/a	n/a	pyFR	0	TJ039
6338.197	1.0	1882384	REC_WORD_VV	1.0	n/a	<>	-999	13	n/a	n/a	pyFR	0	TJ039
6339.197	4.621	1883384	REC_WORD_VV	4.621	n/a	<>	-999	13	n/a	n/a	pyFR	0	TJ039
6343.818	430.276	1888005	REC_WORD_VV	430.276	n/a	<>	-999	13	n/a	n/a	pyFR	0	TJ039
6774.094	0.016	2318279	TRIAL	n/a	n/a	n/a	-999	14	n/a	n/a	pyFR	0	TJ039
6774.11	2.722	2318295	ORIENT	n/a	n/a	n/a	-999	14	n/a	n/a	pyFR	0	TJ039
6776.832	2.672	2321017	WORD	n/a	wordpools/wordpool_EN.txt	SMOKE	1	14	n/a	n/a	pyFR	0	TJ039
6779.504	2.622	2323689	WORD	n/a	wordpools/wordpool_EN.txt	CAGE	2	14	n/a	n/a	pyFR	0	TJ039
6782.126	2.739	2326311	WORD	n/a	wordpools/wordpool_EN.txt	SOUP	3	14	n/a	n/a	pyFR	0	TJ039
6784.865	2.622	2329050	WORD	n/a	wordpools/wordpool_EN.txt	LAKE	4	14	n/a	n/a	pyFR	0	TJ039
6787.487	2.438	2331672	WORD	n/a	wordpools/wordpool_EN.txt	HORSE	5	14	n/a	n/a	pyFR	0	TJ039
6789.925	2.772	2334110	WORD	n/a	wordpools/wordpool_EN.txt	WORM	6	14	n/a	n/a	pyFR	0	TJ039
6792.697	2.706	2336882	WORD	n/a	wordpools/wordpool_EN.txt	BIRD	7	14	n/a	n/a	pyFR	0	TJ039
6795.403	2.621	2339588	WORD	n/a	wordpools/wordpool_EN.txt	EGG	8	14	n/a	n/a	pyFR	0	TJ039
6798.024	2.573	2342209	WORD	n/a	wordpools/wordpool_EN.txt	FOX	9	14	n/a	n/a	pyFR	0	TJ039
6800.597	2.454	2344782	WORD	n/a	wordpools/wordpool_EN.txt	BOARD	10	14	n/a	n/a	pyFR	0	TJ039
6803.051	2.756	2347236	WORD	n/a	wordpools/wordpool_EN.txt	ROOF	11	14	n/a	n/a	pyFR	0	TJ039
6805.807	2.806	2349992	WORD	n/a	wordpools/wordpool_EN.txt	EEL	12	14	n/a	n/a	pyFR	0	TJ039
6808.613	2.655	2352798	WORD	n/a	wordpools/wordpool_EN.txt	TOY	13	14	n/a	n/a	pyFR	0	TJ039
6811.268	2.555	2355453	WORD	n/a	wordpools/wordpool_EN.txt	MOTH	14	14	n/a	n/a	pyFR	0	TJ039
6813.823	1.621	2358008	WORD	n/a	wordpools/wordpool_EN.txt	PET	15	14	n/a	n/a	pyFR	0	TJ039
6815.444	1.135	2359629	START	n/a	n/a	n/a	n/a	14	[-999 -999 -999]	-999	pyFR	0	TJ039
6816.579	4.058	2360764	PROB	n/a	n/a	n/a	n/a	14	[1 5 7]	13	pyFR	0	TJ039
6820.637	2.187	2364822	PROB	n/a	n/a	n/a	n/a	14	[3 9 4]	16	pyFR	0	TJ039
6822.824	2.489	2367009	PROB	n/a	n/a	n/a	n/a	14	[4 7 4]	15	pyFR	0	TJ039
6825.313	3.223	2369498	PROB	n/a	n/a	n/a	n/a	14	[3 4 9]	16	pyFR	0	TJ039
6828.536	1.987	2372721	PROB	n/a	n/a	n/a	n/a	14	[5 3 1]	9	pyFR	0	TJ039
6830.523	3.49	2374708	PROB	n/a	n/a	n/a	n/a	14	[8 7 7]	22	pyFR	0	TJ039
6834.013	2.523	2378198	PROB	n/a	n/a	n/a	n/a	14	[9 8 2]	19	pyFR	0	TJ039
6836.536	1.152	2380721	STOP	n/a	n/a	n/a	n/a	14	[-999 -999 -999]	-999	pyFR	0	TJ039
6837.688	4.048	2381873	REC_START	n/a	n/a	n/a	-999	14	n/a	n/a	pyFR	0	TJ039
6841.736	2.742	2385921	REC_WORD_VV	2.742	n/a	<>	-999	14	n/a	n/a	pyFR	0	TJ039
6844.478	2.69	2388663	REC_WORD	2.69	n/a	HORSE	-999	14	n/a	n/a	pyFR	0	TJ039
6847.168	3.57	2391353	REC_WORD	3.57	n/a	WORM	-999	14	n/a	n/a	pyFR	0	TJ039
6850.738	1.501	2394923	REC_WORD	1.501	n/a	BIRD	-999	14	n/a	n/a	pyFR	0	TJ039
6852.239	1.068	2396424	REC_WORD	1.068	n/a	EGG	-999	14	n/a	n/a	pyFR	0	TJ039
6853.307	0.889	2397492	REC_WORD	0.889	n/a	MOTH	-999	14	n/a	n/a	pyFR	0	TJ039
6854.196	2.647	2398381	REC_WORD	2.647	n/a	TOY	-999	14	n/a	n/a	pyFR	0	TJ039
6856.843	5.91	2401028	REC_WORD_VV	5.91	n/a	<>	-999	14	n/a	n/a	pyFR	0	TJ039
6862.753	1.0	2406938	REC_WORD_VV	1.0	n/a	<>	-999	14	n/a	n/a	pyFR	0	TJ039
6863.753	4.279	2407938	REC_WORD_VV	4.279	n/a	<>	-999	14	n/a	n/a	pyFR	0	TJ039
6868.032	8.872	2412217	REC_WORD_VV	8.872	n/a	<>	-999	14	n/a	n/a	pyFR	0	TJ039
6876.904	1.0	2421089	REC_WORD	1.0	n/a	MOTH	-999	14	n/a	n/a	pyFR	0	TJ039
6877.904	1.0	2422088	REC_WORD_VV	1.0	n/a	<>	-999	14	n/a	n/a	pyFR	0	TJ039
6878.904	25.084	2423088	REC_WORD_VV	25.084	n/a	<>	-999	14	n/a	n/a	pyFR	0	TJ039
6903.988	0.016	2448172	TRIAL	n/a	n/a	n/a	-999	15	n/a	n/a	pyFR	0	TJ039
6904.004	2.805	2448188	ORIENT	n/a	n/a	n/a	-999	15	n/a	n/a	pyFR	0	TJ039
6906.809	2.539	2450993	WORD	n/a	wordpools/wordpool_EN.txt	ROPE	1	15	n/a	n/a	pyFR	0	TJ039
6909.348	2.505	2453532	WORD	n/a	wordpools/wordpool_EN.txt	PALM	2	15	n/a	n/a	pyFR	0	TJ039
6911.853	2.789	2456037	WORD	n/a	wordpools/wordpool_EN.txt	PANTS	3	15	n/a	n/a	pyFR	0	TJ039
6914.642	2.438	2458826	WORD	n/a	wordpools/wordpool_EN.txt	POOL	4	15	n/a	n/a	pyFR	0	TJ039
6917.08	2.638	2461264	WORD	n/a	wordpools/wordpool_EN.txt	CAPE	5	15	n/a	n/a	pyFR	0	TJ039
6919.718	2.472	2463902	WORD	n/a	wordpools/wordpool_EN.txt	SKY	6	15	n/a	n/a	pyFR	0	TJ039
6922.19	2.756	2466374	WORD	n/a	wordpools/wordpool_EN.txt	BOY	7	15	n/a	n/a	pyFR	0	TJ039
6924.946	2.605	2469130	WORD	n/a	wordpools/wordpool_EN.txt	STOVE	8	15	n/a	n/a	pyFR	0	TJ039
6927.551	2.805	2471735	WORD	n/a	wordpools/wordpool_EN.txt	HILL	9	15	n/a	n/a	pyFR	0	TJ039
6930.356	2.622	2474540	WORD	n/a	wordpools/wordpool_EN.txt	SNAKE	10	15	n/a	n/a	pyFR	0	TJ039
6932.978	2.789	2477162	WORD	n/a	wordpools/wordpool_EN.txt	BRANCH	11	15	n/a	n/a	pyFR	0	TJ039
6935.767	2.572	2479951	WORD	n/a	wordpools/wordpool_EN.txt	PIPE	12	15	n/a	n/a	pyFR	0	TJ039
6938.339	2.505	2482523	WORD	n/a	wordpools/wordpool_EN.txt	SCHOOL	13	15	n/a	n/a	pyFR	0	TJ039
6940.844	2.806	2485028	WORD	n/a	wordpools/wordpool_EN.txt	DEER	14	15	n/a	n/a	pyFR	0	TJ039
6943.65	1.621	2487834	WORD	n/a	wordpools/wordpool_EN.txt	ELF	15	15	n/a	n/a	pyFR	0	TJ039
6945.271	1.067	2489455	START	n/a	n/a	n/a	n/a	15	[-999 -999 -999]	-999	pyFR	0	TJ039
6946.338	3.708	2490522	PROB	n/a	n/a	n/a	n/a	15	[8 3 1]	12	pyFR	0	TJ039
6950.046	6.062	2494230	PROB	n/a	n/a	n/a	n/a	15	[2 7 5]	14	pyFR	0	TJ039
6956.108	1.687	2500292	PROB	n/a	n/a	n/a	n/a	15	[6 4 2]	12	pyFR	0	TJ039
6957.795	1.319	2501979	PROB	n/a	n/a	n/a	n/a	15	[2 8 2]	12	pyFR	0	TJ039
6959.114	2.455	2503298	PROB	n/a	n/a	n/a	n/a	15	[1 8 1]	10	pyFR	0	TJ039
6961.569	3.82	2505753	PROB	n/a	n/a	n/a	n/a	15	[1 5 2]	8	pyFR	0	TJ039
6965.389	1.241	2509573	STOP	n/a	n/a	n/a	n/a	15	[-999 -999 -999]	-999	pyFR	0	TJ039
6966.63	4.98	2510814	REC_START	n/a	n/a	n/a	-999	15	n/a	n/a	pyFR	0	TJ039
6971.61	1.067	2515794	REC_WORD	1.067	n/a	PIPE	-999	15	n/a	n/a	pyFR	0	TJ039
6972.677	2.644	2516861	REC_WORD	2.644	n/a	SCHOOL	-999	15	n/a	n/a	pyFR	0	TJ039
6975.321	2.844	2519505	REC_WORD_VV	2.844	n/a	<>	-999	15	n/a	n/a	pyFR	0	TJ039
6978.165	1.208	2522349	REC_WORD	1.208	n/a	ELF	-999	15	n/a	n/a	pyFR	0	TJ039
6979.373	2.327	2523557	REC_WORD	2.327	n/a	BOY	-999	15	n/a	n/a	pyFR	0	TJ039
6981.7	3.657	2525884	REC_WORD_VV	3.657	n/a	<>	-999	15	n/a	n/a	pyFR	0	TJ039
6985.357	1.0	2529541	REC_WORD	1.0	n/a	STOVE	-999	15	n/a	n/a	pyFR	0	TJ039
6986.357	2.922	2530541	REC_WORD_VV	2.922	n/a	<>	-999	15	n/a	n/a	pyFR	0	TJ039
6989.279	8.428	2533463	REC_WORD_VV	8.428	n/a	<>	-999	15	n/a	n/a	pyFR	0	TJ039
6997.707	2.855	2541891	REC_WORD	2.855	n/a	CAPE	-999	15	n/a	n/a	pyFR	0	TJ039
7000.562	3.925	2544746	REC_WORD	3.925	n/a	SKY	-999	15	n/a	n/a	pyFR	0	TJ039
7004.487	75.086	2548671	REC_WORD_VV	75.086	n/a	<>	-999	15	n/a	n/a	pyFR	0	TJ039
7079.573	0.016	2623757	TRIAL	n/a	n/a	n/a	-999	16	n/a	n/a	pyFR	0	TJ039
7079.589	2.855	2623773	ORIENT	n/a	n/a	n/a	-999	16	n/a	n/a	pyFR	0	TJ039
7082.444	2.571	2626628	WORD	n/a	wordpools/wordpool_EN.txt	KEY	1	16	n/a	n/a	pyFR	0	TJ039
7085.015	2.473	2629199	WORD	n/a	wordpools/wordpool_EN.txt	HOOF	2	16	n/a	n/a	pyFR	0	TJ039
7087.488	2.705	2631672	WORD	n/a	wordpools/wordpool_EN.txt	FENCE	3	16	n/a	n/a	pyFR	0	TJ039
7090.193	2.706	2634377	WORD	n/a	wordpools/wordpool_EN.txt	CLOCK	4	16	n/a	n/a	pyFR	0	TJ039
7092.899	2.671	2637083	WORD	n/a	wordpools/wordpool_EN.txt	BOWL	5	16	n/a	n/a	pyFR	0	TJ039
7095.57	2.472	2639754	WORD	n/a	wordpools/wordpool_EN.txt	ROOT	6	16	n/a	n/a	pyFR	0	TJ039
7098.042	2.455	2642226	WORD	n/a	wordpools/wordpool_EN.txt	PIG	7	16	n/a	n/a	pyFR	0	TJ039
7100.497	2.806	2644681	WORD	n/a	wordpools/wordpool_EN.txt	PLANT	8	16	n/a	n/a	pyFR	0	TJ039
7103.303	2.505	2647487	WORD	n/a	wordpools/wordpool_EN.txt	BAG	9	16	n/a	n/a	pyFR	0	TJ039
7105.808	2.605	2649992	WORD	n/a	wordpools/wordpool_EN.txt	STRAW	10	16	n/a	n/a	pyFR	0	TJ039
7108.413	2.672	2652597	WORD	n/a	wordpools/wordpool_EN.txt	OAR	11	16	n/a	n/a	pyFR	0	TJ039
7111.085	2.622	2655269	WORD	n/a	wordpools/wordpool_EN.txt	RICE	12	16	n/a	n/a	pyFR	0	TJ039
7113.707	2.622	2657891	WORD	n/a	wordpools/wordpool_EN.txt	WALL	13	16	n/a	n/a	pyFR	0	TJ039
7116.329	2.505	2660513	WORD	n/a	wordpools/wordpool_EN.txt	ROCK	14	16	n/a	n/a	pyFR	0	TJ039
7118.834	1.604	2663018	WORD	n/a	wordpools/wordpool_EN.txt	CUP	15	16	n/a	n/a	pyFR	0	TJ039
7120.438	0.984	2664621	START	n/a	n/a	n/a	n/a	16	[-999 -999 -999]	-999	pyFR	0	TJ039
7121.422	5.662	2665605	PROB	n/a	n/a	n/a	n/a	16	[8 3 4]	15	pyFR	0	TJ039
7127.084	5.761	2671267	PROB	n/a	n/a	n/a	n/a	16	[2 6 9]	17	pyFR	0	TJ039
7132.845	1.82	2677028	PROB	n/a	n/a	n/a	n/a	16	[2 1 1]	4	pyFR	0	TJ039
7134.665	2.639	2678848	PROB	n/a	n/a	n/a	n/a	16	[8 2 7]	17	pyFR	0	TJ039
7137.304	4.815	2681487	PROB	n/a	n/a	n/a	n/a	16	[6 6 4]	16	pyFR	0	TJ039
7142.119	1.131	2686302	STOP	n/a	n/a	n/a	n/a	16	[-999 -999 -999]	-999	pyFR	0	TJ039
7143.25	2.056	2687433	REC_START	n/a	n/a	n/a	-999	16	n/a	n/a	pyFR	0	TJ039
7145.306	3.525	2689489	REC_WORD_VV	3.525	n/a	<>	-999	16	n/a	n/a	pyFR	0	TJ039
7148.831	1.0	2693014	REC_WORD	1.0	n/a	KEY	-999	16	n/a	n/a	pyFR	0	TJ039
7149.831	2.42	2694014	REC_WORD_VV	2.42	n/a	<>	-999	16	n/a	n/a	pyFR	0	TJ039
7152.251	5.221	2696434	REC_WORD_VV	5.221	n/a	<>	-999	16	n/a	n/a	pyFR	0	TJ039
7157.472	1.0	2701655	REC_WORD_VV	1.0	n/a	<>	-999	16	n/a	n/a	pyFR	0	TJ039
7158.472	2.532	2702655	REC_WORD_VV	2.532	n/a	<>	-999	16	n/a	n/a	pyFR	0	TJ039
7161.004	7.996	2705187	REC_WORD_VV	7.996	n/a	<>	-999	16	n/a	n/a	pyFR	0	TJ039
7169.0	1.0	2713183	REC_WORD_VV	1.0	n/a	<>	-999	16	n/a	n/a	pyFR	0	TJ039
7170.0	5.554	2714183	REC_WORD_VV	5.554	n/a	<>	-999	16	n/a	n/a	pyFR	0	TJ039
7175.554	1.0	2719737	REC_WORD	1.0	n/a	SPEAK	-999	16	n/a	n/a	pyFR	0	TJ039
7176.554	694.921	2720737	REC_WORD_VV	694.921	n/a	<>	-999	16	n/a	n/a	pyFR	0	TJ039
7871.475	0.107	3415655	SESS_END	n/a	n/a	n/a	-999	16	n/a	n/a	pyFR	0	TJ039
7871.582	0.0	3415762	E	n/a	n/a	n/a	-999	16	n/a	n/a	pyFR	0	TJ039
