onset	duration	sample	trial_type	response_time	stim_file	item_name	serialpos	list	test	answer	experiment	session	subject
0.0	6.564	128933	E	n/a	n/a	n/a	-999	-999	n/a	n/a	pyFR	0	TJ048
6.564	0.001	135497	B	n/a	n/a	n/a	-999	-999	n/a	n/a	pyFR	0	TJ048
6.565	238.424	135498	SESS_START	n/a	n/a	n/a	-999	-999	n/a	n/a	pyFR	0	TJ048
244.989	0.0	373920	B	n/a	n/a	n/a	-999	-999	n/a	n/a	pyFR	0	TJ048
244.989	119.08	373920	SESS_START	n/a	n/a	n/a	-999	-999	n/a	n/a	pyFR	0	TJ048
364.069	0.02	493000	START	n/a	n/a	n/a	n/a	0	[-999 -999 -999]	-999	pyFR	0	TJ048
364.089	10.739	493020	PROB	10.708	n/a	n/a	n/a	0	[7 4 7]	18	pyFR	0	TJ048
374.828	4.509	503759	PROB	4.473	n/a	n/a	n/a	0	[2 7 9]	18	pyFR	0	TJ048
379.337	7.248	508268	PROB	7.22	n/a	n/a	n/a	0	[1 7 5]	13	pyFR	0	TJ048
386.585	3.29	515516	PROB	3.26	n/a	n/a	n/a	0	[3 2 8]	13	pyFR	0	TJ048
389.875	3.891	518806	PROB	3.858	n/a	n/a	n/a	0	[5 6 6]	17	pyFR	0	TJ048
393.766	6.927	522696	PROB	6.927	n/a	n/a	n/a	0	[4 1 3]	8	pyFR	0	TJ048
400.693	17.957	529623	STOP	n/a	n/a	n/a	n/a	0	[-999 -999 -999]	-999	pyFR	0	TJ048
418.65	0.016	547580	TRIAL	n/a	n/a	n/a	-999	1	n/a	n/a	pyFR	0	TJ048
418.666	2.755	547596	ORIENT	n/a	n/a	n/a	-999	1	n/a	n/a	pyFR	0	TJ048
421.421	2.705	550351	WORD	n/a	wordpools/wordpool_EN.txt	HOUSE	1	1	n/a	n/a	pyFR	0	TJ048
424.126	2.489	553056	WORD	n/a	wordpools/wordpool_EN.txt	FARM	2	1	n/a	n/a	pyFR	0	TJ048
426.615	2.604	555545	WORD	n/a	wordpools/wordpool_EN.txt	ROPE	3	1	n/a	n/a	pyFR	0	TJ048
429.219	2.54	558149	WORD	n/a	wordpools/wordpool_EN.txt	CAVE	4	1	n/a	n/a	pyFR	0	TJ048
431.759	2.705	560689	WORD	n/a	wordpools/wordpool_EN.txt	VINE	5	1	n/a	n/a	pyFR	0	TJ048
434.464	2.472	563394	WORD	n/a	wordpools/wordpool_EN.txt	WEED	6	1	n/a	n/a	pyFR	0	TJ048
436.936	2.622	565866	WORD	n/a	wordpools/wordpool_EN.txt	SHEEP	7	1	n/a	n/a	pyFR	0	TJ048
439.558	2.52	568488	WORD	n/a	wordpools/wordpool_EN.txt	MAIL	8	1	n/a	n/a	pyFR	0	TJ048
442.078	2.54	571008	WORD	n/a	wordpools/wordpool_EN.txt	QUEEN	9	1	n/a	n/a	pyFR	0	TJ048
444.618	2.755	573548	WORD	n/a	wordpools/wordpool_EN.txt	BALL	10	1	n/a	n/a	pyFR	0	TJ048
447.373	2.788	576303	WORD	n/a	wordpools/wordpool_EN.txt	TOAD	11	1	n/a	n/a	pyFR	0	TJ048
450.161	2.723	579091	WORD	n/a	wordpools/wordpool_EN.txt	PRINCE	12	1	n/a	n/a	pyFR	0	TJ048
452.884	2.555	581814	WORD	n/a	wordpools/wordpool_EN.txt	DOG	13	1	n/a	n/a	pyFR	0	TJ048
455.439	2.755	584369	WORD	n/a	wordpools/wordpool_EN.txt	GOLD	14	1	n/a	n/a	pyFR	0	TJ048
458.194	1.605	587124	WORD	n/a	wordpools/wordpool_EN.txt	SPOON	15	1	n/a	n/a	pyFR	0	TJ048
459.799	1.018	588729	START	n/a	n/a	n/a	n/a	1	[-999 -999 -999]	-999	pyFR	0	TJ048
460.817	9.953	589747	PROB	9.905	n/a	n/a	n/a	1	[6 6 5]	17	pyFR	0	TJ048
470.77	5.477	599700	PROB	5.447	n/a	n/a	n/a	1	[3 3 8]	14	pyFR	0	TJ048
476.247	3.374	605177	PROB	3.347	n/a	n/a	n/a	1	[1 6 2]	9	pyFR	0	TJ048
479.621	5.893	608551	PROB	5.893	n/a	n/a	n/a	1	[1 2 8]	11	pyFR	0	TJ048
485.514	1.172	614444	STOP	n/a	n/a	n/a	n/a	1	[-999 -999 -999]	-999	pyFR	0	TJ048
486.686	1.224	615616	REC_START	n/a	n/a	n/a	-999	1	n/a	n/a	pyFR	0	TJ048
487.91	0.642	616840	REC_WORD	1.224	n/a	HOUSE	-999	1	n/a	n/a	pyFR	0	TJ048
488.552	0.569	617482	REC_WORD	1.866	n/a	FARM	-999	1	n/a	n/a	pyFR	0	TJ048
489.121	0.816	618051	REC_WORD	2.435	n/a	ROPE	-999	1	n/a	n/a	pyFR	0	TJ048
489.937	1.159	618867	REC_WORD	3.251	n/a	CAVE	-999	1	n/a	n/a	pyFR	0	TJ048
491.096	0.904	620026	REC_WORD	4.41	n/a	QUEEN	-999	1	n/a	n/a	pyFR	0	TJ048
492.0	1.355	620930	REC_WORD	5.314	n/a	PRINCE	-999	1	n/a	n/a	pyFR	0	TJ048
493.355	3.211	622285	REC_WORD	6.669	n/a	DOG	-999	1	n/a	n/a	pyFR	0	TJ048
496.566	1.998	625496	REC_WORD	9.88	n/a	TOAD	-999	1	n/a	n/a	pyFR	0	TJ048
498.564	7.669	627494	REC_WORD	11.878	n/a	SHEEP	-999	1	n/a	n/a	pyFR	0	TJ048
506.233	34.511	635163	REC_WORD_VV	19.547	n/a	<>	-999	1	n/a	n/a	pyFR	0	TJ048
540.744	0.016	669674	TRIAL	n/a	n/a	n/a	-999	2	n/a	n/a	pyFR	0	TJ048
540.76	2.973	669690	ORIENT	n/a	n/a	n/a	-999	2	n/a	n/a	pyFR	0	TJ048
543.733	2.655	672662	WORD	n/a	wordpools/wordpool_EN.txt	WORLD	1	2	n/a	n/a	pyFR	0	TJ048
546.388	2.771	675317	WORD	n/a	wordpools/wordpool_EN.txt	HORN	2	2	n/a	n/a	pyFR	0	TJ048
549.159	2.556	678088	WORD	n/a	wordpools/wordpool_EN.txt	SUIT	3	2	n/a	n/a	pyFR	0	TJ048
551.715	2.539	680644	WORD	n/a	wordpools/wordpool_EN.txt	MOON	4	2	n/a	n/a	pyFR	0	TJ048
554.254	2.605	683183	WORD	n/a	wordpools/wordpool_EN.txt	CUP	5	2	n/a	n/a	pyFR	0	TJ048
556.859	2.605	685788	WORD	n/a	wordpools/wordpool_EN.txt	COAT	6	2	n/a	n/a	pyFR	0	TJ048
559.464	2.738	688393	WORD	n/a	wordpools/wordpool_EN.txt	TOAST	7	2	n/a	n/a	pyFR	0	TJ048
562.202	2.74	691131	WORD	n/a	wordpools/wordpool_EN.txt	ROAD	8	2	n/a	n/a	pyFR	0	TJ048
564.942	2.572	693871	WORD	n/a	wordpools/wordpool_EN.txt	BOY	9	2	n/a	n/a	pyFR	0	TJ048
567.514	2.505	696443	WORD	n/a	wordpools/wordpool_EN.txt	SHOE	10	2	n/a	n/a	pyFR	0	TJ048
570.019	2.605	698948	WORD	n/a	wordpools/wordpool_EN.txt	CLOCK	11	2	n/a	n/a	pyFR	0	TJ048
572.624	2.437	701553	WORD	n/a	wordpools/wordpool_EN.txt	SOAP	12	2	n/a	n/a	pyFR	0	TJ048
575.061	2.69	703990	WORD	n/a	wordpools/wordpool_EN.txt	BANK	13	2	n/a	n/a	pyFR	0	TJ048
577.751	2.437	706680	WORD	n/a	wordpools/wordpool_EN.txt	CLOWN	14	2	n/a	n/a	pyFR	0	TJ048
580.188	1.606	709117	WORD	n/a	wordpools/wordpool_EN.txt	TRAY	15	2	n/a	n/a	pyFR	0	TJ048
581.794	1.167	710723	START	n/a	n/a	n/a	n/a	2	[-999 -999 -999]	-999	pyFR	0	TJ048
582.961	5.01	711890	PROB	4.973	n/a	n/a	n/a	2	[2 6 5]	13	pyFR	0	TJ048
587.971	4.058	716900	PROB	4.027	n/a	n/a	n/a	2	[3 8 5]	14	pyFR	0	TJ048
592.029	8.601	720958	PROB	8.569	n/a	n/a	n/a	2	[2 6 5]	13	pyFR	0	TJ048
600.63	3.192	729559	PROB	3.192	n/a	n/a	n/a	2	[3 3 8]	14	pyFR	0	TJ048
603.822	1.134	732751	STOP	n/a	n/a	n/a	n/a	2	[-999 -999 -999]	-999	pyFR	0	TJ048
604.956	0.685	733885	REC_START	n/a	n/a	n/a	-999	2	n/a	n/a	pyFR	0	TJ048
605.641	1.169	734570	REC_WORD	0.685	n/a	WORLD	-999	2	n/a	n/a	pyFR	0	TJ048
606.81	4.478	735739	REC_WORD	1.854	n/a	HORN	-999	2	n/a	n/a	pyFR	0	TJ048
611.288	6.376	740217	REC_WORD	6.332	n/a	TRAY	-999	2	n/a	n/a	pyFR	0	TJ048
617.664	1.0	746593	REC_WORD_VV	12.708	n/a	<>	-999	2	n/a	n/a	pyFR	0	TJ048
618.664	1.0	747593	REC_WORD_VV	13.708	n/a	<>	-999	2	n/a	n/a	pyFR	0	TJ048
619.664	1.0	748593	REC_WORD_VV	14.708	n/a	<>	-999	2	n/a	n/a	pyFR	0	TJ048
620.664	1.0	749593	REC_WORD_VV	15.708	n/a	<>	-999	2	n/a	n/a	pyFR	0	TJ048
621.664	4.148	750593	REC_WORD_VV	16.708	n/a	<>	-999	2	n/a	n/a	pyFR	0	TJ048
625.812	7.497	754741	REC_WORD_VV	20.856	n/a	<>	-999	2	n/a	n/a	pyFR	0	TJ048
633.309	1.0	762238	REC_WORD_VV	28.353	n/a	<>	-999	2	n/a	n/a	pyFR	0	TJ048
634.309	0.99	763238	REC_WORD_VV	29.353	n/a	<>	-999	2	n/a	n/a	pyFR	0	TJ048
635.299	1.0	764228	REC_WORD	30.343	n/a	MOON	-999	2	n/a	n/a	pyFR	0	TJ048
636.299	102.841	765228	REC_WORD_VV	31.343	n/a	<>	-999	2	n/a	n/a	pyFR	0	TJ048
739.14	0.016	868068	TRIAL	n/a	n/a	n/a	-999	3	n/a	n/a	pyFR	0	TJ048
739.156	2.989	868084	ORIENT	n/a	n/a	n/a	-999	3	n/a	n/a	pyFR	0	TJ048
742.145	2.54	871073	WORD	n/a	wordpools/wordpool_EN.txt	FLAME	1	3	n/a	n/a	pyFR	0	TJ048
744.685	2.772	873613	WORD	n/a	wordpools/wordpool_EN.txt	CAPE	2	3	n/a	n/a	pyFR	0	TJ048
747.457	2.572	876385	WORD	n/a	wordpools/wordpool_EN.txt	EEL	3	3	n/a	n/a	pyFR	0	TJ048
750.029	2.805	878957	WORD	n/a	wordpools/wordpool_EN.txt	PIPE	4	3	n/a	n/a	pyFR	0	TJ048
752.834	2.689	881762	WORD	n/a	wordpools/wordpool_EN.txt	TOOL	5	3	n/a	n/a	pyFR	0	TJ048
755.523	2.654	884451	WORD	n/a	wordpools/wordpool_EN.txt	HEN	6	3	n/a	n/a	pyFR	0	TJ048
758.177	2.506	887105	WORD	n/a	wordpools/wordpool_EN.txt	KEY	7	3	n/a	n/a	pyFR	0	TJ048
760.683	2.622	889611	WORD	n/a	wordpools/wordpool_EN.txt	OAK	8	3	n/a	n/a	pyFR	0	TJ048
763.305	2.739	892233	WORD	n/a	wordpools/wordpool_EN.txt	COUCH	9	3	n/a	n/a	pyFR	0	TJ048
766.044	2.656	894972	WORD	n/a	wordpools/wordpool_EN.txt	SCHOOL	10	3	n/a	n/a	pyFR	0	TJ048
768.7	2.655	897628	WORD	n/a	wordpools/wordpool_EN.txt	MOUSE	11	3	n/a	n/a	pyFR	0	TJ048
771.355	2.754	900283	WORD	n/a	wordpools/wordpool_EN.txt	CART	12	3	n/a	n/a	pyFR	0	TJ048
774.109	2.79	903037	WORD	n/a	wordpools/wordpool_EN.txt	BRANCH	13	3	n/a	n/a	pyFR	0	TJ048
776.899	2.438	905827	WORD	n/a	wordpools/wordpool_EN.txt	RAIN	14	3	n/a	n/a	pyFR	0	TJ048
779.337	1.605	908265	WORD	n/a	wordpools/wordpool_EN.txt	KITE	15	3	n/a	n/a	pyFR	0	TJ048
780.942	0.9	909870	START	n/a	n/a	n/a	n/a	3	[-999 -999 -999]	-999	pyFR	0	TJ048
781.842	4.459	910770	PROB	4.43	n/a	n/a	n/a	3	[3 2 3]	8	pyFR	0	TJ048
786.301	7.014	915229	PROB	6.979	n/a	n/a	n/a	3	[6 9 8]	23	pyFR	0	TJ048
793.315	3.14	922243	PROB	3.109	n/a	n/a	n/a	3	[2 3 6]	11	pyFR	0	TJ048
796.455	4.492	925383	PROB	4.465	n/a	n/a	n/a	3	[7 6 9]	22	pyFR	0	TJ048
800.947	7.813	929875	PROB	7.813	n/a	n/a	n/a	3	[7 9 9]	25	pyFR	0	TJ048
808.76	1.139	937688	STOP	n/a	n/a	n/a	n/a	3	[-999 -999 -999]	-999	pyFR	0	TJ048
809.899	1.456	938827	REC_START	n/a	n/a	n/a	-999	3	n/a	n/a	pyFR	0	TJ048
811.355	0.125	940283	REC_WORD	1.456	n/a	FLAME	-999	3	n/a	n/a	pyFR	0	TJ048
811.48	1.694	940408	REC_WORD_VV	1.581	n/a	<>	-999	3	n/a	n/a	pyFR	0	TJ048
813.174	1.923	942102	REC_WORD	3.275	n/a	CAPE	-999	3	n/a	n/a	pyFR	0	TJ048
815.097	6.11	944025	REC_WORD	5.198	n/a	TOOL	-999	3	n/a	n/a	pyFR	0	TJ048
821.207	5.782	950135	REC_WORD_VV	11.308	n/a	<>	-999	3	n/a	n/a	pyFR	0	TJ048
826.989	7.131	955917	REC_WORD_VV	17.09	n/a	<>	-999	3	n/a	n/a	pyFR	0	TJ048
834.12	15.282	963048	REC_WORD_VV	24.221	n/a	<>	-999	3	n/a	n/a	pyFR	0	TJ048
849.402	1.0	978329	REC_WORD_VV	39.503	n/a	<>	-999	3	n/a	n/a	pyFR	0	TJ048
850.402	1.0	979329	REC_WORD_VV	40.503	n/a	<>	-999	3	n/a	n/a	pyFR	0	TJ048
851.402	1.0	980329	REC_WORD_VV	41.503	n/a	<>	-999	3	n/a	n/a	pyFR	0	TJ048
852.402	1.0	981329	REC_WORD_VV	42.503	n/a	<>	-999	3	n/a	n/a	pyFR	0	TJ048
853.402	1.0	982329	REC_WORD_VV	43.503	n/a	<>	-999	3	n/a	n/a	pyFR	0	TJ048
854.402	3.843	983329	REC_WORD_VV	44.503	n/a	<>	-999	3	n/a	n/a	pyFR	0	TJ048
858.245	0.017	987172	TRIAL	n/a	n/a	n/a	-999	4	n/a	n/a	pyFR	0	TJ048
858.262	2.955	987189	ORIENT	n/a	n/a	n/a	-999	4	n/a	n/a	pyFR	0	TJ048
861.217	2.623	990144	WORD	n/a	wordpools/wordpool_EN.txt	WOLF	1	4	n/a	n/a	pyFR	0	TJ048
863.84	2.739	992767	WORD	n/a	wordpools/wordpool_EN.txt	BARN	2	4	n/a	n/a	pyFR	0	TJ048
866.579	2.822	995506	WORD	n/a	wordpools/wordpool_EN.txt	STRAW	3	4	n/a	n/a	pyFR	0	TJ048
869.401	2.472	998328	WORD	n/a	wordpools/wordpool_EN.txt	BEAR	4	4	n/a	n/a	pyFR	0	TJ048
871.873	2.555	1000800	WORD	n/a	wordpools/wordpool_EN.txt	BEE	5	4	n/a	n/a	pyFR	0	TJ048
874.428	2.522	1003355	WORD	n/a	wordpools/wordpool_EN.txt	BOOT	6	4	n/a	n/a	pyFR	0	TJ048
876.95	2.438	1005877	WORD	n/a	wordpools/wordpool_EN.txt	ROSE	7	4	n/a	n/a	pyFR	0	TJ048
879.388	2.804	1008315	WORD	n/a	wordpools/wordpool_EN.txt	CHIEF	8	4	n/a	n/a	pyFR	0	TJ048
882.192	2.807	1011119	WORD	n/a	wordpools/wordpool_EN.txt	BEAK	9	4	n/a	n/a	pyFR	0	TJ048
884.999	2.639	1013926	WORD	n/a	wordpools/wordpool_EN.txt	HILL	10	4	n/a	n/a	pyFR	0	TJ048
887.638	2.621	1016565	WORD	n/a	wordpools/wordpool_EN.txt	CLOUD	11	4	n/a	n/a	pyFR	0	TJ048
890.259	2.455	1019186	WORD	n/a	wordpools/wordpool_EN.txt	BLOOM	12	4	n/a	n/a	pyFR	0	TJ048
892.714	2.722	1021641	WORD	n/a	wordpools/wordpool_EN.txt	PARK	13	4	n/a	n/a	pyFR	0	TJ048
895.436	2.439	1024363	WORD	n/a	wordpools/wordpool_EN.txt	SNAIL	14	4	n/a	n/a	pyFR	0	TJ048
897.875	1.621	1026802	WORD	n/a	wordpools/wordpool_EN.txt	CLAY	15	4	n/a	n/a	pyFR	0	TJ048
899.496	1.151	1028423	START	n/a	n/a	n/a	n/a	4	[-999 -999 -999]	-999	pyFR	0	TJ048
900.647	3.073	1029574	PROB	3.037	n/a	n/a	n/a	4	[6 3 2]	11	pyFR	0	TJ048
903.72	3.857	1032647	PROB	3.821	n/a	n/a	n/a	4	[8 6 7]	21	pyFR	0	TJ048
907.577	2.756	1036504	PROB	2.731	n/a	n/a	n/a	4	[7 9 7]	23	pyFR	0	TJ048
910.333	3.823	1039260	PROB	3.798	n/a	n/a	n/a	4	[8 4 4]	16	pyFR	0	TJ048
914.156	3.725	1043083	PROB	3.688	n/a	n/a	n/a	4	[8 3 2]	13	pyFR	0	TJ048
917.881	3.274	1046808	PROB	3.274	n/a	n/a	n/a	4	[7 4 3]	14	pyFR	0	TJ048
921.155	1.119	1050082	STOP	n/a	n/a	n/a	n/a	4	[-999 -999 -999]	-999	pyFR	0	TJ048
922.274	2.019	1051201	REC_START	n/a	n/a	n/a	-999	4	n/a	n/a	pyFR	0	TJ048
924.293	0.365	1053220	REC_WORD_VV	2.019	n/a	<>	-999	4	n/a	n/a	pyFR	0	TJ048
924.658	1.957	1053585	REC_WORD	2.384	n/a	WOLF	-999	4	n/a	n/a	pyFR	0	TJ048
926.615	2.164	1055542	REC_WORD	4.341	n/a	SNAIL	-999	4	n/a	n/a	pyFR	0	TJ048
928.779	1.462	1057706	REC_WORD	6.505	n/a	BEE	-999	4	n/a	n/a	pyFR	0	TJ048
930.241	10.029	1059168	REC_WORD	7.967	n/a	BOOT	-999	4	n/a	n/a	pyFR	0	TJ048
940.27	11.084	1069197	REC_WORD_VV	17.996	n/a	<>	-999	4	n/a	n/a	pyFR	0	TJ048
951.354	0.412	1080281	REC_WORD_VV	29.08	n/a	<>	-999	4	n/a	n/a	pyFR	0	TJ048
951.766	8.576	1080693	REC_WORD	29.492	n/a	BLOOM	-999	4	n/a	n/a	pyFR	0	TJ048
960.342	1.0	1089269	REC_WORD_VV	38.068	n/a	<>	-999	4	n/a	n/a	pyFR	0	TJ048
961.342	9.696	1090269	REC_WORD_VV	39.068	n/a	<>	-999	4	n/a	n/a	pyFR	0	TJ048
971.038	0.017	1099965	TRIAL	n/a	n/a	n/a	-999	5	n/a	n/a	pyFR	0	TJ048
971.055	2.638	1099982	ORIENT	n/a	n/a	n/a	-999	5	n/a	n/a	pyFR	0	TJ048
973.693	2.706	1102620	WORD	n/a	wordpools/wordpool_EN.txt	HORSE	1	5	n/a	n/a	pyFR	0	TJ048
976.399	2.671	1105326	WORD	n/a	wordpools/wordpool_EN.txt	SPEAR	2	5	n/a	n/a	pyFR	0	TJ048
979.07	2.806	1107997	WORD	n/a	wordpools/wordpool_EN.txt	MAP	3	5	n/a	n/a	pyFR	0	TJ048
981.876	2.789	1110803	WORD	n/a	wordpools/wordpool_EN.txt	SEAT	4	5	n/a	n/a	pyFR	0	TJ048
984.665	2.772	1113592	WORD	n/a	wordpools/wordpool_EN.txt	PLANE	5	5	n/a	n/a	pyFR	0	TJ048
987.437	2.688	1116364	WORD	n/a	wordpools/wordpool_EN.txt	SLEEVE	6	5	n/a	n/a	pyFR	0	TJ048
990.125	2.422	1119052	WORD	n/a	wordpools/wordpool_EN.txt	SIGN	7	5	n/a	n/a	pyFR	0	TJ048
992.547	2.588	1121474	WORD	n/a	wordpools/wordpool_EN.txt	OWL	8	5	n/a	n/a	pyFR	0	TJ048
995.135	2.523	1124061	WORD	n/a	wordpools/wordpool_EN.txt	HAWK	9	5	n/a	n/a	pyFR	0	TJ048
997.658	2.672	1126584	WORD	n/a	wordpools/wordpool_EN.txt	JAR	10	5	n/a	n/a	pyFR	0	TJ048
1000.33	2.722	1129256	WORD	n/a	wordpools/wordpool_EN.txt	GATE	11	5	n/a	n/a	pyFR	0	TJ048
1003.052	2.488	1131978	WORD	n/a	wordpools/wordpool_EN.txt	DRUM	12	5	n/a	n/a	pyFR	0	TJ048
1005.54	2.489	1134466	WORD	n/a	wordpools/wordpool_EN.txt	NOSE	13	5	n/a	n/a	pyFR	0	TJ048
1008.029	2.471	1136955	WORD	n/a	wordpools/wordpool_EN.txt	SQUARE	14	5	n/a	n/a	pyFR	0	TJ048
1010.5	1.62	1139426	WORD	n/a	wordpools/wordpool_EN.txt	PIE	15	5	n/a	n/a	pyFR	0	TJ048
1012.12	0.984	1141046	START	n/a	n/a	n/a	n/a	5	[-999 -999 -999]	-999	pyFR	0	TJ048
1013.104	4.844	1142030	PROB	4.817	n/a	n/a	n/a	5	[6 1 8]	15	pyFR	0	TJ048
1017.948	2.639	1146874	PROB	2.604	n/a	n/a	n/a	5	[7 4 6]	17	pyFR	0	TJ048
1020.587	4.693	1149513	PROB	4.66	n/a	n/a	n/a	5	[4 9 1]	14	pyFR	0	TJ048
1025.28	5.444	1154206	PROB	5.409	n/a	n/a	n/a	5	[8 6 5]	19	pyFR	0	TJ048
1030.724	1.724	1159650	PROB	1.724	n/a	n/a	n/a	5	[5 5 4]	14	pyFR	0	TJ048
1032.448	1.132	1161374	STOP	n/a	n/a	n/a	n/a	5	[-999 -999 -999]	-999	pyFR	0	TJ048
1033.58	1.311	1162506	REC_START	n/a	n/a	n/a	-999	5	n/a	n/a	pyFR	0	TJ048
1034.891	0.76	1163817	REC_WORD	1.311	n/a	DRUM	-999	5	n/a	n/a	pyFR	0	TJ048
1035.651	6.729	1164577	REC_WORD	2.071	n/a	SQUARE	-999	5	n/a	n/a	pyFR	0	TJ048
1042.38	1.0	1171306	REC_WORD	8.8	n/a	HORSE	-999	5	n/a	n/a	pyFR	0	TJ048
1043.38	3.319	1172306	REC_WORD_VV	9.8	n/a	<>	-999	5	n/a	n/a	pyFR	0	TJ048
1046.699	28.504	1175625	REC_WORD_VV	13.119	n/a	<>	-999	5	n/a	n/a	pyFR	0	TJ048
1075.203	7.375	1204129	REC_WORD_VV	41.623	n/a	<>	-999	5	n/a	n/a	pyFR	0	TJ048
1082.578	0.016	1211504	TRIAL	n/a	n/a	n/a	-999	6	n/a	n/a	pyFR	0	TJ048
1082.594	2.638	1211520	ORIENT	n/a	n/a	n/a	-999	6	n/a	n/a	pyFR	0	TJ048
1085.232	2.589	1214158	WORD	n/a	wordpools/wordpool_EN.txt	JUDGE	1	6	n/a	n/a	pyFR	0	TJ048
1087.821	2.706	1216747	WORD	n/a	wordpools/wordpool_EN.txt	DOOR	2	6	n/a	n/a	pyFR	0	TJ048
1090.527	2.704	1219453	WORD	n/a	wordpools/wordpool_EN.txt	FAN	3	6	n/a	n/a	pyFR	0	TJ048
1093.231	2.69	1222157	WORD	n/a	wordpools/wordpool_EN.txt	BATH	4	6	n/a	n/a	pyFR	0	TJ048
1095.921	2.739	1224847	WORD	n/a	wordpools/wordpool_EN.txt	SMOKE	5	6	n/a	n/a	pyFR	0	TJ048
1098.66	2.587	1227586	WORD	n/a	wordpools/wordpool_EN.txt	FUDGE	6	6	n/a	n/a	pyFR	0	TJ048
1101.247	2.573	1230173	WORD	n/a	wordpools/wordpool_EN.txt	STEAM	7	6	n/a	n/a	pyFR	0	TJ048
1103.82	2.472	1232746	WORD	n/a	wordpools/wordpool_EN.txt	SEED	8	6	n/a	n/a	pyFR	0	TJ048
1106.292	2.722	1235218	WORD	n/a	wordpools/wordpool_EN.txt	BROOM	9	6	n/a	n/a	pyFR	0	TJ048
1109.014	2.438	1237940	WORD	n/a	wordpools/wordpool_EN.txt	TEA	10	6	n/a	n/a	pyFR	0	TJ048
1111.452	2.638	1240378	WORD	n/a	wordpools/wordpool_EN.txt	BLUSH	11	6	n/a	n/a	pyFR	0	TJ048
1114.09	2.489	1243016	WORD	n/a	wordpools/wordpool_EN.txt	WHALE	12	6	n/a	n/a	pyFR	0	TJ048
1116.579	2.806	1245505	WORD	n/a	wordpools/wordpool_EN.txt	YARD	13	6	n/a	n/a	pyFR	0	TJ048
1119.385	2.555	1248311	WORD	n/a	wordpools/wordpool_EN.txt	STRING	14	6	n/a	n/a	pyFR	0	TJ048
1121.94	1.604	1250866	WORD	n/a	wordpools/wordpool_EN.txt	PANTS	15	6	n/a	n/a	pyFR	0	TJ048
1123.544	1.001	1252470	START	n/a	n/a	n/a	n/a	6	[-999 -999 -999]	-999	pyFR	0	TJ048
1124.545	3.69	1253471	PROB	3.667	n/a	n/a	n/a	6	[3 5 8]	16	pyFR	0	TJ048
1128.235	3.324	1257161	PROB	3.298	n/a	n/a	n/a	6	[9 5 9]	23	pyFR	0	TJ048
1131.559	6.229	1260485	PROB	6.206	n/a	n/a	n/a	6	[8 9 8]	25	pyFR	0	TJ048
1137.788	2.806	1266714	PROB	2.777	n/a	n/a	n/a	6	[6 2 2]	10	pyFR	0	TJ048
1140.594	2.621	1269520	PROB	2.586	n/a	n/a	n/a	6	[5 1 3]	9	pyFR	0	TJ048
1143.215	2.342	1272141	PROB	2.342	n/a	n/a	n/a	6	[2 5 2]	9	pyFR	0	TJ048
1145.557	1.217	1274482	STOP	n/a	n/a	n/a	n/a	6	[-999 -999 -999]	-999	pyFR	0	TJ048
1146.774	0.636	1275699	REC_START	n/a	n/a	n/a	-999	6	n/a	n/a	pyFR	0	TJ048
1147.41	0.565	1276335	REC_WORD	0.636	n/a	JUDGE	-999	6	n/a	n/a	pyFR	0	TJ048
1147.975	0.619	1276900	REC_WORD	1.201	n/a	FUDGE	-999	6	n/a	n/a	pyFR	0	TJ048
1148.594	0.316	1277519	REC_WORD	1.82	n/a	DOOR	-999	6	n/a	n/a	pyFR	0	TJ048
1148.91	0.656	1277835	REC_WORD	2.136	n/a	FAN	-999	6	n/a	n/a	pyFR	0	TJ048
1149.566	8.352	1278491	REC_WORD	2.792	n/a	PANTS	-999	6	n/a	n/a	pyFR	0	TJ048
1157.918	5.971	1286843	REC_WORD_VV	11.144	n/a	<>	-999	6	n/a	n/a	pyFR	0	TJ048
1163.889	1.0	1292814	REC_WORD_VV	17.115	n/a	<>	-999	6	n/a	n/a	pyFR	0	TJ048
1164.889	1.0	1293814	REC_WORD_VV	18.115	n/a	<>	-999	6	n/a	n/a	pyFR	0	TJ048
1165.889	3.554	1294814	REC_WORD_VV	19.115	n/a	<>	-999	6	n/a	n/a	pyFR	0	TJ048
1169.443	1.0	1298368	REC_WORD_VV	22.669	n/a	<>	-999	6	n/a	n/a	pyFR	0	TJ048
1170.443	1.0	1299368	REC_WORD_VV	23.669	n/a	<>	-999	6	n/a	n/a	pyFR	0	TJ048
1171.443	1.0	1300368	REC_WORD_VV	24.669	n/a	<>	-999	6	n/a	n/a	pyFR	0	TJ048
1172.443	26.435	1301368	REC_WORD_VV	25.669	n/a	<>	-999	6	n/a	n/a	pyFR	0	TJ048
1198.878	0.016	1327803	TRIAL	n/a	n/a	n/a	-999	7	n/a	n/a	pyFR	0	TJ048
1198.894	2.789	1327819	ORIENT	n/a	n/a	n/a	-999	7	n/a	n/a	pyFR	0	TJ048
1201.683	2.822	1330608	WORD	n/a	wordpools/wordpool_EN.txt	TRUCK	1	7	n/a	n/a	pyFR	0	TJ048
1204.505	2.756	1333430	WORD	n/a	wordpools/wordpool_EN.txt	LAMB	2	7	n/a	n/a	pyFR	0	TJ048
1207.261	2.571	1336186	WORD	n/a	wordpools/wordpool_EN.txt	FOAM	3	7	n/a	n/a	pyFR	0	TJ048
1209.832	2.756	1338757	WORD	n/a	wordpools/wordpool_EN.txt	VEST	4	7	n/a	n/a	pyFR	0	TJ048
1212.588	2.471	1341513	WORD	n/a	wordpools/wordpool_EN.txt	GLASS	5	7	n/a	n/a	pyFR	0	TJ048
1215.059	2.556	1343984	WORD	n/a	wordpools/wordpool_EN.txt	ROOM	6	7	n/a	n/a	pyFR	0	TJ048
1217.615	2.454	1346540	WORD	n/a	wordpools/wordpool_EN.txt	BOARD	7	7	n/a	n/a	pyFR	0	TJ048
1220.069	2.556	1348994	WORD	n/a	wordpools/wordpool_EN.txt	FLUTE	8	7	n/a	n/a	pyFR	0	TJ048
1222.625	2.604	1351550	WORD	n/a	wordpools/wordpool_EN.txt	FOOT	9	7	n/a	n/a	pyFR	0	TJ048
1225.229	2.806	1354154	WORD	n/a	wordpools/wordpool_EN.txt	BREAD	10	7	n/a	n/a	pyFR	0	TJ048
1228.035	2.623	1356960	WORD	n/a	wordpools/wordpool_EN.txt	CROW	11	7	n/a	n/a	pyFR	0	TJ048
1230.658	2.537	1359583	WORD	n/a	wordpools/wordpool_EN.txt	FISH	12	7	n/a	n/a	pyFR	0	TJ048
1233.195	2.539	1362120	WORD	n/a	wordpools/wordpool_EN.txt	GIRL	13	7	n/a	n/a	pyFR	0	TJ048
1235.734	2.639	1364659	WORD	n/a	wordpools/wordpool_EN.txt	TIE	14	7	n/a	n/a	pyFR	0	TJ048
1238.373	1.621	1367298	WORD	n/a	wordpools/wordpool_EN.txt	PIG	15	7	n/a	n/a	pyFR	0	TJ048
1239.994	1.001	1368919	START	n/a	n/a	n/a	n/a	7	[-999 -999 -999]	-999	pyFR	0	TJ048
1240.995	2.906	1369920	PROB	2.871	n/a	n/a	n/a	7	[3 3 6]	12	pyFR	0	TJ048
1243.901	8.016	1372826	PROB	7.981	n/a	n/a	n/a	7	[7 8 2]	17	pyFR	0	TJ048
1251.917	3.089	1380842	PROB	3.052	n/a	n/a	n/a	7	[7 5 9]	19	pyFR	0	TJ048
1255.006	6.507	1383931	PROB	6.507	n/a	n/a	n/a	7	[8 1 7]	17	pyFR	0	TJ048
1261.513	1.159	1390438	STOP	n/a	n/a	n/a	n/a	7	[-999 -999 -999]	-999	pyFR	0	TJ048
1262.672	1.657	1391597	REC_START	n/a	n/a	n/a	-999	7	n/a	n/a	pyFR	0	TJ048
1264.329	2.09	1393254	REC_WORD_VV	1.657	n/a	<>	-999	7	n/a	n/a	pyFR	0	TJ048
1266.419	2.279	1395344	REC_WORD	3.747	n/a	FISH	-999	7	n/a	n/a	pyFR	0	TJ048
1268.698	2.586	1397623	REC_WORD	6.026	n/a	FLUTE	-999	7	n/a	n/a	pyFR	0	TJ048
1271.284	2.814	1400209	REC_WORD	8.612	n/a	PIG	-999	7	n/a	n/a	pyFR	0	TJ048
1274.098	3.426	1403023	REC_WORD	11.426	n/a	GLASS	-999	7	n/a	n/a	pyFR	0	TJ048
1277.524	0.312	1406449	REC_WORD_VV	14.852	n/a	<>	-999	7	n/a	n/a	pyFR	0	TJ048
1277.836	6.679	1406761	REC_WORD	15.164	n/a	ROOM	-999	7	n/a	n/a	pyFR	0	TJ048
1284.515	26.304	1413440	REC_WORD_VV	21.843	n/a	<>	-999	7	n/a	n/a	pyFR	0	TJ048
1310.819	0.016	1439743	TRIAL	n/a	n/a	n/a	-999	8	n/a	n/a	pyFR	0	TJ048
1310.835	2.855	1439759	ORIENT	n/a	n/a	n/a	-999	8	n/a	n/a	pyFR	0	TJ048
1313.69	2.438	1442614	WORD	n/a	wordpools/wordpool_EN.txt	SALT	1	8	n/a	n/a	pyFR	0	TJ048
1316.128	2.439	1445052	WORD	n/a	wordpools/wordpool_EN.txt	MOOSE	2	8	n/a	n/a	pyFR	0	TJ048
1318.567	2.805	1447491	WORD	n/a	wordpools/wordpool_EN.txt	LEAF	3	8	n/a	n/a	pyFR	0	TJ048
1321.372	2.755	1450296	WORD	n/a	wordpools/wordpool_EN.txt	FUR	4	8	n/a	n/a	pyFR	0	TJ048
1324.127	2.573	1453051	WORD	n/a	wordpools/wordpool_EN.txt	STEM	5	8	n/a	n/a	pyFR	0	TJ048
1326.7	2.805	1455624	WORD	n/a	wordpools/wordpool_EN.txt	RICE	6	8	n/a	n/a	pyFR	0	TJ048
1329.505	2.773	1458429	WORD	n/a	wordpools/wordpool_EN.txt	GOAT	7	8	n/a	n/a	pyFR	0	TJ048
1332.278	2.488	1461202	WORD	n/a	wordpools/wordpool_EN.txt	BAND	8	8	n/a	n/a	pyFR	0	TJ048
1334.766	2.722	1463690	WORD	n/a	wordpools/wordpool_EN.txt	WAND	9	8	n/a	n/a	pyFR	0	TJ048
1337.488	2.505	1466412	WORD	n/a	wordpools/wordpool_EN.txt	GEESE	10	8	n/a	n/a	pyFR	0	TJ048
1339.993	2.522	1468917	WORD	n/a	wordpools/wordpool_EN.txt	VAN	11	8	n/a	n/a	pyFR	0	TJ048
1342.515	2.587	1471439	WORD	n/a	wordpools/wordpool_EN.txt	DITCH	12	8	n/a	n/a	pyFR	0	TJ048
1345.102	2.657	1474026	WORD	n/a	wordpools/wordpool_EN.txt	CHIN	13	8	n/a	n/a	pyFR	0	TJ048
1347.759	2.655	1476683	WORD	n/a	wordpools/wordpool_EN.txt	HAT	14	8	n/a	n/a	pyFR	0	TJ048
1350.414	1.621	1479338	WORD	n/a	wordpools/wordpool_EN.txt	CAT	15	8	n/a	n/a	pyFR	0	TJ048
1352.035	1.15	1480959	START	n/a	n/a	n/a	n/a	8	[-999 -999 -999]	-999	pyFR	0	TJ048
1353.185	5.06	1482109	PROB	5.028	n/a	n/a	n/a	8	[9 6 8]	23	pyFR	0	TJ048
1358.245	7.232	1487169	PROB	7.209	n/a	n/a	n/a	8	[9 5 3]	17	pyFR	0	TJ048
1365.477	7.48	1494401	PROB	7.48	n/a	n/a	n/a	8	[7 8 9]	24	pyFR	0	TJ048
1372.957	1.055	1501881	STOP	n/a	n/a	n/a	n/a	8	[-999 -999 -999]	-999	pyFR	0	TJ048
1374.012	1.296	1502936	REC_START	n/a	n/a	n/a	-999	8	n/a	n/a	pyFR	0	TJ048
1375.308	0.574	1504232	REC_WORD	1.296	n/a	CAT	-999	8	n/a	n/a	pyFR	0	TJ048
1375.882	9.123	1504806	REC_WORD	1.87	n/a	HAT	-999	8	n/a	n/a	pyFR	0	TJ048
1385.005	1.0	1513929	REC_WORD	10.993	n/a	RICE	-999	8	n/a	n/a	pyFR	0	TJ048
1386.005	1.593	1514929	REC_WORD_VV	11.993	n/a	<>	-999	8	n/a	n/a	pyFR	0	TJ048
1387.598	4.912	1516522	REC_WORD	13.586	n/a	STEM	-999	8	n/a	n/a	pyFR	0	TJ048
1392.51	1.0	1521434	REC_WORD_VV	18.498	n/a	<>	-999	8	n/a	n/a	pyFR	0	TJ048
1393.51	1.0	1522434	REC_WORD_VV	19.498	n/a	<>	-999	8	n/a	n/a	pyFR	0	TJ048
1394.51	1.0	1523434	REC_WORD_VV	20.498	n/a	<>	-999	8	n/a	n/a	pyFR	0	TJ048
1395.51	27.666	1524434	REC_WORD_VV	21.498	n/a	<>	-999	8	n/a	n/a	pyFR	0	TJ048
1423.176	0.016	1552100	TRIAL	n/a	n/a	n/a	-999	9	n/a	n/a	pyFR	0	TJ048
1423.192	2.922	1552116	ORIENT	n/a	n/a	n/a	-999	9	n/a	n/a	pyFR	0	TJ048
1426.114	2.74	1555038	WORD	n/a	wordpools/wordpool_EN.txt	SPARK	1	9	n/a	n/a	pyFR	0	TJ048
1428.854	2.472	1557778	WORD	n/a	wordpools/wordpool_EN.txt	LAND	2	9	n/a	n/a	pyFR	0	TJ048
1431.326	2.821	1560250	WORD	n/a	wordpools/wordpool_EN.txt	TRAIN	3	9	n/a	n/a	pyFR	0	TJ048
1434.147	2.523	1563071	WORD	n/a	wordpools/wordpool_EN.txt	SLUSH	4	9	n/a	n/a	pyFR	0	TJ048
1436.67	2.638	1565594	WORD	n/a	wordpools/wordpool_EN.txt	FOX	5	9	n/a	n/a	pyFR	0	TJ048
1439.308	2.606	1568232	WORD	n/a	wordpools/wordpool_EN.txt	WALL	6	9	n/a	n/a	pyFR	0	TJ048
1441.914	2.622	1570838	WORD	n/a	wordpools/wordpool_EN.txt	TENT	7	9	n/a	n/a	pyFR	0	TJ048
1444.536	2.587	1573460	WORD	n/a	wordpools/wordpool_EN.txt	DESK	8	9	n/a	n/a	pyFR	0	TJ048
1447.123	2.807	1576046	WORD	n/a	wordpools/wordpool_EN.txt	WOOD	9	9	n/a	n/a	pyFR	0	TJ048
1449.93	2.605	1578853	WORD	n/a	wordpools/wordpool_EN.txt	OAR	10	9	n/a	n/a	pyFR	0	TJ048
1452.535	2.571	1581458	WORD	n/a	wordpools/wordpool_EN.txt	KING	11	9	n/a	n/a	pyFR	0	TJ048
1455.106	2.806	1584029	WORD	n/a	wordpools/wordpool_EN.txt	POLE	12	9	n/a	n/a	pyFR	0	TJ048
1457.912	2.706	1586835	WORD	n/a	wordpools/wordpool_EN.txt	PEN	13	9	n/a	n/a	pyFR	0	TJ048
1460.618	2.672	1589541	WORD	n/a	wordpools/wordpool_EN.txt	GLOVE	14	9	n/a	n/a	pyFR	0	TJ048
1463.29	1.604	1592213	WORD	n/a	wordpools/wordpool_EN.txt	LOCK	15	9	n/a	n/a	pyFR	0	TJ048
1464.894	1.184	1593817	START	n/a	n/a	n/a	n/a	9	[-999 -999 -999]	-999	pyFR	0	TJ048
1466.078	4.71	1595001	PROB	4.677	n/a	n/a	n/a	9	[7 5 5]	17	pyFR	0	TJ048
1470.788	4.075	1599711	PROB	4.038	n/a	n/a	n/a	9	[3 5 4]	12	pyFR	0	TJ048
1474.863	2.756	1603786	PROB	2.723	n/a	n/a	n/a	9	[9 1 5]	15	pyFR	0	TJ048
1477.619	5.626	1606542	PROB	5.59	n/a	n/a	n/a	9	[3 4 9]	16	pyFR	0	TJ048
1483.245	3.645	1612168	PROB	3.645	n/a	n/a	n/a	9	[2 9 2]	13	pyFR	0	TJ048
1486.89	1.15	1615813	STOP	n/a	n/a	n/a	n/a	9	[-999 -999 -999]	-999	pyFR	0	TJ048
1488.04	1.385	1616963	REC_START	n/a	n/a	n/a	-999	9	n/a	n/a	pyFR	0	TJ048
1489.425	0.908	1618348	REC_WORD	1.385	n/a	PEN	-999	9	n/a	n/a	pyFR	0	TJ048
1490.333	6.442	1619256	REC_WORD	2.293	n/a	DESK	-999	9	n/a	n/a	pyFR	0	TJ048
1496.775	8.334	1625698	REC_WORD	8.735	n/a	OAR	-999	9	n/a	n/a	pyFR	0	TJ048
1505.109	31.261	1634032	REC_WORD	17.069	n/a	SHOCK	-999	9	n/a	n/a	pyFR	0	TJ048
1536.37	0.016	1665293	TRIAL	n/a	n/a	n/a	-999	10	n/a	n/a	pyFR	0	TJ048
1536.386	2.805	1665309	ORIENT	n/a	n/a	n/a	-999	10	n/a	n/a	pyFR	0	TJ048
1539.191	2.79	1668114	WORD	n/a	wordpools/wordpool_EN.txt	FACE	1	10	n/a	n/a	pyFR	0	TJ048
1541.981	2.638	1670904	WORD	n/a	wordpools/wordpool_EN.txt	COIN	2	10	n/a	n/a	pyFR	0	TJ048
1544.619	2.454	1673542	WORD	n/a	wordpools/wordpool_EN.txt	GRAPE	3	10	n/a	n/a	pyFR	0	TJ048
1547.073	2.506	1675996	WORD	n/a	wordpools/wordpool_EN.txt	DOCK	4	10	n/a	n/a	pyFR	0	TJ048
1549.579	2.588	1678502	WORD	n/a	wordpools/wordpool_EN.txt	FORT	5	10	n/a	n/a	pyFR	0	TJ048
1552.167	2.439	1681090	WORD	n/a	wordpools/wordpool_EN.txt	PET	6	10	n/a	n/a	pyFR	0	TJ048
1554.606	2.587	1683529	WORD	n/a	wordpools/wordpool_EN.txt	SWORD	7	10	n/a	n/a	pyFR	0	TJ048
1557.193	2.44	1686116	WORD	n/a	wordpools/wordpool_EN.txt	PEA	8	10	n/a	n/a	pyFR	0	TJ048
1559.633	2.738	1688556	WORD	n/a	wordpools/wordpool_EN.txt	LEG	9	10	n/a	n/a	pyFR	0	TJ048
1562.371	2.722	1691294	WORD	n/a	wordpools/wordpool_EN.txt	FENCE	10	10	n/a	n/a	pyFR	0	TJ048
1565.093	2.79	1694016	WORD	n/a	wordpools/wordpool_EN.txt	FORK	11	10	n/a	n/a	pyFR	0	TJ048
1567.883	2.822	1696806	WORD	n/a	wordpools/wordpool_EN.txt	PLATE	12	10	n/a	n/a	pyFR	0	TJ048
1570.705	2.705	1699628	WORD	n/a	wordpools/wordpool_EN.txt	ZOO	13	10	n/a	n/a	pyFR	0	TJ048
1573.41	2.772	1702333	WORD	n/a	wordpools/wordpool_EN.txt	DRESS	14	10	n/a	n/a	pyFR	0	TJ048
1576.182	1.605	1705105	WORD	n/a	wordpools/wordpool_EN.txt	MOUTH	15	10	n/a	n/a	pyFR	0	TJ048
1577.787	1.118	1706710	START	n/a	n/a	n/a	n/a	10	[-999 -999 -999]	-999	pyFR	0	TJ048
1578.905	2.956	1707828	PROB	2.926	n/a	n/a	n/a	10	[9 1 5]	15	pyFR	0	TJ048
1581.861	2.203	1710784	PROB	2.178	n/a	n/a	n/a	10	[3 2 1]	6	pyFR	0	TJ048
1584.064	4.61	1712987	PROB	4.575	n/a	n/a	n/a	10	[4 3 4]	11	pyFR	0	TJ048
1588.674	2.421	1717597	PROB	2.388	n/a	n/a	n/a	10	[4 3 7]	14	pyFR	0	TJ048
1591.095	4.777	1720018	PROB	4.743	n/a	n/a	n/a	10	[7 4 8]	19	pyFR	0	TJ048
1595.872	4.014	1724795	PROB	4.014	n/a	n/a	n/a	10	[9 4 7]	20	pyFR	0	TJ048
1599.886	1.064	1728808	STOP	n/a	n/a	n/a	n/a	10	[-999 -999 -999]	-999	pyFR	0	TJ048
1600.95	0.957	1729872	REC_START	n/a	n/a	n/a	-999	10	n/a	n/a	pyFR	0	TJ048
1601.907	0.838	1730829	REC_WORD	0.957	n/a	SWORD	-999	10	n/a	n/a	pyFR	0	TJ048
1602.745	1.104	1731667	REC_WORD	1.795	n/a	FENCE	-999	10	n/a	n/a	pyFR	0	TJ048
1603.849	1.111	1732771	REC_WORD	2.899	n/a	FACE	-999	10	n/a	n/a	pyFR	0	TJ048
1604.96	5.974	1733882	REC_WORD	4.01	n/a	COIN	-999	10	n/a	n/a	pyFR	0	TJ048
1610.934	7.754	1739856	REC_WORD_VV	9.984	n/a	<>	-999	10	n/a	n/a	pyFR	0	TJ048
1618.688	31.594	1747610	REC_WORD	17.738	n/a	FORT	-999	10	n/a	n/a	pyFR	0	TJ048
1650.282	0.016	1779204	TRIAL	n/a	n/a	n/a	-999	11	n/a	n/a	pyFR	0	TJ048
1650.298	2.955	1779220	ORIENT	n/a	n/a	n/a	-999	11	n/a	n/a	pyFR	0	TJ048
1653.253	2.689	1782175	WORD	n/a	wordpools/wordpool_EN.txt	JUICE	1	11	n/a	n/a	pyFR	0	TJ048
1655.942	2.622	1784864	WORD	n/a	wordpools/wordpool_EN.txt	ROOT	2	11	n/a	n/a	pyFR	0	TJ048
1658.564	2.488	1787486	WORD	n/a	wordpools/wordpool_EN.txt	CONE	3	11	n/a	n/a	pyFR	0	TJ048
1661.052	2.539	1789974	WORD	n/a	wordpools/wordpool_EN.txt	WAVE	4	11	n/a	n/a	pyFR	0	TJ048
1663.591	2.722	1792513	WORD	n/a	wordpools/wordpool_EN.txt	GRASS	5	11	n/a	n/a	pyFR	0	TJ048
1666.313	2.555	1795235	WORD	n/a	wordpools/wordpool_EN.txt	NAIL	6	11	n/a	n/a	pyFR	0	TJ048
1668.868	2.705	1797790	WORD	n/a	wordpools/wordpool_EN.txt	STAR	7	11	n/a	n/a	pyFR	0	TJ048
1671.573	2.823	1800495	WORD	n/a	wordpools/wordpool_EN.txt	FLAG	8	11	n/a	n/a	pyFR	0	TJ048
1674.396	2.572	1803318	WORD	n/a	wordpools/wordpool_EN.txt	CAGE	9	11	n/a	n/a	pyFR	0	TJ048
1676.968	2.622	1805890	WORD	n/a	wordpools/wordpool_EN.txt	CAKE	10	11	n/a	n/a	pyFR	0	TJ048
1679.59	2.688	1808512	WORD	n/a	wordpools/wordpool_EN.txt	CASH	11	11	n/a	n/a	pyFR	0	TJ048
1682.278	2.422	1811200	WORD	n/a	wordpools/wordpool_EN.txt	SEAL	12	11	n/a	n/a	pyFR	0	TJ048
1684.7	2.688	1813622	WORD	n/a	wordpools/wordpool_EN.txt	STORM	13	11	n/a	n/a	pyFR	0	TJ048
1687.388	2.722	1816310	WORD	n/a	wordpools/wordpool_EN.txt	HOOK	14	11	n/a	n/a	pyFR	0	TJ048
1690.11	1.605	1819032	WORD	n/a	wordpools/wordpool_EN.txt	SHELL	15	11	n/a	n/a	pyFR	0	TJ048
1691.715	1.201	1820637	START	n/a	n/a	n/a	n/a	11	[-999 -999 -999]	-999	pyFR	0	TJ048
1692.916	3.825	1821838	PROB	3.799	n/a	n/a	n/a	11	[4 7 6]	17	pyFR	0	TJ048
1696.741	4.407	1825663	PROB	4.373	n/a	n/a	n/a	11	[7 9 7]	23	pyFR	0	TJ048
1701.148	3.258	1830070	PROB	3.223	n/a	n/a	n/a	11	[1 8 2]	11	pyFR	0	TJ048
1704.406	3.975	1833328	PROB	3.941	n/a	n/a	n/a	11	[2 4 7]	13	pyFR	0	TJ048
1708.381	3.55	1837303	PROB	3.55	n/a	n/a	n/a	11	[8 3 7]	18	pyFR	0	TJ048
1711.931	1.076	1840853	STOP	n/a	n/a	n/a	n/a	11	[-999 -999 -999]	-999	pyFR	0	TJ048
1713.007	0.985	1841929	REC_START	n/a	n/a	n/a	-999	11	n/a	n/a	pyFR	0	TJ048
1713.992	1.0	1842914	REC_WORD_VV	0.985	n/a	<>	-999	11	n/a	n/a	pyFR	0	TJ048
1714.992	1.803	1843914	REC_WORD_VV	1.985	n/a	<>	-999	11	n/a	n/a	pyFR	0	TJ048
1716.795	1.615	1845717	REC_WORD	3.788	n/a	JUICE	-999	11	n/a	n/a	pyFR	0	TJ048
1718.41	0.949	1847332	REC_WORD	5.403	n/a	CONE	-999	11	n/a	n/a	pyFR	0	TJ048
1719.359	1.315	1848281	REC_WORD	6.352	n/a	SHELL	-999	11	n/a	n/a	pyFR	0	TJ048
1720.674	3.532	1849596	REC_WORD	7.667	n/a	STORM	-999	11	n/a	n/a	pyFR	0	TJ048
1724.206	1.483	1853128	REC_WORD	11.199	n/a	GRASS	-999	11	n/a	n/a	pyFR	0	TJ048
1725.689	36.516	1854611	REC_WORD	12.682	n/a	ROOT	-999	11	n/a	n/a	pyFR	0	TJ048
1762.205	0.016	1891126	TRIAL	n/a	n/a	n/a	-999	12	n/a	n/a	pyFR	0	TJ048
1762.221	2.756	1891142	ORIENT	n/a	n/a	n/a	-999	12	n/a	n/a	pyFR	0	TJ048
1764.977	2.722	1893898	WORD	n/a	wordpools/wordpool_EN.txt	MILK	1	12	n/a	n/a	pyFR	0	TJ048
1767.699	2.606	1896620	WORD	n/a	wordpools/wordpool_EN.txt	SINK	2	12	n/a	n/a	pyFR	0	TJ048
1770.305	2.505	1899226	WORD	n/a	wordpools/wordpool_EN.txt	PURSE	3	12	n/a	n/a	pyFR	0	TJ048
1772.81	2.621	1901731	WORD	n/a	wordpools/wordpool_EN.txt	PEAR	4	12	n/a	n/a	pyFR	0	TJ048
1775.431	2.655	1904352	WORD	n/a	wordpools/wordpool_EN.txt	CHALK	5	12	n/a	n/a	pyFR	0	TJ048
1778.086	2.456	1907007	WORD	n/a	wordpools/wordpool_EN.txt	DEER	6	12	n/a	n/a	pyFR	0	TJ048
1780.542	2.471	1909463	WORD	n/a	wordpools/wordpool_EN.txt	CLIFF	7	12	n/a	n/a	pyFR	0	TJ048
1783.013	2.422	1911934	WORD	n/a	wordpools/wordpool_EN.txt	WEB	8	12	n/a	n/a	pyFR	0	TJ048
1785.435	2.654	1914356	WORD	n/a	wordpools/wordpool_EN.txt	THREAD	9	12	n/a	n/a	pyFR	0	TJ048
1788.089	2.473	1917010	WORD	n/a	wordpools/wordpool_EN.txt	BELL	10	12	n/a	n/a	pyFR	0	TJ048
1790.562	2.504	1919483	WORD	n/a	wordpools/wordpool_EN.txt	SPONGE	11	12	n/a	n/a	pyFR	0	TJ048
1793.066	2.773	1921987	WORD	n/a	wordpools/wordpool_EN.txt	TAIL	12	12	n/a	n/a	pyFR	0	TJ048
1795.839	2.689	1924760	WORD	n/a	wordpools/wordpool_EN.txt	NEST	13	12	n/a	n/a	pyFR	0	TJ048
1798.528	2.587	1927449	WORD	n/a	wordpools/wordpool_EN.txt	LAKE	14	12	n/a	n/a	pyFR	0	TJ048
1801.115	1.606	1930036	WORD	n/a	wordpools/wordpool_EN.txt	MAT	15	12	n/a	n/a	pyFR	0	TJ048
1802.721	0.984	1931642	START	n/a	n/a	n/a	n/a	12	[-999 -999 -999]	-999	pyFR	0	TJ048
1803.705	3.239	1932626	PROB	3.215	n/a	n/a	n/a	12	[5 4 6]	15	pyFR	0	TJ048
1806.944	2.99	1935865	PROB	2.959	n/a	n/a	n/a	12	[1 2 5]	8	pyFR	0	TJ048
1809.934	2.505	1938855	PROB	2.482	n/a	n/a	n/a	12	[3 1 1]	5	pyFR	0	TJ048
1812.439	1.97	1941360	PROB	1.936	n/a	n/a	n/a	12	[1 5 5]	11	pyFR	0	TJ048
1814.409	2.405	1943330	PROB	2.382	n/a	n/a	n/a	12	[5 5 8]	18	pyFR	0	TJ048
1816.814	2.539	1945735	PROB	2.513	n/a	n/a	n/a	12	[3 8 2]	13	pyFR	0	TJ048
1819.353	4.135	1948274	PROB	4.135	n/a	n/a	n/a	12	[7 2 8]	17	pyFR	0	TJ048
1823.488	1.043	1952409	STOP	n/a	n/a	n/a	n/a	12	[-999 -999 -999]	-999	pyFR	0	TJ048
1824.531	1.918	1953452	REC_START	n/a	n/a	n/a	-999	12	n/a	n/a	pyFR	0	TJ048
1826.449	3.429	1955370	REC_WORD	1.918	n/a	MAT	-999	12	n/a	n/a	pyFR	0	TJ048
1829.878	1.934	1958799	REC_WORD	5.347	n/a	WEB	-999	12	n/a	n/a	pyFR	0	TJ048
1831.812	8.62	1960733	REC_WORD	7.281	n/a	NEST	-999	12	n/a	n/a	pyFR	0	TJ048
1840.432	16.016	1969353	REC_WORD	15.901	n/a	MILK	-999	12	n/a	n/a	pyFR	0	TJ048
1856.448	1.0	1985369	REC_WORD_VV	31.917	n/a	<>	-999	12	n/a	n/a	pyFR	0	TJ048
1857.448	1.0	1986369	REC_WORD_VV	32.917	n/a	<>	-999	12	n/a	n/a	pyFR	0	TJ048
1858.448	1.0	1987369	REC_WORD_VV	33.917	n/a	<>	-999	12	n/a	n/a	pyFR	0	TJ048
1859.448	1.0	1988369	REC_WORD_VV	34.917	n/a	<>	-999	12	n/a	n/a	pyFR	0	TJ048
1860.448	1.0	1989369	REC_WORD_VV	35.917	n/a	<>	-999	12	n/a	n/a	pyFR	0	TJ048
1861.448	1.0	1990369	REC_WORD_VV	36.917	n/a	<>	-999	12	n/a	n/a	pyFR	0	TJ048
1862.448	1.0	1991369	REC_WORD_VV	37.917	n/a	<>	-999	12	n/a	n/a	pyFR	0	TJ048
1863.448	10.781	1992369	REC_WORD_VV	38.917	n/a	<>	-999	12	n/a	n/a	pyFR	0	TJ048
1874.229	0.016	2003150	TRIAL	n/a	n/a	n/a	-999	13	n/a	n/a	pyFR	0	TJ048
1874.245	2.872	2003166	ORIENT	n/a	n/a	n/a	-999	13	n/a	n/a	pyFR	0	TJ048
1877.117	2.707	2006038	WORD	n/a	wordpools/wordpool_EN.txt	VASE	1	13	n/a	n/a	pyFR	0	TJ048
1879.824	2.822	2008745	WORD	n/a	wordpools/wordpool_EN.txt	TREE	2	13	n/a	n/a	pyFR	0	TJ048
1882.646	2.538	2011567	WORD	n/a	wordpools/wordpool_EN.txt	SHRIMP	3	13	n/a	n/a	pyFR	0	TJ048
1885.184	2.489	2014105	WORD	n/a	wordpools/wordpool_EN.txt	PEACH	4	13	n/a	n/a	pyFR	0	TJ048
1887.673	2.705	2016594	WORD	n/a	wordpools/wordpool_EN.txt	SKI	5	13	n/a	n/a	pyFR	0	TJ048
1890.378	2.705	2019299	WORD	n/a	wordpools/wordpool_EN.txt	RAT	6	13	n/a	n/a	pyFR	0	TJ048
1893.083	2.455	2022004	WORD	n/a	wordpools/wordpool_EN.txt	BOMB	7	13	n/a	n/a	pyFR	0	TJ048
1895.538	2.705	2024459	WORD	n/a	wordpools/wordpool_EN.txt	PEARL	8	13	n/a	n/a	pyFR	0	TJ048
1898.243	2.489	2027164	WORD	n/a	wordpools/wordpool_EN.txt	JET	9	13	n/a	n/a	pyFR	0	TJ048
1900.732	2.672	2029652	WORD	n/a	wordpools/wordpool_EN.txt	STOOL	10	13	n/a	n/a	pyFR	0	TJ048
1903.404	2.555	2032324	WORD	n/a	wordpools/wordpool_EN.txt	BAT	11	13	n/a	n/a	pyFR	0	TJ048
1905.959	2.489	2034879	WORD	n/a	wordpools/wordpool_EN.txt	SLIME	12	13	n/a	n/a	pyFR	0	TJ048
1908.448	2.654	2037368	WORD	n/a	wordpools/wordpool_EN.txt	STICK	13	13	n/a	n/a	pyFR	0	TJ048
1911.102	2.707	2040022	WORD	n/a	wordpools/wordpool_EN.txt	BADGE	14	13	n/a	n/a	pyFR	0	TJ048
1913.809	1.621	2042729	WORD	n/a	wordpools/wordpool_EN.txt	RAKE	15	13	n/a	n/a	pyFR	0	TJ048
1915.43	1.084	2044350	START	n/a	n/a	n/a	n/a	13	[-999 -999 -999]	-999	pyFR	0	TJ048
1916.514	4.608	2045434	PROB	4.585	n/a	n/a	n/a	13	[6 6 6]	18	pyFR	0	TJ048
1921.122	3.542	2050042	PROB	3.514	n/a	n/a	n/a	13	[6 5 4]	15	pyFR	0	TJ048
1924.664	2.254	2053584	PROB	2.22	n/a	n/a	n/a	13	[7 6 3]	16	pyFR	0	TJ048
1926.918	1.787	2055838	PROB	1.758	n/a	n/a	n/a	13	[6 2 4]	12	pyFR	0	TJ048
1928.705	2.37	2057625	PROB	2.347	n/a	n/a	n/a	13	[5 4 5]	14	pyFR	0	TJ048
1931.075	2.774	2059995	PROB	2.737	n/a	n/a	n/a	13	[5 2 1]	8	pyFR	0	TJ048
1933.849	2.587	2062769	PROB	2.587	n/a	n/a	n/a	13	[9 8 1]	18	pyFR	0	TJ048
1936.436	1.071	2065356	STOP	n/a	n/a	n/a	n/a	13	[-999 -999 -999]	-999	pyFR	0	TJ048
1937.507	1.788	2066427	REC_START	n/a	n/a	n/a	-999	13	n/a	n/a	pyFR	0	TJ048
1939.295	2.073	2068215	REC_WORD_VV	1.788	n/a	<>	-999	13	n/a	n/a	pyFR	0	TJ048
1941.368	0.763	2070288	REC_WORD	3.861	n/a	JET	-999	13	n/a	n/a	pyFR	0	TJ048
1942.131	0.725	2071051	REC_WORD	4.624	n/a	BOMB	-999	13	n/a	n/a	pyFR	0	TJ048
1942.856	11.692	2071776	REC_WORD	5.349	n/a	PEARL	-999	13	n/a	n/a	pyFR	0	TJ048
1954.548	2.559	2083468	REC_WORD	17.041	n/a	BAT	-999	13	n/a	n/a	pyFR	0	TJ048
1957.107	15.596	2086027	REC_WORD	19.6	n/a	RAT	-999	13	n/a	n/a	pyFR	0	TJ048
1972.703	14.352	2101623	REC_WORD_VV	35.196	n/a	<>	-999	13	n/a	n/a	pyFR	0	TJ048
1987.055	0.016	2115975	TRIAL	n/a	n/a	n/a	-999	14	n/a	n/a	pyFR	0	TJ048
1987.071	2.74	2115991	ORIENT	n/a	n/a	n/a	-999	14	n/a	n/a	pyFR	0	TJ048
1989.811	2.555	2118731	WORD	n/a	wordpools/wordpool_EN.txt	FLOOR	1	14	n/a	n/a	pyFR	0	TJ048
1992.366	2.521	2121286	WORD	n/a	wordpools/wordpool_EN.txt	LAWN	2	14	n/a	n/a	pyFR	0	TJ048
1994.887	2.706	2123807	WORD	n/a	wordpools/wordpool_EN.txt	RIB	3	14	n/a	n/a	pyFR	0	TJ048
1997.593	2.504	2126513	WORD	n/a	wordpools/wordpool_EN.txt	INK	4	14	n/a	n/a	pyFR	0	TJ048
2000.097	2.523	2129017	WORD	n/a	wordpools/wordpool_EN.txt	BRUSH	5	14	n/a	n/a	pyFR	0	TJ048
2002.62	2.604	2131540	WORD	n/a	wordpools/wordpool_EN.txt	GUARD	6	14	n/a	n/a	pyFR	0	TJ048
2005.224	2.69	2134144	WORD	n/a	wordpools/wordpool_EN.txt	ICE	7	14	n/a	n/a	pyFR	0	TJ048
2007.914	2.655	2136834	WORD	n/a	wordpools/wordpool_EN.txt	CLOTH	8	14	n/a	n/a	pyFR	0	TJ048
2010.569	2.521	2139489	WORD	n/a	wordpools/wordpool_EN.txt	THUMB	9	14	n/a	n/a	pyFR	0	TJ048
2013.09	2.439	2142010	WORD	n/a	wordpools/wordpool_EN.txt	SHIP	10	14	n/a	n/a	pyFR	0	TJ048
2015.529	2.455	2144449	WORD	n/a	wordpools/wordpool_EN.txt	DOLL	11	14	n/a	n/a	pyFR	0	TJ048
2017.984	2.722	2146904	WORD	n/a	wordpools/wordpool_EN.txt	SMILE	12	14	n/a	n/a	pyFR	0	TJ048
2020.706	2.572	2149626	WORD	n/a	wordpools/wordpool_EN.txt	SOCK	13	14	n/a	n/a	pyFR	0	TJ048
2023.278	2.471	2152198	WORD	n/a	wordpools/wordpool_EN.txt	CUBE	14	14	n/a	n/a	pyFR	0	TJ048
2025.749	1.605	2154669	WORD	n/a	wordpools/wordpool_EN.txt	WING	15	14	n/a	n/a	pyFR	0	TJ048
2027.354	1.067	2156274	START	n/a	n/a	n/a	n/a	14	[-999 -999 -999]	-999	pyFR	0	TJ048
2028.421	6.046	2157341	PROB	6.02	n/a	n/a	n/a	14	[9 7 4]	20	pyFR	0	TJ048
2034.467	3.54	2163387	PROB	3.517	n/a	n/a	n/a	14	[4 7 7]	18	pyFR	0	TJ048
2038.007	3.574	2166927	PROB	3.538	n/a	n/a	n/a	14	[3 1 3]	7	pyFR	0	TJ048
2041.581	3.24	2170501	PROB	3.203	n/a	n/a	n/a	14	[3 8 7]	18	pyFR	0	TJ048
2044.821	2.595	2173741	PROB	2.595	n/a	n/a	n/a	14	[5 2 3]	10	pyFR	0	TJ048
2047.416	1.18	2176336	STOP	n/a	n/a	n/a	n/a	14	[-999 -999 -999]	-999	pyFR	0	TJ048
2048.596	0.819	2177516	REC_START	n/a	n/a	n/a	-999	14	n/a	n/a	pyFR	0	TJ048
2049.415	0.397	2178334	REC_WORD	0.819	n/a	ICE	-999	14	n/a	n/a	pyFR	0	TJ048
2049.812	0.545	2178731	REC_WORD	1.216	n/a	CUBE	-999	14	n/a	n/a	pyFR	0	TJ048
2050.357	1.192	2179276	REC_WORD	1.761	n/a	SOCK	-999	14	n/a	n/a	pyFR	0	TJ048
2051.549	4.031	2180468	REC_WORD	2.953	n/a	FLOOR	-999	14	n/a	n/a	pyFR	0	TJ048
2055.58	3.14	2184499	REC_WORD	6.984	n/a	LAWN	-999	14	n/a	n/a	pyFR	0	TJ048
2058.72	37.538	2187639	REC_WORD	10.124	n/a	SINK	-999	14	n/a	n/a	pyFR	0	TJ048
2096.258	0.016	2225177	TRIAL	n/a	n/a	n/a	-999	15	n/a	n/a	pyFR	0	TJ048
2096.274	2.821	2225193	ORIENT	n/a	n/a	n/a	-999	15	n/a	n/a	pyFR	0	TJ048
2099.095	2.54	2228014	WORD	n/a	wordpools/wordpool_EN.txt	PIT	1	15	n/a	n/a	pyFR	0	TJ048
2101.635	2.47	2230554	WORD	n/a	wordpools/wordpool_EN.txt	JEEP	2	15	n/a	n/a	pyFR	0	TJ048
2104.105	2.523	2233024	WORD	n/a	wordpools/wordpool_EN.txt	TOY	3	15	n/a	n/a	pyFR	0	TJ048
2106.628	2.437	2235547	WORD	n/a	wordpools/wordpool_EN.txt	FRUIT	4	15	n/a	n/a	pyFR	0	TJ048
2109.065	2.556	2237984	WORD	n/a	wordpools/wordpool_EN.txt	STAIR	5	15	n/a	n/a	pyFR	0	TJ048
2111.621	2.604	2240540	WORD	n/a	wordpools/wordpool_EN.txt	SKUNK	6	15	n/a	n/a	pyFR	0	TJ048
2114.225	2.523	2243144	WORD	n/a	wordpools/wordpool_EN.txt	PIN	7	15	n/a	n/a	pyFR	0	TJ048
2116.748	2.689	2245667	WORD	n/a	wordpools/wordpool_EN.txt	WHEEL	8	15	n/a	n/a	pyFR	0	TJ048
2119.437	2.438	2248356	WORD	n/a	wordpools/wordpool_EN.txt	BENCH	9	15	n/a	n/a	pyFR	0	TJ048
2121.875	2.605	2250794	WORD	n/a	wordpools/wordpool_EN.txt	HOLE	10	15	n/a	n/a	pyFR	0	TJ048
2124.48	2.572	2253399	WORD	n/a	wordpools/wordpool_EN.txt	BRICK	11	15	n/a	n/a	pyFR	0	TJ048
2127.052	2.672	2255971	WORD	n/a	wordpools/wordpool_EN.txt	POND	12	15	n/a	n/a	pyFR	0	TJ048
2129.724	2.454	2258643	WORD	n/a	wordpools/wordpool_EN.txt	MOTH	13	15	n/a	n/a	pyFR	0	TJ048
2132.178	2.523	2261097	WORD	n/a	wordpools/wordpool_EN.txt	TRASH	14	15	n/a	n/a	pyFR	0	TJ048
2134.701	1.621	2263620	WORD	n/a	wordpools/wordpool_EN.txt	PLANT	15	15	n/a	n/a	pyFR	0	TJ048
2136.322	0.833	2265241	START	n/a	n/a	n/a	n/a	15	[-999 -999 -999]	-999	pyFR	0	TJ048
2137.155	4.41	2266074	PROB	4.378	n/a	n/a	n/a	15	[4 1 8]	13	pyFR	0	TJ048
2141.565	11.005	2270484	PROB	10.968	n/a	n/a	n/a	15	[8 7 8]	23	pyFR	0	TJ048
2152.57	2.906	2281489	PROB	2.883	n/a	n/a	n/a	15	[4 4 6]	14	pyFR	0	TJ048
2155.476	5.081	2284395	PROB	5.081	n/a	n/a	n/a	15	[8 4 5]	17	pyFR	0	TJ048
2160.557	1.048	2289476	STOP	n/a	n/a	n/a	n/a	15	[-999 -999 -999]	-999	pyFR	0	TJ048
2161.605	1.828	2290524	REC_START	n/a	n/a	n/a	-999	15	n/a	n/a	pyFR	0	TJ048
2163.433	1.344	2292352	REC_WORD	1.828	n/a	MOTH	-999	15	n/a	n/a	pyFR	0	TJ048
2164.777	1.368	2293696	REC_WORD	3.172	n/a	POND	-999	15	n/a	n/a	pyFR	0	TJ048
2166.145	0.738	2295064	REC_WORD	4.54	n/a	JEEP	-999	15	n/a	n/a	pyFR	0	TJ048
2166.883	1.44	2295802	REC_WORD	5.278	n/a	WHEEL	-999	15	n/a	n/a	pyFR	0	TJ048
2168.323	8.11	2297242	REC_WORD	6.718	n/a	HOLE	-999	15	n/a	n/a	pyFR	0	TJ048
2176.433	9.843	2305352	REC_WORD_VV	14.828	n/a	<>	-999	15	n/a	n/a	pyFR	0	TJ048
2186.276	23.909	2315195	REC_WORD	24.671	n/a	BRICK	-999	15	n/a	n/a	pyFR	0	TJ048
2210.185	0.016	2339103	TRIAL	n/a	n/a	n/a	-999	16	n/a	n/a	pyFR	0	TJ048
2210.201	2.922	2339119	ORIENT	n/a	n/a	n/a	-999	16	n/a	n/a	pyFR	0	TJ048
2213.123	2.456	2342041	WORD	n/a	wordpools/wordpool_EN.txt	HOSE	1	16	n/a	n/a	pyFR	0	TJ048
2215.579	2.806	2344497	WORD	n/a	wordpools/wordpool_EN.txt	FOOD	2	16	n/a	n/a	pyFR	0	TJ048
2218.385	2.704	2347303	WORD	n/a	wordpools/wordpool_EN.txt	COW	3	16	n/a	n/a	pyFR	0	TJ048
2221.089	2.673	2350007	WORD	n/a	wordpools/wordpool_EN.txt	ARK	4	16	n/a	n/a	pyFR	0	TJ048
2223.762	2.555	2352680	WORD	n/a	wordpools/wordpool_EN.txt	BED	5	16	n/a	n/a	pyFR	0	TJ048
2226.317	2.789	2355235	WORD	n/a	wordpools/wordpool_EN.txt	TANK	6	16	n/a	n/a	pyFR	0	TJ048
2229.106	2.622	2358024	WORD	n/a	wordpools/wordpool_EN.txt	CHEEK	7	16	n/a	n/a	pyFR	0	TJ048
2231.728	2.789	2360646	WORD	n/a	wordpools/wordpool_EN.txt	SUN	8	16	n/a	n/a	pyFR	0	TJ048
2234.517	2.705	2363435	WORD	n/a	wordpools/wordpool_EN.txt	ROCK	9	16	n/a	n/a	pyFR	0	TJ048
2237.222	2.472	2366140	WORD	n/a	wordpools/wordpool_EN.txt	FOG	10	16	n/a	n/a	pyFR	0	TJ048
2239.694	2.554	2368612	WORD	n/a	wordpools/wordpool_EN.txt	FILM	11	16	n/a	n/a	pyFR	0	TJ048
2242.248	2.54	2371166	WORD	n/a	wordpools/wordpool_EN.txt	PALM	12	16	n/a	n/a	pyFR	0	TJ048
2244.788	2.588	2373706	WORD	n/a	wordpools/wordpool_EN.txt	DUCK	13	16	n/a	n/a	pyFR	0	TJ048
2247.376	2.472	2376294	WORD	n/a	wordpools/wordpool_EN.txt	HOOF	14	16	n/a	n/a	pyFR	0	TJ048
2249.848	1.605	2378766	WORD	n/a	wordpools/wordpool_EN.txt	BUSH	15	16	n/a	n/a	pyFR	0	TJ048
2251.453	0.95	2380371	START	n/a	n/a	n/a	n/a	16	[-999 -999 -999]	-999	pyFR	0	TJ048
2252.403	3.257	2381321	PROB	3.23	n/a	n/a	n/a	16	[3 7 7]	17	pyFR	0	TJ048
2255.66	3.724	2384578	PROB	3.686	n/a	n/a	n/a	16	[4 2 3]	9	pyFR	0	TJ048
2259.384	4.96	2388302	PROB	4.922	n/a	n/a	n/a	16	[5 3 6]	14	pyFR	0	TJ048
2264.344	3.189	2393262	PROB	3.153	n/a	n/a	n/a	16	[9 8 8]	25	pyFR	0	TJ048
2267.533	3.924	2396451	PROB	3.924	n/a	n/a	n/a	16	[6 6 7]	19	pyFR	0	TJ048
2271.457	1.221	2400375	STOP	n/a	n/a	n/a	n/a	16	[-999 -999 -999]	-999	pyFR	0	TJ048
2272.678	2.213	2401596	REC_START	n/a	n/a	n/a	-999	16	n/a	n/a	pyFR	0	TJ048
2274.891	0.598	2403809	REC_WORD	2.213	n/a	SUN	-999	16	n/a	n/a	pyFR	0	TJ048
2275.489	0.806	2404407	REC_WORD	2.811	n/a	FOG	-999	16	n/a	n/a	pyFR	0	TJ048
2276.295	4.986	2405213	REC_WORD	3.617	n/a	PALM	-999	16	n/a	n/a	pyFR	0	TJ048
2281.281	496.308	2410199	REC_WORD_VV	8.603	n/a	<>	-999	16	n/a	n/a	pyFR	0	TJ048
2777.589	0.117	2906504	SESS_END	n/a	n/a	n/a	-999	16	n/a	n/a	pyFR	0	TJ048
2777.706	0.0	2906621	E	n/a	n/a	n/a	-999	16	n/a	n/a	pyFR	0	TJ048
