onset	duration	sample	trial_type	response_time	stim_file	item_name	serialpos	list	test	answer	experiment	session	subject
0.0	0.0	872414	B	n/a	n/a	n/a	-999.0	-999	n/a	n/a	pyFR	0	TJ057
0.0	49.086	872414	SESS_START	n/a	n/a	n/a	-999.0	-999	n/a	n/a	pyFR	0	TJ057
49.086	0.021	921500	START	n/a	n/a	n/a	n/a	0	[-999 -999 -999]	-999.0	pyFR	0	TJ057
49.107	7.215	921521	PROB	7.158	n/a	n/a	n/a	0	[8 3 2]	13.0	pyFR	0	TJ057
56.322	4.424	928736	PROB	4.391	n/a	n/a	n/a	0	[6 5 8]	19.0	pyFR	0	TJ057
60.746	3.942	933160	PROB	3.903	n/a	n/a	n/a	0	[7 1 4]	12.0	pyFR	0	TJ057
64.688	2.773	937102	PROB	2.737	n/a	n/a	n/a	0	[6 1 1]	8.0	pyFR	0	TJ057
67.461	3.958	939875	PROB	3.932	n/a	n/a	n/a	0	[8 2 8]	18.0	pyFR	0	TJ057
71.419	3.607	943833	PROB	3.573	n/a	n/a	n/a	0	[4 1 7]	12.0	pyFR	0	TJ057
75.026	5.495	947440	PROB	5.495	n/a	n/a	n/a	0	[4 5 8]	17.0	pyFR	0	TJ057
80.521	86.122	952935	STOP	n/a	n/a	n/a	n/a	0	[-999 -999 -999]	-999.0	pyFR	0	TJ057
166.643	0.015	1039056	TRIAL	n/a	n/a	n/a	-999.0	1	n/a	n/a	pyFR	0	TJ057
166.658	1.6	1039071	ORIENT	n/a	n/a	n/a	-999.0	1	n/a	n/a	pyFR	0	TJ057
169.648	1.6	1042061	WORD	n/a	wordpools/wordpool_EN.txt	FOAM	1.0	1	n/a	n/a	pyFR	0	TJ057
172.321	1.6	1044734	WORD	n/a	wordpools/wordpool_EN.txt	SHEET	2.0	1	n/a	n/a	pyFR	0	TJ057
174.975	1.6	1047388	WORD	n/a	wordpools/wordpool_EN.txt	PEA	3.0	1	n/a	n/a	pyFR	0	TJ057
177.681	1.6	1050094	WORD	n/a	wordpools/wordpool_EN.txt	CLOUD	4.0	1	n/a	n/a	pyFR	0	TJ057
180.387	1.6	1052800	WORD	n/a	wordpools/wordpool_EN.txt	SLEEVE	5.0	1	n/a	n/a	pyFR	0	TJ057
183.076	1.6	1055489	WORD	n/a	wordpools/wordpool_EN.txt	ANT	6.0	1	n/a	n/a	pyFR	0	TJ057
185.864	1.6	1058277	WORD	n/a	wordpools/wordpool_EN.txt	BOWL	7.0	1	n/a	n/a	pyFR	0	TJ057
188.619	1.6	1061032	WORD	n/a	wordpools/wordpool_EN.txt	BOOK	8.0	1	n/a	n/a	pyFR	0	TJ057
191.225	1.6	1063638	WORD	n/a	wordpools/wordpool_EN.txt	SHOE	9.0	1	n/a	n/a	pyFR	0	TJ057
193.963	1.6	1066376	WORD	n/a	wordpools/wordpool_EN.txt	CROWN	10.0	1	n/a	n/a	pyFR	0	TJ057
196.685	1.6	1069098	WORD	n/a	wordpools/wordpool_EN.txt	CORN	11.0	1	n/a	n/a	pyFR	0	TJ057
199.208	1.6	1071621	WORD	n/a	wordpools/wordpool_EN.txt	STEAK	12.0	1	n/a	n/a	pyFR	0	TJ057
201.862	1.6	1074275	WORD	n/a	wordpools/wordpool_EN.txt	HORSE	13.0	1	n/a	n/a	pyFR	0	TJ057
204.601	1.6	1077014	WORD	n/a	wordpools/wordpool_EN.txt	BATH	14.0	1	n/a	n/a	pyFR	0	TJ057
207.057	1.6	1079470	WORD	n/a	wordpools/wordpool_EN.txt	DOLL	15.0	1	n/a	n/a	pyFR	0	TJ057
208.677	1.135	1081090	START	n/a	n/a	n/a	n/a	1	[-999 -999 -999]	-999.0	pyFR	0	TJ057
209.812	5.445	1082225	PROB	5.401	n/a	n/a	n/a	1	[6 7 3]	16.0	pyFR	0	TJ057
215.257	3.689	1087670	PROB	3.658	n/a	n/a	n/a	1	[6 5 8]	19.0	pyFR	0	TJ057
218.946	3.808	1091359	PROB	3.778	n/a	n/a	n/a	1	[4 4 8]	16.0	pyFR	0	TJ057
222.754	4.175	1095167	PROB	4.137	n/a	n/a	n/a	1	[6 5 2]	13.0	pyFR	0	TJ057
226.929	2.794	1099342	PROB	2.794	n/a	n/a	n/a	1	[5 1 5]	11.0	pyFR	0	TJ057
229.723	1.261	1102136	STOP	n/a	n/a	n/a	n/a	1	[-999 -999 -999]	-999.0	pyFR	0	TJ057
230.984	0.789	1103397	REC_START	n/a	n/a	n/a	-999.0	1	n/a	n/a	pyFR	0	TJ057
231.773	0.887	1104186	REC_WORD	0.789	n/a	FOAM	-999.0	1	n/a	n/a	pyFR	0	TJ057
232.66	0.997	1105073	REC_WORD	1.676	n/a	HORSE	-999.0	1	n/a	n/a	pyFR	0	TJ057
233.657	1.337	1106070	REC_WORD	2.673	n/a	SHOE	-999.0	1	n/a	n/a	pyFR	0	TJ057
234.994	1.178	1107407	REC_WORD	4.01	n/a	BOWL	-999.0	1	n/a	n/a	pyFR	0	TJ057
236.172	1.305	1108585	REC_WORD	5.188	n/a	BOOK	-999.0	1	n/a	n/a	pyFR	0	TJ057
237.477	1.37	1109890	REC_WORD	6.493	n/a	PEA	-999.0	1	n/a	n/a	pyFR	0	TJ057
238.847	3.7	1111260	REC_WORD	7.863	n/a	CORN	-999.0	1	n/a	n/a	pyFR	0	TJ057
242.547	4.28	1114960	REC_WORD	11.563	n/a	SLEEVE	-999.0	1	n/a	n/a	pyFR	0	TJ057
246.827	45.167	1119240	REC_WORD	15.843	n/a	FOAM	-999.0	1	n/a	n/a	pyFR	0	TJ057
291.994	0.015	1164407	TRIAL	n/a	n/a	n/a	-999.0	2	n/a	n/a	pyFR	0	TJ057
292.009	1.6	1164422	ORIENT	n/a	n/a	n/a	-999.0	2	n/a	n/a	pyFR	0	TJ057
294.681	1.6	1167094	WORD	n/a	wordpools/wordpool_EN.txt	SOAP	1.0	2	n/a	n/a	pyFR	0	TJ057
297.321	1.6	1169734	WORD	n/a	wordpools/wordpool_EN.txt	CORD	2.0	2	n/a	n/a	pyFR	0	TJ057
299.858	1.6	1172271	WORD	n/a	wordpools/wordpool_EN.txt	TOOL	3.0	2	n/a	n/a	pyFR	0	TJ057
302.547	1.6	1174960	WORD	n/a	wordpools/wordpool_EN.txt	BALL	4.0	2	n/a	n/a	pyFR	0	TJ057
305.32	1.6	1177733	WORD	n/a	wordpools/wordpool_EN.txt	ELF	5.0	2	n/a	n/a	pyFR	0	TJ057
307.874	1.6	1180287	WORD	n/a	wordpools/wordpool_EN.txt	GLASS	6.0	2	n/a	n/a	pyFR	0	TJ057
310.58	1.6	1182993	WORD	n/a	wordpools/wordpool_EN.txt	ARK	7.0	2	n/a	n/a	pyFR	0	TJ057
313.119	1.6	1185532	WORD	n/a	wordpools/wordpool_EN.txt	DUCK	8.0	2	n/a	n/a	pyFR	0	TJ057
315.724	1.6	1188137	WORD	n/a	wordpools/wordpool_EN.txt	ZOO	9.0	2	n/a	n/a	pyFR	0	TJ057
318.513	1.6	1190926	WORD	n/a	wordpools/wordpool_EN.txt	CLIFF	10.0	2	n/a	n/a	pyFR	0	TJ057
321.202	1.6	1193615	WORD	n/a	wordpools/wordpool_EN.txt	WAND	11.0	2	n/a	n/a	pyFR	0	TJ057
323.89	1.6	1196303	WORD	n/a	wordpools/wordpool_EN.txt	TOAD	12.0	2	n/a	n/a	pyFR	0	TJ057
326.679	1.6	1199092	WORD	n/a	wordpools/wordpool_EN.txt	MUG	13.0	2	n/a	n/a	pyFR	0	TJ057
329.285	1.6	1201698	WORD	n/a	wordpools/wordpool_EN.txt	MOUSE	14.0	2	n/a	n/a	pyFR	0	TJ057
331.722	1.6	1204135	WORD	n/a	wordpools/wordpool_EN.txt	SPONGE	15.0	2	n/a	n/a	pyFR	0	TJ057
333.345	1.2	1205758	START	n/a	n/a	n/a	n/a	2	[-999 -999 -999]	-999.0	pyFR	0	TJ057
334.545	4.342	1206958	PROB	4.311	n/a	n/a	n/a	2	[8 9 5]	22.0	pyFR	0	TJ057
338.887	4.976	1211300	PROB	4.937	n/a	n/a	n/a	2	[6 2 6]	14.0	pyFR	0	TJ057
343.863	3.525	1216276	PROB	3.497	n/a	n/a	n/a	2	[6 8 5]	19.0	pyFR	0	TJ057
347.388	4.558	1219801	PROB	4.532	n/a	n/a	n/a	2	[4 8 6]	18.0	pyFR	0	TJ057
351.946	3.901	1224359	PROB	3.901	n/a	n/a	n/a	2	[9 2 6]	17.0	pyFR	0	TJ057
355.847	1.16	1228260	STOP	n/a	n/a	n/a	n/a	2	[-999 -999 -999]	-999.0	pyFR	0	TJ057
357.007	1.714	1229420	REC_START	n/a	n/a	n/a	-999.0	2	n/a	n/a	pyFR	0	TJ057
358.721	1.324	1231134	REC_WORD	1.714	n/a	ELF	-999.0	2	n/a	n/a	pyFR	0	TJ057
360.045	1.504	1232458	REC_WORD	3.038	n/a	SOAP	-999.0	2	n/a	n/a	pyFR	0	TJ057
361.549	1.323	1233962	REC_WORD	4.542	n/a	ARK	-999.0	2	n/a	n/a	pyFR	0	TJ057
362.872	1.627	1235285	REC_WORD	5.865	n/a	ZOO	-999.0	2	n/a	n/a	pyFR	0	TJ057
364.499	2.533	1236912	REC_WORD	7.492	n/a	MUG	-999.0	2	n/a	n/a	pyFR	0	TJ057
367.032	10.463	1239445	REC_WORD	10.025	n/a	CORD	-999.0	2	n/a	n/a	pyFR	0	TJ057
377.495	2.042	1249908	REC_WORD	20.488	n/a	SPONGE	-999.0	2	n/a	n/a	pyFR	0	TJ057
379.537	12.651	1251950	REC_WORD	22.53	n/a	FOAM	-999.0	2	n/a	n/a	pyFR	0	TJ057
392.188	45.631	1264601	REC_WORD	35.181	n/a	ZOO	-999.0	2	n/a	n/a	pyFR	0	TJ057
437.819	0.016	1310232	TRIAL	n/a	n/a	n/a	-999.0	3	n/a	n/a	pyFR	0	TJ057
437.835	1.6	1310248	ORIENT	n/a	n/a	n/a	-999.0	3	n/a	n/a	pyFR	0	TJ057
440.607	1.6	1313020	WORD	n/a	wordpools/wordpool_EN.txt	SLUSH	1.0	3	n/a	n/a	pyFR	0	TJ057
443.28	1.6	1315693	WORD	n/a	wordpools/wordpool_EN.txt	GEESE	2.0	3	n/a	n/a	pyFR	0	TJ057
445.767	1.6	1318180	WORD	n/a	wordpools/wordpool_EN.txt	WING	3.0	3	n/a	n/a	pyFR	0	TJ057
448.307	1.6	1320720	WORD	n/a	wordpools/wordpool_EN.txt	MOON	4.0	3	n/a	n/a	pyFR	0	TJ057
450.811	1.6	1323224	WORD	n/a	wordpools/wordpool_EN.txt	DESK	5.0	3	n/a	n/a	pyFR	0	TJ057
453.583	1.6	1325996	WORD	n/a	wordpools/wordpool_EN.txt	YARD	6.0	3	n/a	n/a	pyFR	0	TJ057
456.373	1.6	1328786	WORD	n/a	wordpools/wordpool_EN.txt	RAT	7.0	3	n/a	n/a	pyFR	0	TJ057
458.81	1.6	1331223	WORD	n/a	wordpools/wordpool_EN.txt	DAD	8.0	3	n/a	n/a	pyFR	0	TJ057
461.649	1.6	1334062	WORD	n/a	wordpools/wordpool_EN.txt	THREAD	9.0	3	n/a	n/a	pyFR	0	TJ057
464.389	1.6	1336802	WORD	n/a	wordpools/wordpool_EN.txt	GLOVE	10.0	3	n/a	n/a	pyFR	0	TJ057
466.926	1.6	1339339	WORD	n/a	wordpools/wordpool_EN.txt	DART	11.0	3	n/a	n/a	pyFR	0	TJ057
469.682	1.6	1342095	WORD	n/a	wordpools/wordpool_EN.txt	PIG	12.0	3	n/a	n/a	pyFR	0	TJ057
472.305	1.6	1344718	WORD	n/a	wordpools/wordpool_EN.txt	FACE	13.0	3	n/a	n/a	pyFR	0	TJ057
474.992	1.6	1347405	WORD	n/a	wordpools/wordpool_EN.txt	CUBE	14.0	3	n/a	n/a	pyFR	0	TJ057
477.765	1.6	1350178	WORD	n/a	wordpools/wordpool_EN.txt	STORE	15.0	3	n/a	n/a	pyFR	0	TJ057
479.387	1.034	1351800	START	n/a	n/a	n/a	n/a	3	[-999 -999 -999]	-999.0	pyFR	0	TJ057
480.421	5.043	1352834	PROB	5.015	n/a	n/a	n/a	3	[6 7 6]	19.0	pyFR	0	TJ057
485.464	3.256	1357877	PROB	3.219	n/a	n/a	n/a	3	[2 1 7]	10.0	pyFR	0	TJ057
488.72	2.322	1361133	PROB	2.291	n/a	n/a	n/a	3	[1 1 2]	4.0	pyFR	0	TJ057
491.042	3.023	1363455	PROB	2.986	n/a	n/a	n/a	3	[9 4 4]	17.0	pyFR	0	TJ057
494.065	3.606	1366478	PROB	3.577	n/a	n/a	n/a	3	[3 3 9]	15.0	pyFR	0	TJ057
497.671	3.14	1370084	PROB	3.14	n/a	n/a	n/a	3	[6 3 3]	12.0	pyFR	0	TJ057
500.811	1.237	1373224	STOP	n/a	n/a	n/a	n/a	3	[-999 -999 -999]	-999.0	pyFR	0	TJ057
502.048	0.91	1374461	REC_START	n/a	n/a	n/a	-999.0	3	n/a	n/a	pyFR	0	TJ057
502.958	0.893	1375371	REC_WORD	0.91	n/a	GEESE	-999.0	3	n/a	n/a	pyFR	0	TJ057
503.851	1.135	1376264	REC_WORD	1.803	n/a	WING	-999.0	3	n/a	n/a	pyFR	0	TJ057
504.986	1.676	1377399	REC_WORD	2.938	n/a	MOON	-999.0	3	n/a	n/a	pyFR	0	TJ057
506.662	10.398	1379075	REC_WORD	4.614	n/a	DUCK	-999.0	3	n/a	n/a	pyFR	0	TJ057
517.06	3.105	1389473	REC_WORD	15.012	n/a	SLUSH	-999.0	3	n/a	n/a	pyFR	0	TJ057
520.165	15.312	1392578	REC_WORD	18.117	n/a	DART	-999.0	3	n/a	n/a	pyFR	0	TJ057
535.477	8.323	1407890	REC_WORD	33.429	n/a	RAT	-999.0	3	n/a	n/a	pyFR	0	TJ057
543.8	13.975	1416213	REC_WORD	41.752	n/a	FACE	-999.0	3	n/a	n/a	pyFR	0	TJ057
557.775	0.016	1430188	TRIAL	n/a	n/a	n/a	-999.0	4	n/a	n/a	pyFR	0	TJ057
557.791	1.6	1430204	ORIENT	n/a	n/a	n/a	-999.0	4	n/a	n/a	pyFR	0	TJ057
560.614	1.6	1433027	WORD	n/a	wordpools/wordpool_EN.txt	APE	1.0	4	n/a	n/a	pyFR	0	TJ057
563.437	1.6	1435850	WORD	n/a	wordpools/wordpool_EN.txt	TANK	2.0	4	n/a	n/a	pyFR	0	TJ057
566.142	1.6	1438555	WORD	n/a	wordpools/wordpool_EN.txt	SHIP	3.0	4	n/a	n/a	pyFR	0	TJ057
568.78	1.6	1441193	WORD	n/a	wordpools/wordpool_EN.txt	TAIL	4.0	4	n/a	n/a	pyFR	0	TJ057
571.47	1.6	1443883	WORD	n/a	wordpools/wordpool_EN.txt	DOOR	5.0	4	n/a	n/a	pyFR	0	TJ057
574.275	1.6	1446688	WORD	n/a	wordpools/wordpool_EN.txt	VAN	6.0	4	n/a	n/a	pyFR	0	TJ057
576.829	1.6	1449242	WORD	n/a	wordpools/wordpool_EN.txt	SOUP	7.0	4	n/a	n/a	pyFR	0	TJ057
579.536	1.6	1451949	WORD	n/a	wordpools/wordpool_EN.txt	SHEEP	8.0	4	n/a	n/a	pyFR	0	TJ057
582.124	1.6	1454537	WORD	n/a	wordpools/wordpool_EN.txt	JEEP	9.0	4	n/a	n/a	pyFR	0	TJ057
584.812	1.6	1457225	WORD	n/a	wordpools/wordpool_EN.txt	CLOCK	10.0	4	n/a	n/a	pyFR	0	TJ057
587.618	1.6	1460031	WORD	n/a	wordpools/wordpool_EN.txt	BEAK	11.0	4	n/a	n/a	pyFR	0	TJ057
590.391	1.6	1462804	WORD	n/a	wordpools/wordpool_EN.txt	SINK	12.0	4	n/a	n/a	pyFR	0	TJ057
592.862	1.6	1465275	WORD	n/a	wordpools/wordpool_EN.txt	WHALE	13.0	4	n/a	n/a	pyFR	0	TJ057
595.468	1.6	1467881	WORD	n/a	wordpools/wordpool_EN.txt	TOY	14.0	4	n/a	n/a	pyFR	0	TJ057
598.023	1.6	1470436	WORD	n/a	wordpools/wordpool_EN.txt	PIE	15.0	4	n/a	n/a	pyFR	0	TJ057
599.643	1.201	1472056	START	n/a	n/a	n/a	n/a	4	[-999 -999 -999]	-999.0	pyFR	0	TJ057
600.844	3.006	1473257	PROB	2.971	n/a	n/a	n/a	4	[6 1 5]	12.0	pyFR	0	TJ057
603.85	3.073	1476263	PROB	3.045	n/a	n/a	n/a	4	[3 6 1]	10.0	pyFR	0	TJ057
606.923	8.951	1479336	PROB	8.924	n/a	n/a	n/a	4	[7 5 9]	21.0	pyFR	0	TJ057
615.874	3.475	1488287	PROB	3.446	n/a	n/a	n/a	4	[8 8 2]	18.0	pyFR	0	TJ057
619.349	2.61	1491762	PROB	2.61	n/a	n/a	n/a	4	[8 5 5]	18.0	pyFR	0	TJ057
621.959	1.115	1494372	STOP	n/a	n/a	n/a	n/a	4	[-999 -999 -999]	-999.0	pyFR	0	TJ057
623.074	1.457	1495487	REC_START	n/a	n/a	n/a	-999.0	4	n/a	n/a	pyFR	0	TJ057
624.531	1.346	1496944	REC_WORD	1.457	n/a	SHEEP	-999.0	4	n/a	n/a	pyFR	0	TJ057
625.877	3.563	1498290	REC_WORD	2.803	n/a	DUCK	-999.0	4	n/a	n/a	pyFR	0	TJ057
629.44	1.963	1501853	REC_WORD	6.366	n/a	SHIP	-999.0	4	n/a	n/a	pyFR	0	TJ057
631.403	1.852	1503816	REC_WORD	8.329	n/a	APE	-999.0	4	n/a	n/a	pyFR	0	TJ057
633.255	10.831	1505668	REC_WORD	10.181	n/a	HOUSE	-999.0	4	n/a	n/a	pyFR	0	TJ057
644.086	37.855	1516499	REC_WORD	21.012	n/a	CLOCK	-999.0	4	n/a	n/a	pyFR	0	TJ057
681.941	0.016	1554354	TRIAL	n/a	n/a	n/a	-999.0	5	n/a	n/a	pyFR	0	TJ057
681.957	1.6	1554370	ORIENT	n/a	n/a	n/a	-999.0	5	n/a	n/a	pyFR	0	TJ057
684.829	1.6	1557242	WORD	n/a	wordpools/wordpool_EN.txt	INK	1.0	5	n/a	n/a	pyFR	0	TJ057
687.368	1.6	1559781	WORD	n/a	wordpools/wordpool_EN.txt	OAK	2.0	5	n/a	n/a	pyFR	0	TJ057
690.006	1.6	1562419	WORD	n/a	wordpools/wordpool_EN.txt	FOX	3.0	5	n/a	n/a	pyFR	0	TJ057
692.678	1.6	1565091	WORD	n/a	wordpools/wordpool_EN.txt	PRINCE	4.0	5	n/a	n/a	pyFR	0	TJ057
695.418	1.6	1567831	WORD	n/a	wordpools/wordpool_EN.txt	FLAG	5.0	5	n/a	n/a	pyFR	0	TJ057
697.955	1.6	1570368	WORD	n/a	wordpools/wordpool_EN.txt	SPOON	6.0	5	n/a	n/a	pyFR	0	TJ057
700.627	1.6	1573040	WORD	n/a	wordpools/wordpool_EN.txt	PLANT	7.0	5	n/a	n/a	pyFR	0	TJ057
703.15	1.6	1575563	WORD	n/a	wordpools/wordpool_EN.txt	RIB	8.0	5	n/a	n/a	pyFR	0	TJ057
705.637	1.6	1578050	WORD	n/a	wordpools/wordpool_EN.txt	EAR	9.0	5	n/a	n/a	pyFR	0	TJ057
708.36	1.6	1580773	WORD	n/a	wordpools/wordpool_EN.txt	VASE	10.0	5	n/a	n/a	pyFR	0	TJ057
711.133	1.6	1583546	WORD	n/a	wordpools/wordpool_EN.txt	LAMB	11.0	5	n/a	n/a	pyFR	0	TJ057
713.804	1.6	1586217	WORD	n/a	wordpools/wordpool_EN.txt	SKY	12.0	5	n/a	n/a	pyFR	0	TJ057
716.36	1.6	1588773	WORD	n/a	wordpools/wordpool_EN.txt	CASH	13.0	5	n/a	n/a	pyFR	0	TJ057
718.83	1.6	1591243	WORD	n/a	wordpools/wordpool_EN.txt	MOOSE	14.0	5	n/a	n/a	pyFR	0	TJ057
721.636	1.6	1594049	WORD	n/a	wordpools/wordpool_EN.txt	FORT	15.0	5	n/a	n/a	pyFR	0	TJ057
723.258	0.917	1595671	START	n/a	n/a	n/a	n/a	5	[-999 -999 -999]	-999.0	pyFR	0	TJ057
724.175	4.525	1596588	PROB	4.492	n/a	n/a	n/a	5	[5 2 7]	14.0	pyFR	0	TJ057
728.7	4.091	1601113	PROB	4.063	n/a	n/a	n/a	5	[8 7 5]	20.0	pyFR	0	TJ057
732.791	2.557	1605204	PROB	2.517	n/a	n/a	n/a	5	[2 3 3]	8.0	pyFR	0	TJ057
735.348	4.96	1607761	PROB	4.92	n/a	n/a	n/a	5	[7 9 9]	25.0	pyFR	0	TJ057
740.308	3.599	1612721	PROB	3.599	n/a	n/a	n/a	5	[9 5 3]	17.0	pyFR	0	TJ057
743.907	1.161	1616320	STOP	n/a	n/a	n/a	n/a	5	[-999 -999 -999]	-999.0	pyFR	0	TJ057
745.068	1.724	1617481	REC_START	n/a	n/a	n/a	-999.0	5	n/a	n/a	pyFR	0	TJ057
746.792	4.796	1619205	REC_WORD	1.724	n/a	LAMB	-999.0	5	n/a	n/a	pyFR	0	TJ057
751.588	2.314	1624001	REC_WORD	6.52	n/a	SHEEP	-999.0	5	n/a	n/a	pyFR	0	TJ057
753.902	1.033	1626315	REC_WORD	8.834	n/a	INK	-999.0	5	n/a	n/a	pyFR	0	TJ057
754.935	1.192	1627348	REC_WORD	9.867	n/a	SKY	-999.0	5	n/a	n/a	pyFR	0	TJ057
756.127	19.026	1628540	REC_WORD	11.059	n/a	SPOON	-999.0	5	n/a	n/a	pyFR	0	TJ057
775.153	52.38	1647566	REC_WORD_VV	30.085	n/a	<>	-999.0	5	n/a	n/a	pyFR	0	TJ057
827.533	0.015	1699945	TRIAL	n/a	n/a	n/a	-999.0	6	n/a	n/a	pyFR	0	TJ057
827.548	1.6	1699960	ORIENT	n/a	n/a	n/a	-999.0	6	n/a	n/a	pyFR	0	TJ057
830.405	1.6	1702817	WORD	n/a	wordpools/wordpool_EN.txt	MUD	1.0	6	n/a	n/a	pyFR	0	TJ057
833.244	1.6	1705656	WORD	n/a	wordpools/wordpool_EN.txt	WORM	2.0	6	n/a	n/a	pyFR	0	TJ057
835.982	1.6	1708394	WORD	n/a	wordpools/wordpool_EN.txt	BED	3.0	6	n/a	n/a	pyFR	0	TJ057
838.72	1.6	1711132	WORD	n/a	wordpools/wordpool_EN.txt	HOSE	4.0	6	n/a	n/a	pyFR	0	TJ057
841.443	1.6	1713855	WORD	n/a	wordpools/wordpool_EN.txt	HEN	5.0	6	n/a	n/a	pyFR	0	TJ057
844.199	1.6	1716611	WORD	n/a	wordpools/wordpool_EN.txt	STEAM	6.0	6	n/a	n/a	pyFR	0	TJ057
846.753	1.6	1719165	WORD	n/a	wordpools/wordpool_EN.txt	CRANE	7.0	6	n/a	n/a	pyFR	0	TJ057
849.293	1.6	1721705	WORD	n/a	wordpools/wordpool_EN.txt	GOLD	8.0	6	n/a	n/a	pyFR	0	TJ057
851.98	1.6	1724392	WORD	n/a	wordpools/wordpool_EN.txt	CAVE	9.0	6	n/a	n/a	pyFR	0	TJ057
854.736	1.6	1727148	WORD	n/a	wordpools/wordpool_EN.txt	TOAST	10.0	6	n/a	n/a	pyFR	0	TJ057
857.392	1.6	1729804	WORD	n/a	wordpools/wordpool_EN.txt	GRASS	11.0	6	n/a	n/a	pyFR	0	TJ057
860.097	1.6	1732509	WORD	n/a	wordpools/wordpool_EN.txt	SEA	12.0	6	n/a	n/a	pyFR	0	TJ057
862.685	1.6	1735097	WORD	n/a	wordpools/wordpool_EN.txt	ROSE	13.0	6	n/a	n/a	pyFR	0	TJ057
865.525	1.6	1737937	WORD	n/a	wordpools/wordpool_EN.txt	CARD	14.0	6	n/a	n/a	pyFR	0	TJ057
868.314	1.6	1740726	WORD	n/a	wordpools/wordpool_EN.txt	SEED	15.0	6	n/a	n/a	pyFR	0	TJ057
869.934	1.102	1742346	START	n/a	n/a	n/a	n/a	6	[-999 -999 -999]	-999.0	pyFR	0	TJ057
871.036	5.527	1743448	PROB	5.492	n/a	n/a	n/a	6	[5 7 8]	20.0	pyFR	0	TJ057
876.563	4.442	1748975	PROB	4.411	n/a	n/a	n/a	6	[6 6 9]	21.0	pyFR	0	TJ057
881.005	3.458	1753417	PROB	3.418	n/a	n/a	n/a	6	[4 8 8]	20.0	pyFR	0	TJ057
884.463	3.073	1756875	PROB	3.048	n/a	n/a	n/a	6	[6 3 5]	14.0	pyFR	0	TJ057
887.536	2.991	1759948	PROB	2.991	n/a	n/a	n/a	6	[2 1 7]	11.0	pyFR	0	TJ057
890.527	1.1	1762939	STOP	n/a	n/a	n/a	n/a	6	[-999 -999 -999]	-999.0	pyFR	0	TJ057
891.627	2.067	1764039	REC_START	n/a	n/a	n/a	-999.0	6	n/a	n/a	pyFR	0	TJ057
893.694	4.295	1766106	REC_WORD	2.067	n/a	SEED	-999.0	6	n/a	n/a	pyFR	0	TJ057
897.989	9.241	1770401	REC_WORD	6.362	n/a	CRANE	-999.0	6	n/a	n/a	pyFR	0	TJ057
907.23	8.323	1779642	REC_WORD	15.603	n/a	HOSE	-999.0	6	n/a	n/a	pyFR	0	TJ057
915.553	8.713	1787965	REC_WORD	23.926	n/a	HEN	-999.0	6	n/a	n/a	pyFR	0	TJ057
924.266	16.476	1796678	REC_WORD	32.639	n/a	BED	-999.0	6	n/a	n/a	pyFR	0	TJ057
940.742	0.016	1813154	TRIAL	n/a	n/a	n/a	-999.0	7	n/a	n/a	pyFR	0	TJ057
940.758	1.6	1813170	ORIENT	n/a	n/a	n/a	-999.0	7	n/a	n/a	pyFR	0	TJ057
943.664	1.6	1816076	WORD	n/a	wordpools/wordpool_EN.txt	BRANCH	1.0	7	n/a	n/a	pyFR	0	TJ057
946.404	1.6	1818816	WORD	n/a	wordpools/wordpool_EN.txt	HAND	2.0	7	n/a	n/a	pyFR	0	TJ057
949.025	1.6	1821437	WORD	n/a	wordpools/wordpool_EN.txt	TOE	3.0	7	n/a	n/a	pyFR	0	TJ057
951.497	1.6	1823909	WORD	n/a	wordpools/wordpool_EN.txt	BANK	4.0	7	n/a	n/a	pyFR	0	TJ057
954.236	1.6	1826648	WORD	n/a	wordpools/wordpool_EN.txt	GOAT	5.0	7	n/a	n/a	pyFR	0	TJ057
956.807	1.6	1829219	WORD	n/a	wordpools/wordpool_EN.txt	SHRIMP	6.0	7	n/a	n/a	pyFR	0	TJ057
959.513	1.6	1831925	WORD	n/a	wordpools/wordpool_EN.txt	FROG	7.0	7	n/a	n/a	pyFR	0	TJ057
962.319	1.6	1834731	WORD	n/a	wordpools/wordpool_EN.txt	BLOOM	8.0	7	n/a	n/a	pyFR	0	TJ057
964.99	1.6	1837402	WORD	n/a	wordpools/wordpool_EN.txt	MILK	9.0	7	n/a	n/a	pyFR	0	TJ057
967.513	1.6	1839925	WORD	n/a	wordpools/wordpool_EN.txt	STOOL	10.0	7	n/a	n/a	pyFR	0	TJ057
970.101	1.6	1842513	WORD	n/a	wordpools/wordpool_EN.txt	DRESS	11.0	7	n/a	n/a	pyFR	0	TJ057
972.622	1.6	1845034	WORD	n/a	wordpools/wordpool_EN.txt	HAWK	12.0	7	n/a	n/a	pyFR	0	TJ057
975.228	1.6	1847640	WORD	n/a	wordpools/wordpool_EN.txt	BOY	13.0	7	n/a	n/a	pyFR	0	TJ057
977.966	1.6	1850378	WORD	n/a	wordpools/wordpool_EN.txt	MOTH	14.0	7	n/a	n/a	pyFR	0	TJ057
980.422	1.6	1852834	WORD	n/a	wordpools/wordpool_EN.txt	RICE	15.0	7	n/a	n/a	pyFR	0	TJ057
982.043	1.168	1854455	START	n/a	n/a	n/a	n/a	7	[-999 -999 -999]	-999.0	pyFR	0	TJ057
983.211	4.708	1855623	PROB	4.672	n/a	n/a	n/a	7	[9 5 2]	16.0	pyFR	0	TJ057
987.919	2.606	1860331	PROB	2.581	n/a	n/a	n/a	7	[1 8 2]	11.0	pyFR	0	TJ057
990.525	3.591	1862937	PROB	3.558	n/a	n/a	n/a	7	[3 2 6]	11.0	pyFR	0	TJ057
994.116	5.476	1866528	PROB	5.439	n/a	n/a	n/a	7	[9 6 5]	20.0	pyFR	0	TJ057
999.592	3.154	1872004	PROB	3.154	n/a	n/a	n/a	7	[3 8 7]	18.0	pyFR	0	TJ057
1002.746	1.139	1875158	STOP	n/a	n/a	n/a	n/a	7	[-999 -999 -999]	-999.0	pyFR	0	TJ057
1003.885	1.126	1876297	REC_START	n/a	n/a	n/a	-999.0	7	n/a	n/a	pyFR	0	TJ057
1005.011	0.656	1877423	REC_WORD_VV	1.126	n/a	<>	-999.0	7	n/a	n/a	pyFR	0	TJ057
1005.667	1.003	1878079	REC_WORD	1.782	n/a	MOSS	-999.0	7	n/a	n/a	pyFR	0	TJ057
1006.67	1.275	1879082	REC_WORD	2.785	n/a	FROG	-999.0	7	n/a	n/a	pyFR	0	TJ057
1007.945	15.65	1880357	REC_WORD	4.06	n/a	SHRIMP	-999.0	7	n/a	n/a	pyFR	0	TJ057
1023.595	7.346	1896007	REC_WORD	19.71	n/a	HORSE	-999.0	7	n/a	n/a	pyFR	0	TJ057
1030.941	2.264	1903353	REC_WORD	27.056	n/a	BRANCH	-999.0	7	n/a	n/a	pyFR	0	TJ057
1033.205	76.425	1905617	REC_WORD	29.32	n/a	HAND	-999.0	7	n/a	n/a	pyFR	0	TJ057
1109.63	0.016	1982042	TRIAL	n/a	n/a	n/a	-999.0	8	n/a	n/a	pyFR	0	TJ057
1109.646	1.6	1982058	ORIENT	n/a	n/a	n/a	-999.0	8	n/a	n/a	pyFR	0	TJ057
1112.469	1.6	1984881	WORD	n/a	wordpools/wordpool_EN.txt	BAND	1.0	8	n/a	n/a	pyFR	0	TJ057
1114.923	1.6	1987335	WORD	n/a	wordpools/wordpool_EN.txt	MAIL	2.0	8	n/a	n/a	pyFR	0	TJ057
1117.413	1.6	1989825	WORD	n/a	wordpools/wordpool_EN.txt	BRICK	3.0	8	n/a	n/a	pyFR	0	TJ057
1120.218	1.6	1992630	WORD	n/a	wordpools/wordpool_EN.txt	MAP	4.0	8	n/a	n/a	pyFR	0	TJ057
1122.672	1.6	1995084	WORD	n/a	wordpools/wordpool_EN.txt	BOARD	5.0	8	n/a	n/a	pyFR	0	TJ057
1125.379	1.6	1997791	WORD	n/a	wordpools/wordpool_EN.txt	COIN	6.0	8	n/a	n/a	pyFR	0	TJ057
1128.084	1.6	2000496	WORD	n/a	wordpools/wordpool_EN.txt	WEB	7.0	8	n/a	n/a	pyFR	0	TJ057
1130.571	1.6	2002983	WORD	n/a	wordpools/wordpool_EN.txt	MOUTH	8.0	8	n/a	n/a	pyFR	0	TJ057
1133.228	1.6	2005640	WORD	n/a	wordpools/wordpool_EN.txt	SNAKE	9.0	8	n/a	n/a	pyFR	0	TJ057
1135.698	1.6	2008110	WORD	n/a	wordpools/wordpool_EN.txt	CHALK	10.0	8	n/a	n/a	pyFR	0	TJ057
1138.288	1.6	2010700	WORD	n/a	wordpools/wordpool_EN.txt	FLUTE	11.0	8	n/a	n/a	pyFR	0	TJ057
1140.875	1.6	2013287	WORD	n/a	wordpools/wordpool_EN.txt	STREET	12.0	8	n/a	n/a	pyFR	0	TJ057
1143.331	1.6	2015743	WORD	n/a	wordpools/wordpool_EN.txt	CUP	13.0	8	n/a	n/a	pyFR	0	TJ057
1146.087	1.6	2018499	WORD	n/a	wordpools/wordpool_EN.txt	SMILE	14.0	8	n/a	n/a	pyFR	0	TJ057
1148.808	1.6	2021220	WORD	n/a	wordpools/wordpool_EN.txt	WOLF	15.0	8	n/a	n/a	pyFR	0	TJ057
1150.431	1.2	2022843	START	n/a	n/a	n/a	n/a	8	[-999 -999 -999]	-999.0	pyFR	0	TJ057
1151.631	5.928	2024043	PROB	5.889	n/a	n/a	n/a	8	[2 7 6]	15.0	pyFR	0	TJ057
1157.559	5.177	2029971	PROB	5.144	n/a	n/a	n/a	8	[9 5 8]	22.0	pyFR	0	TJ057
1162.736	3.174	2035148	PROB	2.759	n/a	n/a	n/a	8	[9 3 7]	19.0	pyFR	0	TJ057
1165.91	3.174	2038322	PROB	3.145	n/a	n/a	n/a	8	[6 3 7]	16.0	pyFR	0	TJ057
1169.084	2.995	2041496	PROB	2.995	n/a	n/a	n/a	8	[2 8 7]	17.0	pyFR	0	TJ057
1172.079	1.064	2044491	STOP	n/a	n/a	n/a	n/a	8	[-999 -999 -999]	-999.0	pyFR	0	TJ057
1173.143	5.507	2045555	REC_START	n/a	n/a	n/a	-999.0	8	n/a	n/a	pyFR	0	TJ057
1178.65	1.423	2051062	REC_WORD	5.507	n/a	SHOP	-999.0	8	n/a	n/a	pyFR	0	TJ057
1180.073	2.074	2052485	REC_WORD	6.93	n/a	BOAT	-999.0	8	n/a	n/a	pyFR	0	TJ057
1182.147	0.405	2054559	REC_WORD_VV	9.004	n/a	<>	-999.0	8	n/a	n/a	pyFR	0	TJ057
1182.552	4.272	2054964	REC_WORD	9.409	n/a	CUP	-999.0	8	n/a	n/a	pyFR	0	TJ057
1186.824	3.501	2059236	REC_WORD	13.681	n/a	SHOE	-999.0	8	n/a	n/a	pyFR	0	TJ057
1190.325	9.333	2062737	REC_WORD	17.182	n/a	SHEET	-999.0	8	n/a	n/a	pyFR	0	TJ057
1199.658	5.531	2072070	REC_WORD	26.515	n/a	LACE	-999.0	8	n/a	n/a	pyFR	0	TJ057
1205.189	43.74	2077601	REC_WORD	32.046	n/a	STREET	-999.0	8	n/a	n/a	pyFR	0	TJ057
1248.929	0.016	2121341	TRIAL	n/a	n/a	n/a	-999.0	9	n/a	n/a	pyFR	0	TJ057
1248.945	1.6	2121357	ORIENT	n/a	n/a	n/a	-999.0	9	n/a	n/a	pyFR	0	TJ057
1251.935	1.6	2124347	WORD	n/a	wordpools/wordpool_EN.txt	GATE	1.0	9	n/a	n/a	pyFR	0	TJ057
1254.74	1.6	2127152	WORD	n/a	wordpools/wordpool_EN.txt	ROPE	2.0	9	n/a	n/a	pyFR	0	TJ057
1257.563	1.6	2129975	WORD	n/a	wordpools/wordpool_EN.txt	PLATE	3.0	9	n/a	n/a	pyFR	0	TJ057
1260.136	1.6	2132548	WORD	n/a	wordpools/wordpool_EN.txt	LAMP	4.0	9	n/a	n/a	pyFR	0	TJ057
1262.74	1.6	2135152	WORD	n/a	wordpools/wordpool_EN.txt	FAN	5.0	9	n/a	n/a	pyFR	0	TJ057
1265.413	1.6	2137825	WORD	n/a	wordpools/wordpool_EN.txt	EEL	6.0	9	n/a	n/a	pyFR	0	TJ057
1268.035	1.6	2140447	WORD	n/a	wordpools/wordpool_EN.txt	LEAF	7.0	9	n/a	n/a	pyFR	0	TJ057
1270.572	1.6	2142984	WORD	n/a	wordpools/wordpool_EN.txt	BEE	8.0	9	n/a	n/a	pyFR	0	TJ057
1273.296	1.6	2145708	WORD	n/a	wordpools/wordpool_EN.txt	NEST	9.0	9	n/a	n/a	pyFR	0	TJ057
1275.833	1.6	2148245	WORD	n/a	wordpools/wordpool_EN.txt	BARN	10.0	9	n/a	n/a	pyFR	0	TJ057
1278.605	1.6	2151017	WORD	n/a	wordpools/wordpool_EN.txt	STEM	11.0	9	n/a	n/a	pyFR	0	TJ057
1281.395	1.6	2153807	WORD	n/a	wordpools/wordpool_EN.txt	CLAY	12.0	9	n/a	n/a	pyFR	0	TJ057
1284.235	1.6	2156647	WORD	n/a	wordpools/wordpool_EN.txt	JUDGE	13.0	9	n/a	n/a	pyFR	0	TJ057
1287.023	1.6	2159435	WORD	n/a	wordpools/wordpool_EN.txt	JUICE	14.0	9	n/a	n/a	pyFR	0	TJ057
1289.529	1.6	2161941	WORD	n/a	wordpools/wordpool_EN.txt	FISH	15.0	9	n/a	n/a	pyFR	0	TJ057
1291.15	1.218	2163562	START	n/a	n/a	n/a	n/a	9	[-999 -999 -999]	-999.0	pyFR	0	TJ057
1292.368	3.456	2164780	PROB	3.423	n/a	n/a	n/a	9	[7 3 8]	18.0	pyFR	0	TJ057
1295.824	3.724	2168236	PROB	3.687	n/a	n/a	n/a	9	[1 9 7]	17.0	pyFR	0	TJ057
1299.548	3.257	2171960	PROB	3.218	n/a	n/a	n/a	9	[2 7 3]	12.0	pyFR	0	TJ057
1302.805	2.889	2175217	PROB	2.849	n/a	n/a	n/a	9	[7 6 1]	14.0	pyFR	0	TJ057
1305.694	4.225	2178106	PROB	4.192	n/a	n/a	n/a	9	[7 9 7]	23.0	pyFR	0	TJ057
1309.919	4.007	2182331	PROB	4.007	n/a	n/a	n/a	9	[2 5 9]	16.0	pyFR	0	TJ057
1313.926	1.155	2186338	STOP	n/a	n/a	n/a	n/a	9	[-999 -999 -999]	-999.0	pyFR	0	TJ057
1315.081	1.103	2187493	REC_START	n/a	n/a	n/a	-999.0	9	n/a	n/a	pyFR	0	TJ057
1316.184	0.843	2188596	REC_WORD	1.103	n/a	BEE	-999.0	9	n/a	n/a	pyFR	0	TJ057
1317.027	1.261	2189439	REC_WORD	1.946	n/a	NEST	-999.0	9	n/a	n/a	pyFR	0	TJ057
1318.288	3.277	2190700	REC_WORD	3.207	n/a	BARN	-999.0	9	n/a	n/a	pyFR	0	TJ057
1321.565	1.803	2193977	REC_WORD	6.484	n/a	TREE	-999.0	9	n/a	n/a	pyFR	0	TJ057
1323.368	2.615	2195780	REC_WORD	8.287	n/a	LAMP	-999.0	9	n/a	n/a	pyFR	0	TJ057
1325.983	5.589	2198395	REC_WORD	10.902	n/a	SHADE	-999.0	9	n/a	n/a	pyFR	0	TJ057
1331.572	30.872	2203984	REC_WORD	16.491	n/a	FLOWER	-999.0	9	n/a	n/a	pyFR	0	TJ057
1362.444	0.016	2234856	TRIAL	n/a	n/a	n/a	-999.0	10	n/a	n/a	pyFR	0	TJ057
1362.46	1.6	2234872	ORIENT	n/a	n/a	n/a	-999.0	10	n/a	n/a	pyFR	0	TJ057
1365.433	1.6	2237845	WORD	n/a	wordpools/wordpool_EN.txt	STORM	1.0	10	n/a	n/a	pyFR	0	TJ057
1368.255	1.6	2240667	WORD	n/a	wordpools/wordpool_EN.txt	SHARK	2.0	10	n/a	n/a	pyFR	0	TJ057
1370.876	1.6	2243288	WORD	n/a	wordpools/wordpool_EN.txt	CLOTH	3.0	10	n/a	n/a	pyFR	0	TJ057
1373.332	1.6	2245744	WORD	n/a	wordpools/wordpool_EN.txt	GIRL	4.0	10	n/a	n/a	pyFR	0	TJ057
1376.038	1.6	2248450	WORD	n/a	wordpools/wordpool_EN.txt	JAR	5.0	10	n/a	n/a	pyFR	0	TJ057
1378.542	1.6	2250954	WORD	n/a	wordpools/wordpool_EN.txt	VEST	6.0	10	n/a	n/a	pyFR	0	TJ057
1381.165	1.6	2253577	WORD	n/a	wordpools/wordpool_EN.txt	RAKE	7.0	10	n/a	n/a	pyFR	0	TJ057
1383.769	1.6	2256181	WORD	n/a	wordpools/wordpool_EN.txt	SUN	8.0	10	n/a	n/a	pyFR	0	TJ057
1386.359	1.6	2258771	WORD	n/a	wordpools/wordpool_EN.txt	FLOOR	9.0	10	n/a	n/a	pyFR	0	TJ057
1389.114	1.6	2261526	WORD	n/a	wordpools/wordpool_EN.txt	TOOTH	10.0	10	n/a	n/a	pyFR	0	TJ057
1391.702	1.6	2264114	WORD	n/a	wordpools/wordpool_EN.txt	CHIN	11.0	10	n/a	n/a	pyFR	0	TJ057
1394.292	1.6	2266704	WORD	n/a	wordpools/wordpool_EN.txt	PANTS	12.0	10	n/a	n/a	pyFR	0	TJ057
1396.963	1.6	2269375	WORD	n/a	wordpools/wordpool_EN.txt	COAT	13.0	10	n/a	n/a	pyFR	0	TJ057
1399.752	1.6	2272164	WORD	n/a	wordpools/wordpool_EN.txt	DOCK	14.0	10	n/a	n/a	pyFR	0	TJ057
1402.391	1.6	2274803	WORD	n/a	wordpools/wordpool_EN.txt	BEACH	15.0	10	n/a	n/a	pyFR	0	TJ057
1404.012	0.95	2276424	START	n/a	n/a	n/a	n/a	10	[-999 -999 -999]	-999.0	pyFR	0	TJ057
1404.962	2.773	2277374	PROB	2.732	n/a	n/a	n/a	10	[5 6 5]	16.0	pyFR	0	TJ057
1407.735	3.189	2280147	PROB	3.151	n/a	n/a	n/a	10	[9 4 2]	15.0	pyFR	0	TJ057
1410.924	2.956	2283336	PROB	2.93	n/a	n/a	n/a	10	[5 6 5]	16.0	pyFR	0	TJ057
1413.88	3.542	2286292	PROB	3.503	n/a	n/a	n/a	10	[4 9 8]	21.0	pyFR	0	TJ057
1417.422	2.705	2289834	PROB	2.681	n/a	n/a	n/a	10	[9 2 5]	16.0	pyFR	0	TJ057
1420.127	2.421	2292539	PROB	2.392	n/a	n/a	n/a	10	[2 7 3]	12.0	pyFR	0	TJ057
1422.548	3.868	2294960	PROB	3.868	n/a	n/a	n/a	10	[6 7 9]	22.0	pyFR	0	TJ057
1426.416	1.21	2298828	STOP	n/a	n/a	n/a	n/a	10	[-999 -999 -999]	-999.0	pyFR	0	TJ057
1427.626	0.55	2300038	REC_START	n/a	n/a	n/a	-999.0	10	n/a	n/a	pyFR	0	TJ057
1428.176	0.807	2300588	REC_WORD	0.55	n/a	STORM	-999.0	10	n/a	n/a	pyFR	0	TJ057
1428.983	0.898	2301395	REC_WORD	1.357	n/a	SHARK	-999.0	10	n/a	n/a	pyFR	0	TJ057
1429.881	1.804	2302293	REC_WORD	2.255	n/a	CLOTH	-999.0	10	n/a	n/a	pyFR	0	TJ057
1431.685	1.196	2304097	REC_WORD	4.059	n/a	NEST	-999.0	10	n/a	n/a	pyFR	0	TJ057
1432.881	1.187	2305293	REC_WORD	5.255	n/a	GIRL	-999.0	10	n/a	n/a	pyFR	0	TJ057
1434.068	1.262	2306480	REC_WORD	6.442	n/a	RAKE	-999.0	10	n/a	n/a	pyFR	0	TJ057
1435.33	5.716	2307742	REC_WORD	7.704	n/a	SUN	-999.0	10	n/a	n/a	pyFR	0	TJ057
1441.046	180.041	2313458	REC_WORD	13.42	n/a	SHADE	-999.0	10	n/a	n/a	pyFR	0	TJ057
1621.087	0.016	2493498	TRIAL	n/a	n/a	n/a	-999.0	11	n/a	n/a	pyFR	0	TJ057
1621.103	1.6	2493514	ORIENT	n/a	n/a	n/a	-999.0	11	n/a	n/a	pyFR	0	TJ057
1623.941	1.6	2496352	WORD	n/a	wordpools/wordpool_EN.txt	STOVE	1.0	11	n/a	n/a	pyFR	0	TJ057
1626.563	1.6	2498974	WORD	n/a	wordpools/wordpool_EN.txt	SPARK	2.0	11	n/a	n/a	pyFR	0	TJ057
1629.369	1.6	2501780	WORD	n/a	wordpools/wordpool_EN.txt	ROOM	3.0	11	n/a	n/a	pyFR	0	TJ057
1631.89	1.6	2504301	WORD	n/a	wordpools/wordpool_EN.txt	SEAL	4.0	11	n/a	n/a	pyFR	0	TJ057
1634.663	1.6	2507074	WORD	n/a	wordpools/wordpool_EN.txt	SWORD	5.0	11	n/a	n/a	pyFR	0	TJ057
1637.503	1.6	2509914	WORD	n/a	wordpools/wordpool_EN.txt	SPEAR	6.0	11	n/a	n/a	pyFR	0	TJ057
1640.242	1.6	2512653	WORD	n/a	wordpools/wordpool_EN.txt	LAWN	7.0	11	n/a	n/a	pyFR	0	TJ057
1642.696	1.6	2515107	WORD	n/a	wordpools/wordpool_EN.txt	CANE	8.0	11	n/a	n/a	pyFR	0	TJ057
1645.536	1.6	2517947	WORD	n/a	wordpools/wordpool_EN.txt	HOOF	9.0	11	n/a	n/a	pyFR	0	TJ057
1648.225	1.6	2520636	WORD	n/a	wordpools/wordpool_EN.txt	BEAR	10.0	11	n/a	n/a	pyFR	0	TJ057
1650.729	1.6	2523140	WORD	n/a	wordpools/wordpool_EN.txt	WHEEL	11.0	11	n/a	n/a	pyFR	0	TJ057
1653.318	1.6	2525729	WORD	n/a	wordpools/wordpool_EN.txt	HILL	12.0	11	n/a	n/a	pyFR	0	TJ057
1656.107	1.6	2528518	WORD	n/a	wordpools/wordpool_EN.txt	CAGE	13.0	11	n/a	n/a	pyFR	0	TJ057
1658.712	1.6	2531123	WORD	n/a	wordpools/wordpool_EN.txt	SALT	14.0	11	n/a	n/a	pyFR	0	TJ057
1661.368	1.6	2533779	WORD	n/a	wordpools/wordpool_EN.txt	STONE	15.0	11	n/a	n/a	pyFR	0	TJ057
1662.988	1.069	2535399	START	n/a	n/a	n/a	n/a	11	[-999 -999 -999]	-999.0	pyFR	0	TJ057
1664.057	3.44	2536468	PROB	3.398	n/a	n/a	n/a	11	[1 3 6]	10.0	pyFR	0	TJ057
1667.497	5.126	2539908	PROB	5.085	n/a	n/a	n/a	11	[8 7 9]	24.0	pyFR	0	TJ057
1672.623	2.305	2545034	PROB	2.279	n/a	n/a	n/a	11	[8 1 3]	12.0	pyFR	0	TJ057
1674.928	3.691	2547339	PROB	3.662	n/a	n/a	n/a	11	[9 3 3]	15.0	pyFR	0	TJ057
1678.619	4.024	2551030	PROB	3.995	n/a	n/a	n/a	11	[9 4 3]	16.0	pyFR	0	TJ057
1682.643	3.979	2555054	PROB	3.979	n/a	n/a	n/a	11	[3 8 9]	20.0	pyFR	0	TJ057
1686.622	1.116	2559033	STOP	n/a	n/a	n/a	n/a	11	[-999 -999 -999]	-999.0	pyFR	0	TJ057
1687.738	0.758	2560149	REC_START	n/a	n/a	n/a	-999.0	11	n/a	n/a	pyFR	0	TJ057
1688.496	0.988	2560907	REC_WORD	0.758	n/a	SWORD	-999.0	11	n/a	n/a	pyFR	0	TJ057
1689.484	0.967	2561895	REC_WORD	1.746	n/a	CAGE	-999.0	11	n/a	n/a	pyFR	0	TJ057
1690.451	5.91	2562862	REC_WORD	2.713	n/a	SALT	-999.0	11	n/a	n/a	pyFR	0	TJ057
1696.361	1.604	2568772	REC_WORD	8.623	n/a	ROOF	-999.0	11	n/a	n/a	pyFR	0	TJ057
1697.965	7.529	2570376	REC_WORD	10.227	n/a	ROOM	-999.0	11	n/a	n/a	pyFR	0	TJ057
1705.494	2.091	2577905	REC_WORD	17.756	n/a	SEAL	-999.0	11	n/a	n/a	pyFR	0	TJ057
1707.585	27.015	2579996	REC_WORD	19.847	n/a	LEAF	-999.0	11	n/a	n/a	pyFR	0	TJ057
1734.6	0.016	2607011	TRIAL	n/a	n/a	n/a	-999.0	12	n/a	n/a	pyFR	0	TJ057
1734.616	1.6	2607027	ORIENT	n/a	n/a	n/a	-999.0	12	n/a	n/a	pyFR	0	TJ057
1737.306	1.6	2609717	WORD	n/a	wordpools/wordpool_EN.txt	SHIRT	1.0	12	n/a	n/a	pyFR	0	TJ057
1739.943	1.6	2612354	WORD	n/a	wordpools/wordpool_EN.txt	STAIR	2.0	12	n/a	n/a	pyFR	0	TJ057
1742.716	1.6	2615127	WORD	n/a	wordpools/wordpool_EN.txt	LAKE	3.0	12	n/a	n/a	pyFR	0	TJ057
1745.188	1.6	2617599	WORD	n/a	wordpools/wordpool_EN.txt	STRAW	4.0	12	n/a	n/a	pyFR	0	TJ057
1747.809	1.6	2620220	WORD	n/a	wordpools/wordpool_EN.txt	SLIME	5.0	12	n/a	n/a	pyFR	0	TJ057
1750.598	1.6	2623009	WORD	n/a	wordpools/wordpool_EN.txt	NET	6.0	12	n/a	n/a	pyFR	0	TJ057
1753.372	1.6	2625783	WORD	n/a	wordpools/wordpool_EN.txt	ARM	7.0	12	n/a	n/a	pyFR	0	TJ057
1755.892	1.6	2628303	WORD	n/a	wordpools/wordpool_EN.txt	HORN	8.0	12	n/a	n/a	pyFR	0	TJ057
1758.698	1.6	2631109	WORD	n/a	wordpools/wordpool_EN.txt	TEETH	9.0	12	n/a	n/a	pyFR	0	TJ057
1761.522	1.6	2633933	WORD	n/a	wordpools/wordpool_EN.txt	MAZE	10.0	12	n/a	n/a	pyFR	0	TJ057
1764.06	1.6	2636471	WORD	n/a	wordpools/wordpool_EN.txt	SOCK	11.0	12	n/a	n/a	pyFR	0	TJ057
1766.731	1.6	2639142	WORD	n/a	wordpools/wordpool_EN.txt	BOX	12.0	12	n/a	n/a	pyFR	0	TJ057
1769.304	1.6	2641715	WORD	n/a	wordpools/wordpool_EN.txt	FOOT	13.0	12	n/a	n/a	pyFR	0	TJ057
1772.076	1.6	2644487	WORD	n/a	wordpools/wordpool_EN.txt	KEY	14.0	12	n/a	n/a	pyFR	0	TJ057
1774.914	1.6	2647325	WORD	n/a	wordpools/wordpool_EN.txt	SPRING	15.0	12	n/a	n/a	pyFR	0	TJ057
1776.52	0.967	2648931	START	n/a	n/a	n/a	n/a	12	[-999 -999 -999]	-999.0	pyFR	0	TJ057
1777.487	4.292	2649898	PROB	4.263	n/a	n/a	n/a	12	[7 6 1]	14.0	pyFR	0	TJ057
1781.779	7.616	2654190	PROB	7.588	n/a	n/a	n/a	12	[4 6 6]	16.0	pyFR	0	TJ057
1789.395	5.695	2661806	PROB	5.668	n/a	n/a	n/a	12	[8 8 8]	24.0	pyFR	0	TJ057
1795.09	4.173	2667501	PROB	4.173	n/a	n/a	n/a	12	[6 9 4]	19.0	pyFR	0	TJ057
1799.263	1.055	2671674	STOP	n/a	n/a	n/a	n/a	12	[-999 -999 -999]	-999.0	pyFR	0	TJ057
1800.318	3.834	2672729	REC_START	n/a	n/a	n/a	-999.0	12	n/a	n/a	pyFR	0	TJ057
1804.152	0.881	2676563	REC_WORD	3.834	n/a	SOCK	-999.0	12	n/a	n/a	pyFR	0	TJ057
1805.033	1.755	2677444	REC_WORD	4.715	n/a	SLIME	-999.0	12	n/a	n/a	pyFR	0	TJ057
1806.788	1.729	2679199	REC_WORD	6.47	n/a	CAGE	-999.0	12	n/a	n/a	pyFR	0	TJ057
1808.517	3.352	2680928	REC_WORD	8.199	n/a	FOOT	-999.0	12	n/a	n/a	pyFR	0	TJ057
1811.869	10.198	2684280	REC_WORD	11.551	n/a	FLOOR	-999.0	12	n/a	n/a	pyFR	0	TJ057
1822.067	27.517	2694478	REC_WORD	21.749	n/a	SEAL	-999.0	12	n/a	n/a	pyFR	0	TJ057
1849.584	0.016	2721995	TRIAL	n/a	n/a	n/a	-999.0	13	n/a	n/a	pyFR	0	TJ057
1849.6	1.6	2722011	ORIENT	n/a	n/a	n/a	-999.0	13	n/a	n/a	pyFR	0	TJ057
1852.49	1.6	2724901	WORD	n/a	wordpools/wordpool_EN.txt	PEACH	1.0	13	n/a	n/a	pyFR	0	TJ057
1855.262	1.6	2727673	WORD	n/a	wordpools/wordpool_EN.txt	BIRD	2.0	13	n/a	n/a	pyFR	0	TJ057
1857.766	1.6	2730177	WORD	n/a	wordpools/wordpool_EN.txt	TREE	3.0	13	n/a	n/a	pyFR	0	TJ057
1860.206	1.6	2732617	WORD	n/a	wordpools/wordpool_EN.txt	MAT	4.0	13	n/a	n/a	pyFR	0	TJ057
1862.776	1.6	2735187	WORD	n/a	wordpools/wordpool_EN.txt	PEAR	5.0	13	n/a	n/a	pyFR	0	TJ057
1865.533	1.6	2737944	WORD	n/a	wordpools/wordpool_EN.txt	RAIN	6.0	13	n/a	n/a	pyFR	0	TJ057
1868.004	1.6	2740415	WORD	n/a	wordpools/wordpool_EN.txt	FRUIT	7.0	13	n/a	n/a	pyFR	0	TJ057
1870.527	1.6	2742938	WORD	n/a	wordpools/wordpool_EN.txt	BENCH	8.0	13	n/a	n/a	pyFR	0	TJ057
1873.082	1.6	2745493	WORD	n/a	wordpools/wordpool_EN.txt	PHONE	9.0	13	n/a	n/a	pyFR	0	TJ057
1875.552	1.6	2747963	WORD	n/a	wordpools/wordpool_EN.txt	SWAMP	10.0	13	n/a	n/a	pyFR	0	TJ057
1878.226	1.6	2750637	WORD	n/a	wordpools/wordpool_EN.txt	ROOT	11.0	13	n/a	n/a	pyFR	0	TJ057
1880.813	1.6	2753224	WORD	n/a	wordpools/wordpool_EN.txt	FUDGE	12.0	13	n/a	n/a	pyFR	0	TJ057
1883.503	1.6	2755914	WORD	n/a	wordpools/wordpool_EN.txt	CHEEK	13.0	13	n/a	n/a	pyFR	0	TJ057
1886.075	1.6	2758486	WORD	n/a	wordpools/wordpool_EN.txt	OAR	14.0	13	n/a	n/a	pyFR	0	TJ057
1888.53	1.6	2760941	WORD	n/a	wordpools/wordpool_EN.txt	SUIT	15.0	13	n/a	n/a	pyFR	0	TJ057
1890.151	1.218	2762562	START	n/a	n/a	n/a	n/a	13	[-999 -999 -999]	-999.0	pyFR	0	TJ057
1891.369	5.36	2763780	PROB	5.325	n/a	n/a	n/a	13	[9 9 8]	26.0	pyFR	0	TJ057
1896.729	2.723	2769140	PROB	2.694	n/a	n/a	n/a	13	[5 5 1]	11.0	pyFR	0	TJ057
1899.452	2.839	2771863	PROB	2.803	n/a	n/a	n/a	13	[1 7 9]	17.0	pyFR	0	TJ057
1902.291	4.025	2774702	PROB	3.988	n/a	n/a	n/a	13	[9 6 9]	24.0	pyFR	0	TJ057
1906.316	3.987	2778727	PROB	3.987	n/a	n/a	n/a	13	[2 6 2]	10.0	pyFR	0	TJ057
1910.303	1.207	2782714	STOP	n/a	n/a	n/a	n/a	13	[-999 -999 -999]	-999.0	pyFR	0	TJ057
1911.51	1.617	2783921	REC_START	n/a	n/a	n/a	-999.0	13	n/a	n/a	pyFR	0	TJ057
1913.127	6.188	2785538	REC_WORD	1.617	n/a	RAIN	-999.0	13	n/a	n/a	pyFR	0	TJ057
1919.315	5.581	2791726	REC_WORD	7.805	n/a	MAT	-999.0	13	n/a	n/a	pyFR	0	TJ057
1924.896	3.287	2797307	REC_WORD	13.386	n/a	FEAR	-999.0	13	n/a	n/a	pyFR	0	TJ057
1928.183	3.032	2800594	REC_WORD	16.673	n/a	CHEEK	-999.0	13	n/a	n/a	pyFR	0	TJ057
1931.215	7.624	2803626	REC_WORD	19.705	n/a	OAR	-999.0	13	n/a	n/a	pyFR	0	TJ057
1938.839	5.888	2811250	REC_WORD	27.329	n/a	BENCH	-999.0	13	n/a	n/a	pyFR	0	TJ057
1944.727	4.747	2817138	REC_WORD	33.217	n/a	OAK	-999.0	13	n/a	n/a	pyFR	0	TJ057
1949.474	4.163	2821885	REC_WORD	37.964	n/a	FLOOR	-999.0	13	n/a	n/a	pyFR	0	TJ057
1953.637	7.541	2826048	REC_WORD	42.127	n/a	SUIT	-999.0	13	n/a	n/a	pyFR	0	TJ057
1961.178	0.016	2833589	TRIAL	n/a	n/a	n/a	-999.0	14	n/a	n/a	pyFR	0	TJ057
1961.194	1.6	2833605	ORIENT	n/a	n/a	n/a	-999.0	14	n/a	n/a	pyFR	0	TJ057
1964.234	1.6	2836645	WORD	n/a	wordpools/wordpool_EN.txt	POND	1.0	14	n/a	n/a	pyFR	0	TJ057
1966.921	1.6	2839332	WORD	n/a	wordpools/wordpool_EN.txt	STAR	2.0	14	n/a	n/a	pyFR	0	TJ057
1969.744	1.6	2842155	WORD	n/a	wordpools/wordpool_EN.txt	EGG	3.0	14	n/a	n/a	pyFR	0	TJ057
1972.267	1.6	2844678	WORD	n/a	wordpools/wordpool_EN.txt	BRIDGE	4.0	14	n/a	n/a	pyFR	0	TJ057
1974.721	1.6	2847132	WORD	n/a	wordpools/wordpool_EN.txt	FENCE	5.0	14	n/a	n/a	pyFR	0	TJ057
1977.461	1.6	2849872	WORD	n/a	wordpools/wordpool_EN.txt	WEED	6.0	14	n/a	n/a	pyFR	0	TJ057
1980.233	1.6	2852644	WORD	n/a	wordpools/wordpool_EN.txt	BREAD	7.0	14	n/a	n/a	pyFR	0	TJ057
1982.754	1.6	2855165	WORD	n/a	wordpools/wordpool_EN.txt	TRAY	8.0	14	n/a	n/a	pyFR	0	TJ057
1985.576	1.6	2857987	WORD	n/a	wordpools/wordpool_EN.txt	QUEEN	9.0	14	n/a	n/a	pyFR	0	TJ057
1988.399	1.6	2860810	WORD	n/a	wordpools/wordpool_EN.txt	PIT	10.0	14	n/a	n/a	pyFR	0	TJ057
1991.222	1.6	2863633	WORD	n/a	wordpools/wordpool_EN.txt	FLEA	11.0	14	n/a	n/a	pyFR	0	TJ057
1993.96	1.6	2866371	WORD	n/a	wordpools/wordpool_EN.txt	TEA	12.0	14	n/a	n/a	pyFR	0	TJ057
1996.449	1.6	2868860	WORD	n/a	wordpools/wordpool_EN.txt	BRUSH	13.0	14	n/a	n/a	pyFR	0	TJ057
1999.038	1.6	2871449	WORD	n/a	wordpools/wordpool_EN.txt	BLUSH	14.0	14	n/a	n/a	pyFR	0	TJ057
2001.859	1.6	2874270	WORD	n/a	wordpools/wordpool_EN.txt	HOOK	15.0	14	n/a	n/a	pyFR	0	TJ057
2003.482	0.933	2875893	START	n/a	n/a	n/a	n/a	14	[-999 -999 -999]	-999.0	pyFR	0	TJ057
2004.415	3.057	2876826	PROB	3.024	n/a	n/a	n/a	14	[2 3 5]	10.0	pyFR	0	TJ057
2007.472	3.974	2879883	PROB	3.935	n/a	n/a	n/a	14	[7 4 5]	16.0	pyFR	0	TJ057
2011.446	3.223	2883857	PROB	3.184	n/a	n/a	n/a	14	[3 3 8]	14.0	pyFR	0	TJ057
2014.669	2.489	2887080	PROB	2.458	n/a	n/a	n/a	14	[6 2 4]	12.0	pyFR	0	TJ057
2017.158	3.389	2889569	PROB	3.353	n/a	n/a	n/a	14	[1 4 2]	7.0	pyFR	0	TJ057
2020.547	2.188	2892958	PROB	2.155	n/a	n/a	n/a	14	[2 8 9]	19.0	pyFR	0	TJ057
2022.735	3.975	2895146	PROB	3.975	n/a	n/a	n/a	14	[6 2 6]	14.0	pyFR	0	TJ057
2026.71	1.253	2899121	STOP	n/a	n/a	n/a	n/a	14	[-999 -999 -999]	-999.0	pyFR	0	TJ057
2027.963	5.781	2900374	REC_START	n/a	n/a	n/a	-999.0	14	n/a	n/a	pyFR	0	TJ057
2033.744	3.172	2906155	REC_WORD	5.781	n/a	BREAD	-999.0	14	n/a	n/a	pyFR	0	TJ057
2036.916	6.334	2909327	REC_WORD	8.953	n/a	BRIDGE	-999.0	14	n/a	n/a	pyFR	0	TJ057
2043.25	16.001	2915661	REC_WORD	15.287	n/a	CAKE	-999.0	14	n/a	n/a	pyFR	0	TJ057
2059.251	2.755	2931662	REC_WORD	31.288	n/a	BOARD	-999.0	14	n/a	n/a	pyFR	0	TJ057
2062.006	6.694	2934417	REC_WORD	34.043	n/a	BLUSH	-999.0	14	n/a	n/a	pyFR	0	TJ057
2068.7	7.562	2941111	REC_WORD	40.737	n/a	PIT	-999.0	14	n/a	n/a	pyFR	0	TJ057
2076.262	0.016	2948673	TRIAL	n/a	n/a	n/a	-999.0	15	n/a	n/a	pyFR	0	TJ057
2076.278	1.6	2948689	ORIENT	n/a	n/a	n/a	-999.0	15	n/a	n/a	pyFR	0	TJ057
2079.101	1.6	2951512	WORD	n/a	wordpools/wordpool_EN.txt	NOSE	1.0	15	n/a	n/a	pyFR	0	TJ057
2081.539	1.6	2953950	WORD	n/a	wordpools/wordpool_EN.txt	POLE	2.0	15	n/a	n/a	pyFR	0	TJ057
2084.044	1.6	2956455	WORD	n/a	wordpools/wordpool_EN.txt	PIPE	3.0	15	n/a	n/a	pyFR	0	TJ057
2086.499	1.6	2958910	WORD	n/a	wordpools/wordpool_EN.txt	HAT	4.0	15	n/a	n/a	pyFR	0	TJ057
2089.138	1.6	2961549	WORD	n/a	wordpools/wordpool_EN.txt	FARM	5.0	15	n/a	n/a	pyFR	0	TJ057
2091.809	1.6	2964220	WORD	n/a	wordpools/wordpool_EN.txt	PALM	6.0	15	n/a	n/a	pyFR	0	TJ057
2094.315	1.6	2966726	WORD	n/a	wordpools/wordpool_EN.txt	PURSE	7.0	15	n/a	n/a	pyFR	0	TJ057
2096.969	1.6	2969380	WORD	n/a	wordpools/wordpool_EN.txt	PASTE	8.0	15	n/a	n/a	pyFR	0	TJ057
2099.558	1.6	2971969	WORD	n/a	wordpools/wordpool_EN.txt	HOLE	9.0	15	n/a	n/a	pyFR	0	TJ057
2102.298	1.6	2974709	WORD	n/a	wordpools/wordpool_EN.txt	KITE	10.0	15	n/a	n/a	pyFR	0	TJ057
2104.952	1.6	2977363	WORD	n/a	wordpools/wordpool_EN.txt	TAPE	11.0	15	n/a	n/a	pyFR	0	TJ057
2107.574	1.6	2979985	WORD	n/a	wordpools/wordpool_EN.txt	SIGN	12.0	15	n/a	n/a	pyFR	0	TJ057
2110.297	1.6	2982708	WORD	n/a	wordpools/wordpool_EN.txt	CROW	13.0	15	n/a	n/a	pyFR	0	TJ057
2112.968	1.6	2985379	WORD	n/a	wordpools/wordpool_EN.txt	BOMB	14.0	15	n/a	n/a	pyFR	0	TJ057
2115.408	1.6	2987819	WORD	n/a	wordpools/wordpool_EN.txt	DOG	15.0	15	n/a	n/a	pyFR	0	TJ057
2117.029	0.966	2989440	START	n/a	n/a	n/a	n/a	15	[-999 -999 -999]	-999.0	pyFR	0	TJ057
2117.995	3.058	2990406	PROB	3.019	n/a	n/a	n/a	15	[9 7 3]	19.0	pyFR	0	TJ057
2121.053	3.606	2993464	PROB	3.577	n/a	n/a	n/a	15	[9 1 5]	15.0	pyFR	0	TJ057
2124.659	2.723	2997070	PROB	2.684	n/a	n/a	n/a	15	[1 9 3]	13.0	pyFR	0	TJ057
2127.382	3.106	2999793	PROB	3.081	n/a	n/a	n/a	15	[2 2 3]	7.0	pyFR	0	TJ057
2130.488	2.723	3002899	PROB	2.695	n/a	n/a	n/a	15	[2 6 4]	12.0	pyFR	0	TJ057
2133.211	2.889	3005622	PROB	2.852	n/a	n/a	n/a	15	[6 5 8]	19.0	pyFR	0	TJ057
2136.1	2.882	3008511	PROB	2.882	n/a	n/a	n/a	15	[1 6 8]	15.0	pyFR	0	TJ057
2138.982	1.143	3011393	STOP	n/a	n/a	n/a	n/a	15	[-999 -999 -999]	-999.0	pyFR	0	TJ057
2140.125	0.998	3012536	REC_START	n/a	n/a	n/a	-999.0	15	n/a	n/a	pyFR	0	TJ057
2141.123	4.449	3013534	REC_WORD	0.998	n/a	PIPE	-999.0	15	n/a	n/a	pyFR	0	TJ057
2145.572	13.84	3017983	REC_WORD	5.447	n/a	CAGE	-999.0	15	n/a	n/a	pyFR	0	TJ057
2159.412	3.753	3031823	REC_WORD	19.287	n/a	BADGE	-999.0	15	n/a	n/a	pyFR	0	TJ057
2163.165	2.218	3035576	REC_WORD	23.04	n/a	PASTE	-999.0	15	n/a	n/a	pyFR	0	TJ057
2165.383	4.805	3037793	REC_WORD	25.258	n/a	HOLE	-999.0	15	n/a	n/a	pyFR	0	TJ057
2170.188	16.715	3042598	REC_WORD	30.063	n/a	PURSE	-999.0	15	n/a	n/a	pyFR	0	TJ057
2186.903	0.016	3059313	TRIAL	n/a	n/a	n/a	-999.0	16	n/a	n/a	pyFR	0	TJ057
2186.919	1.6	3059329	ORIENT	n/a	n/a	n/a	-999.0	16	n/a	n/a	pyFR	0	TJ057
2189.892	1.6	3062302	WORD	n/a	wordpools/wordpool_EN.txt	CALF	1.0	16	n/a	n/a	pyFR	0	TJ057
2192.465	1.6	3064875	WORD	n/a	wordpools/wordpool_EN.txt	CHIEF	2.0	16	n/a	n/a	pyFR	0	TJ057
2195.237	1.6	3067647	WORD	n/a	wordpools/wordpool_EN.txt	VINE	3.0	16	n/a	n/a	pyFR	0	TJ057
2197.758	1.6	3070168	WORD	n/a	wordpools/wordpool_EN.txt	DRUM	4.0	16	n/a	n/a	pyFR	0	TJ057
2200.331	1.6	3072741	WORD	n/a	wordpools/wordpool_EN.txt	FOOD	5.0	16	n/a	n/a	pyFR	0	TJ057
2203.069	1.6	3075479	WORD	n/a	wordpools/wordpool_EN.txt	COW	6.0	16	n/a	n/a	pyFR	0	TJ057
2205.841	1.6	3078251	WORD	n/a	wordpools/wordpool_EN.txt	SNOW	7.0	16	n/a	n/a	pyFR	0	TJ057
2208.531	1.6	3080941	WORD	n/a	wordpools/wordpool_EN.txt	BOAT	8.0	16	n/a	n/a	pyFR	0	TJ057
2211.052	1.6	3083462	WORD	n/a	wordpools/wordpool_EN.txt	PET	9.0	16	n/a	n/a	pyFR	0	TJ057
2213.874	1.6	3086284	WORD	n/a	wordpools/wordpool_EN.txt	DEER	10.0	16	n/a	n/a	pyFR	0	TJ057
2216.447	1.6	3088857	WORD	n/a	wordpools/wordpool_EN.txt	JAIL	11.0	16	n/a	n/a	pyFR	0	TJ057
2219.202	1.6	3091612	WORD	n/a	wordpools/wordpool_EN.txt	BAG	12.0	16	n/a	n/a	pyFR	0	TJ057
2221.957	1.6	3094367	WORD	n/a	wordpools/wordpool_EN.txt	SKUNK	13.0	16	n/a	n/a	pyFR	0	TJ057
2224.496	1.6	3096906	WORD	n/a	wordpools/wordpool_EN.txt	BROOM	14.0	16	n/a	n/a	pyFR	0	TJ057
2226.967	1.6	3099377	WORD	n/a	wordpools/wordpool_EN.txt	FORK	15.0	16	n/a	n/a	pyFR	0	TJ057
2228.588	0.902	3100998	START	n/a	n/a	n/a	n/a	16	[-999 -999 -999]	-999.0	pyFR	0	TJ057
2229.49	4.458	3101900	PROB	4.42	n/a	n/a	n/a	16	[7 9 9]	25.0	pyFR	0	TJ057
2233.948	2.605	3106358	PROB	2.579	n/a	n/a	n/a	16	[5 1 6]	12.0	pyFR	0	TJ057
2236.553	3.09	3108963	PROB	3.052	n/a	n/a	n/a	16	[4 1 2]	7.0	pyFR	0	TJ057
2239.643	4.158	3112053	PROB	4.131	n/a	n/a	n/a	16	[6 9 9]	24.0	pyFR	0	TJ057
2243.801	3.123	3116211	PROB	3.085	n/a	n/a	n/a	16	[2 6 6]	14.0	pyFR	0	TJ057
2246.924	3.066	3119334	PROB	3.066	n/a	n/a	n/a	16	[6 5 6]	17.0	pyFR	0	TJ057
2249.99	1.161	3122400	STOP	n/a	n/a	n/a	n/a	16	[-999 -999 -999]	-999.0	pyFR	0	TJ057
2251.151	1.038	3123561	REC_START	n/a	n/a	n/a	-999.0	16	n/a	n/a	pyFR	0	TJ057
2252.189	2.19	3124599	REC_WORD	1.038	n/a	PET	-999.0	16	n/a	n/a	pyFR	0	TJ057
2254.379	9.991	3126789	REC_WORD	3.228	n/a	CALF	-999.0	16	n/a	n/a	pyFR	0	TJ057
2264.37	1.884	3136780	REC_WORD	13.219	n/a	CRATE	-999.0	16	n/a	n/a	pyFR	0	TJ057
2266.254	6.27	3138664	REC_WORD	15.103	n/a	BOAT	-999.0	16	n/a	n/a	pyFR	0	TJ057
2272.524	13.067	3144934	REC_WORD	21.373	n/a	DOG	-999.0	16	n/a	n/a	pyFR	0	TJ057
2285.591	598.548	3158001	REC_WORD	34.44	n/a	SUIT	-999.0	16	n/a	n/a	pyFR	0	TJ057
2884.139	0.124	3756548	SESS_END	n/a	n/a	n/a	-999.0	16	n/a	n/a	pyFR	0	TJ057
2884.263	0.0	3756672	E	n/a	n/a	n/a	-999.0	16	n/a	n/a	pyFR	0	TJ057
