onset	duration	sample	trial_type	response_time	stim_file	item_name	serialpos	list	test	answer	experiment	session	subject
0.0	0.0	765625	B	n/a	n/a	n/a	-999	-999	n/a	n/a	pyFR	0	TJ034
0.0	71.515	765625	SESS_START	n/a	n/a	n/a	-999	-999	n/a	n/a	pyFR	0	TJ034
71.515	0.038	n/a	START	n/a	n/a	n/a	n/a	0	[-999 -999 -999]	-999	pyFR	0	TJ034
71.553	51.357	n/a	PROB	n/a	n/a	n/a	n/a	0	[3 4 1]	8	pyFR	0	TJ034
122.91	69.162	n/a	STOP	n/a	n/a	n/a	n/a	0	[-999 -999 -999]	-999	pyFR	0	TJ034
192.072	0.016	957696	TRIAL	n/a	n/a	n/a	-999	1	n/a	n/a	pyFR	0	TJ034
192.088	2.938	957712	ORIENT	n/a	n/a	n/a	-999	1	n/a	n/a	pyFR	0	TJ034
195.026	2.504	960650	WORD	n/a	wordpools/wordpool_EN.txt	CANE	1	1	n/a	n/a	pyFR	0	TJ034
197.53	2.706	963154	WORD	n/a	wordpools/wordpool_EN.txt	OWL	2	1	n/a	n/a	pyFR	0	TJ034
200.236	2.62	965860	WORD	n/a	wordpools/wordpool_EN.txt	CLAY	3	1	n/a	n/a	pyFR	0	TJ034
202.856	2.489	968480	WORD	n/a	wordpools/wordpool_EN.txt	AXE	4	1	n/a	n/a	pyFR	0	TJ034
205.345	2.822	970969	WORD	n/a	wordpools/wordpool_EN.txt	PEARL	5	1	n/a	n/a	pyFR	0	TJ034
208.167	2.804	973791	WORD	n/a	wordpools/wordpool_EN.txt	JEEP	6	1	n/a	n/a	pyFR	0	TJ034
210.971	2.655	976595	WORD	n/a	wordpools/wordpool_EN.txt	THREAD	7	1	n/a	n/a	pyFR	0	TJ034
213.626	2.689	979250	WORD	n/a	wordpools/wordpool_EN.txt	MOON	8	1	n/a	n/a	pyFR	0	TJ034
216.315	2.62	981939	WORD	n/a	wordpools/wordpool_EN.txt	FOAM	9	1	n/a	n/a	pyFR	0	TJ034
218.935	2.538	984559	WORD	n/a	wordpools/wordpool_EN.txt	FRUIT	10	1	n/a	n/a	pyFR	0	TJ034
221.473	2.656	987097	WORD	n/a	wordpools/wordpool_EN.txt	SOCK	11	1	n/a	n/a	pyFR	0	TJ034
224.129	2.737	989753	WORD	n/a	wordpools/wordpool_EN.txt	BAT	12	1	n/a	n/a	pyFR	0	TJ034
226.866	2.573	992490	WORD	n/a	wordpools/wordpool_EN.txt	BANK	13	1	n/a	n/a	pyFR	0	TJ034
229.439	2.57	995063	WORD	n/a	wordpools/wordpool_EN.txt	CHALK	14	1	n/a	n/a	pyFR	0	TJ034
232.009	1.621	997633	WORD	n/a	wordpools/wordpool_EN.txt	SHOE	15	1	n/a	n/a	pyFR	0	TJ034
233.63	0.9	n/a	START	n/a	n/a	n/a	n/a	1	[-999 -999 -999]	-999	pyFR	0	TJ034
234.53	31.055	n/a	PROB	n/a	n/a	n/a	n/a	1	[7 1 1]	9	pyFR	0	TJ034
265.585	1.577	n/a	STOP	n/a	n/a	n/a	n/a	1	[-999 -999 -999]	-999	pyFR	0	TJ034
267.162	0.0	1032785	REC_START	n/a	n/a	n/a	-999	1	n/a	n/a	pyFR	0	TJ034
267.162	1.0	1032785	REC_WORD_VV	1.0	n/a	VV	-999	1	n/a	n/a	pyFR	0	TJ034
268.162	1.0	1033785	REC_WORD_VV	1.0	n/a	VV	-999	1	n/a	n/a	pyFR	0	TJ034
269.162	1.0	1034785	REC_WORD_VV	1.0	n/a	VV	-999	1	n/a	n/a	pyFR	0	TJ034
270.162	1.0	1035785	REC_WORD_VV	1.0	n/a	VV	-999	1	n/a	n/a	pyFR	0	TJ034
271.162	1.0	1036785	REC_WORD_VV	1.0	n/a	VV	-999	1	n/a	n/a	pyFR	0	TJ034
272.162	1.0	1037785	REC_WORD_VV	1.0	n/a	VV	-999	1	n/a	n/a	pyFR	0	TJ034
273.162	1.0	1038785	REC_WORD_VV	1.0	n/a	VV	-999	1	n/a	n/a	pyFR	0	TJ034
274.162	1.785	1039785	REC_WORD_VV	1.785	n/a	VV	-999	1	n/a	n/a	pyFR	0	TJ034
275.947	0.536	1041570	REC_WORD_VV	0.536	n/a	VV	-999	1	n/a	n/a	pyFR	0	TJ034
276.483	0.534	1042106	REC_WORD	0.534	n/a	CANE	-999	1	n/a	n/a	pyFR	0	TJ034
277.017	0.81	1042640	REC_WORD	0.81	n/a	SHOE	-999	1	n/a	n/a	pyFR	0	TJ034
277.827	13.602	1043450	REC_WORD	13.602	n/a	SOCK	-999	1	n/a	n/a	pyFR	0	TJ034
291.429	5.599	1057052	REC_WORD_VV	5.599	n/a	VV	-999	1	n/a	n/a	pyFR	0	TJ034
297.028	0.369	1062651	REC_WORD	0.369	n/a	CANE	-999	1	n/a	n/a	pyFR	0	TJ034
297.397	0.43	1063020	REC_WORD	0.43	n/a	SHOE	-999	1	n/a	n/a	pyFR	0	TJ034
297.827	0.733	1063450	REC_WORD	0.733	n/a	SOCK	-999	1	n/a	n/a	pyFR	0	TJ034
298.56	31.461	1064183	REC_WORD	31.461	n/a	BIRD	-999	1	n/a	n/a	pyFR	0	TJ034
330.021	0.016	1095644	TRIAL	n/a	n/a	n/a	-999	2	n/a	n/a	pyFR	0	TJ034
330.037	2.937	1095660	ORIENT	n/a	n/a	n/a	-999	2	n/a	n/a	pyFR	0	TJ034
332.974	2.505	1098597	WORD	n/a	wordpools/wordpool_EN.txt	STAR	1	2	n/a	n/a	pyFR	0	TJ034
335.479	2.722	1101102	WORD	n/a	wordpools/wordpool_EN.txt	PANTS	2	2	n/a	n/a	pyFR	0	TJ034
338.201	2.537	1103824	WORD	n/a	wordpools/wordpool_EN.txt	SHELL	3	2	n/a	n/a	pyFR	0	TJ034
340.738	2.539	1106361	WORD	n/a	wordpools/wordpool_EN.txt	DRUM	4	2	n/a	n/a	pyFR	0	TJ034
343.277	2.654	1108900	WORD	n/a	wordpools/wordpool_EN.txt	PEAR	5	2	n/a	n/a	pyFR	0	TJ034
345.931	2.805	1111554	WORD	n/a	wordpools/wordpool_EN.txt	SHIRT	6	2	n/a	n/a	pyFR	0	TJ034
348.736	2.623	1114359	WORD	n/a	wordpools/wordpool_EN.txt	HILL	7	2	n/a	n/a	pyFR	0	TJ034
351.359	2.436	1116982	WORD	n/a	wordpools/wordpool_EN.txt	SCHOOL	8	2	n/a	n/a	pyFR	0	TJ034
353.795	2.623	1119418	WORD	n/a	wordpools/wordpool_EN.txt	BEAK	9	2	n/a	n/a	pyFR	0	TJ034
356.418	2.487	1122041	WORD	n/a	wordpools/wordpool_EN.txt	SEAL	10	2	n/a	n/a	pyFR	0	TJ034
358.905	2.604	1124528	WORD	n/a	wordpools/wordpool_EN.txt	SEAT	11	2	n/a	n/a	pyFR	0	TJ034
361.509	2.689	1127132	WORD	n/a	wordpools/wordpool_EN.txt	MUG	12	2	n/a	n/a	pyFR	0	TJ034
364.198	2.504	1129821	WORD	n/a	wordpools/wordpool_EN.txt	HAWK	13	2	n/a	n/a	pyFR	0	TJ034
366.702	2.706	1132325	WORD	n/a	wordpools/wordpool_EN.txt	ANT	14	2	n/a	n/a	pyFR	0	TJ034
369.408	1.621	1135031	WORD	n/a	wordpools/wordpool_EN.txt	ROOT	15	2	n/a	n/a	pyFR	0	TJ034
371.029	1.184	n/a	START	n/a	n/a	n/a	n/a	2	[-999 -999 -999]	-999	pyFR	0	TJ034
372.213	14.709	n/a	PROB	n/a	n/a	n/a	n/a	2	[3 7 3]	13	pyFR	0	TJ034
386.922	10.388	n/a	PROB	n/a	n/a	n/a	n/a	2	[6 7 5]	16	pyFR	0	TJ034
397.31	1.167	n/a	STOP	n/a	n/a	n/a	n/a	2	[-999 -999 -999]	-999	pyFR	0	TJ034
398.477	2.517	1164099	REC_START	n/a	n/a	n/a	-999	2	n/a	n/a	pyFR	0	TJ034
400.994	0.524	1166616	REC_WORD_VV	0.524	n/a	VV	-999	2	n/a	n/a	pyFR	0	TJ034
401.518	0.83	1167140	REC_WORD	0.83	n/a	STAR	-999	2	n/a	n/a	pyFR	0	TJ034
402.348	2.699	1167970	REC_WORD	2.699	n/a	SHOE	-999	2	n/a	n/a	pyFR	0	TJ034
405.047	1.0	1170669	REC_WORD_VV	1.0	n/a	VV	-999	2	n/a	n/a	pyFR	0	TJ034
406.047	0.649	1171669	REC_WORD_VV	0.649	n/a	VV	-999	2	n/a	n/a	pyFR	0	TJ034
406.696	7.908	1172318	REC_WORD	7.908	n/a	SOCK	-999	2	n/a	n/a	pyFR	0	TJ034
414.604	35.182	1180226	REC_WORD	35.182	n/a	HILL	-999	2	n/a	n/a	pyFR	0	TJ034
449.786	0.016	1215408	TRIAL	n/a	n/a	n/a	-999	3	n/a	n/a	pyFR	0	TJ034
449.802	2.872	1215424	ORIENT	n/a	n/a	n/a	-999	3	n/a	n/a	pyFR	0	TJ034
452.674	2.439	1218296	WORD	n/a	wordpools/wordpool_EN.txt	JAR	1	3	n/a	n/a	pyFR	0	TJ034
455.113	2.603	1220735	WORD	n/a	wordpools/wordpool_EN.txt	BALL	2	3	n/a	n/a	pyFR	0	TJ034
457.716	2.706	1223338	WORD	n/a	wordpools/wordpool_EN.txt	CHIEF	3	3	n/a	n/a	pyFR	0	TJ034
460.422	2.57	1226044	WORD	n/a	wordpools/wordpool_EN.txt	FARM	4	3	n/a	n/a	pyFR	0	TJ034
462.992	2.755	1228614	WORD	n/a	wordpools/wordpool_EN.txt	SMILE	5	3	n/a	n/a	pyFR	0	TJ034
465.747	2.69	1231369	WORD	n/a	wordpools/wordpool_EN.txt	RAIN	6	3	n/a	n/a	pyFR	0	TJ034
468.437	2.503	1234059	WORD	n/a	wordpools/wordpool_EN.txt	WOLF	7	3	n/a	n/a	pyFR	0	TJ034
470.94	2.738	1236562	WORD	n/a	wordpools/wordpool_EN.txt	TOE	8	3	n/a	n/a	pyFR	0	TJ034
473.678	2.422	1239300	WORD	n/a	wordpools/wordpool_EN.txt	MAZE	9	3	n/a	n/a	pyFR	0	TJ034
476.1	2.821	1241722	WORD	n/a	wordpools/wordpool_EN.txt	STEAK	10	3	n/a	n/a	pyFR	0	TJ034
478.921	2.805	1244543	WORD	n/a	wordpools/wordpool_EN.txt	SLIME	11	3	n/a	n/a	pyFR	0	TJ034
481.726	2.789	1247348	WORD	n/a	wordpools/wordpool_EN.txt	MOOSE	12	3	n/a	n/a	pyFR	0	TJ034
484.515	2.772	1250137	WORD	n/a	wordpools/wordpool_EN.txt	STEAM	13	3	n/a	n/a	pyFR	0	TJ034
487.287	2.755	1252909	WORD	n/a	wordpools/wordpool_EN.txt	BRIDGE	14	3	n/a	n/a	pyFR	0	TJ034
490.042	1.62	1255664	WORD	n/a	wordpools/wordpool_EN.txt	FAN	15	3	n/a	n/a	pyFR	0	TJ034
491.662	1.184	n/a	START	n/a	n/a	n/a	n/a	3	[-999 -999 -999]	-999	pyFR	0	TJ034
492.846	8.766	n/a	PROB	n/a	n/a	n/a	n/a	3	[2 4 3]	9	pyFR	0	TJ034
501.612	7.799	n/a	PROB	n/a	n/a	n/a	n/a	3	[4 7 1]	12	pyFR	0	TJ034
509.411	9.486	n/a	PROB	n/a	n/a	n/a	n/a	3	[8 8 2]	18	pyFR	0	TJ034
518.897	1.184	n/a	STOP	n/a	n/a	n/a	n/a	3	[-999 -999 -999]	-999	pyFR	0	TJ034
520.081	1.537	1285703	REC_START	n/a	n/a	n/a	-999	3	n/a	n/a	pyFR	0	TJ034
521.618	0.595	1287240	REC_WORD_VV	0.595	n/a	VV	-999	3	n/a	n/a	pyFR	0	TJ034
522.213	3.467	1287835	REC_WORD	3.467	n/a	JAR	-999	3	n/a	n/a	pyFR	0	TJ034
525.68	1.0	1291302	REC_WORD_VV	1.0	n/a	VV	-999	3	n/a	n/a	pyFR	0	TJ034
526.68	0.396	1292302	REC_WORD_VV	0.396	n/a	VV	-999	3	n/a	n/a	pyFR	0	TJ034
527.076	1.21	1292698	REC_WORD	1.21	n/a	JAR	-999	3	n/a	n/a	pyFR	0	TJ034
528.286	9.218	1293908	REC_WORD	9.218	n/a	BRANCH	-999	3	n/a	n/a	pyFR	0	TJ034
537.504	0.348	1303125	REC_WORD_VV	0.348	n/a	VV	-999	3	n/a	n/a	pyFR	0	TJ034
537.852	9.77	1303473	REC_WORD	9.77	n/a	HILL	-999	3	n/a	n/a	pyFR	0	TJ034
547.622	14.021	1313243	REC_WORD	14.021	n/a	CHIEF	-999	3	n/a	n/a	pyFR	0	TJ034
561.643	12.636	1327264	REC_WORD_VV	12.636	n/a	VV	-999	3	n/a	n/a	pyFR	0	TJ034
574.279	0.015	1339900	TRIAL	n/a	n/a	n/a	-999	4	n/a	n/a	pyFR	0	TJ034
574.294	2.872	1339915	ORIENT	n/a	n/a	n/a	-999	4	n/a	n/a	pyFR	0	TJ034
577.166	2.687	1342787	WORD	n/a	wordpools/wordpool_EN.txt	TRAY	1	4	n/a	n/a	pyFR	0	TJ034
579.853	2.506	1345474	WORD	n/a	wordpools/wordpool_EN.txt	BEE	2	4	n/a	n/a	pyFR	0	TJ034
582.359	2.604	1347980	WORD	n/a	wordpools/wordpool_EN.txt	TRASH	3	4	n/a	n/a	pyFR	0	TJ034
584.963	2.521	1350584	WORD	n/a	wordpools/wordpool_EN.txt	SKUNK	4	4	n/a	n/a	pyFR	0	TJ034
587.484	2.656	1353105	WORD	n/a	wordpools/wordpool_EN.txt	TOAD	5	4	n/a	n/a	pyFR	0	TJ034
590.14	2.754	1355761	WORD	n/a	wordpools/wordpool_EN.txt	CAR	6	4	n/a	n/a	pyFR	0	TJ034
592.894	2.555	1358515	WORD	n/a	wordpools/wordpool_EN.txt	JET	7	4	n/a	n/a	pyFR	0	TJ034
595.449	2.554	1361070	WORD	n/a	wordpools/wordpool_EN.txt	OAR	8	4	n/a	n/a	pyFR	0	TJ034
598.003	2.705	1363624	WORD	n/a	wordpools/wordpool_EN.txt	HAT	9	4	n/a	n/a	pyFR	0	TJ034
600.708	2.505	1366329	WORD	n/a	wordpools/wordpool_EN.txt	CLOTH	10	4	n/a	n/a	pyFR	0	TJ034
603.213	2.554	1368834	WORD	n/a	wordpools/wordpool_EN.txt	PARK	11	4	n/a	n/a	pyFR	0	TJ034
605.767	2.672	1371388	WORD	n/a	wordpools/wordpool_EN.txt	PHONE	12	4	n/a	n/a	pyFR	0	TJ034
608.439	2.554	1374060	WORD	n/a	wordpools/wordpool_EN.txt	STREET	13	4	n/a	n/a	pyFR	0	TJ034
610.993	2.488	1376614	WORD	n/a	wordpools/wordpool_EN.txt	BROOM	14	4	n/a	n/a	pyFR	0	TJ034
613.481	1.622	1379102	WORD	n/a	wordpools/wordpool_EN.txt	POLE	15	4	n/a	n/a	pyFR	0	TJ034
615.103	0.882	n/a	START	n/a	n/a	n/a	n/a	4	[-999 -999 -999]	-999	pyFR	0	TJ034
615.985	8.916	n/a	PROB	n/a	n/a	n/a	n/a	4	[8 4 5]	17	pyFR	0	TJ034
624.901	4.926	n/a	PROB	n/a	n/a	n/a	n/a	4	[6 1 6]	13	pyFR	0	TJ034
629.827	5.612	n/a	PROB	n/a	n/a	n/a	n/a	4	[6 2 7]	15	pyFR	0	TJ034
635.439	1.084	n/a	STOP	n/a	n/a	n/a	n/a	4	[-999 -999 -999]	-999	pyFR	0	TJ034
636.523	1.595	1402144	REC_START	n/a	n/a	n/a	-999	4	n/a	n/a	pyFR	0	TJ034
638.118	0.73	1403739	REC_WORD_VV	0.73	n/a	VV	-999	4	n/a	n/a	pyFR	0	TJ034
638.848	1.335	1404469	REC_WORD_VV	1.335	n/a	VV	-999	4	n/a	n/a	pyFR	0	TJ034
640.183	0.382	1405804	REC_WORD	0.382	n/a	BEE	-999	4	n/a	n/a	pyFR	0	TJ034
640.565	3.037	1406186	REC_WORD	3.037	n/a	TRASH	-999	4	n/a	n/a	pyFR	0	TJ034
643.602	0.64	1409223	REC_WORD	0.64	n/a	STOVE	-999	4	n/a	n/a	pyFR	0	TJ034
644.242	3.419	1409863	REC_WORD	3.419	n/a	SKUNK	-999	4	n/a	n/a	pyFR	0	TJ034
647.661	1.0	1413282	REC_WORD_VV	1.0	n/a	VV	-999	4	n/a	n/a	pyFR	0	TJ034
648.661	2.977	1414282	REC_WORD_VV	2.977	n/a	VV	-999	4	n/a	n/a	pyFR	0	TJ034
651.638	3.147	1417259	REC_WORD	3.147	n/a	STOOL	-999	4	n/a	n/a	pyFR	0	TJ034
654.785	2.484	1420406	REC_WORD	2.484	n/a	TOAD	-999	4	n/a	n/a	pyFR	0	TJ034
657.269	30.748	1422890	REC_WORD	30.748	n/a	TOOL	-999	4	n/a	n/a	pyFR	0	TJ034
688.017	0.016	1453637	TRIAL	n/a	n/a	n/a	-999	5	n/a	n/a	pyFR	0	TJ034
688.033	2.654	1453653	ORIENT	n/a	n/a	n/a	-999	5	n/a	n/a	pyFR	0	TJ034
690.687	2.605	1456307	WORD	n/a	wordpools/wordpool_EN.txt	COAT	1	5	n/a	n/a	pyFR	0	TJ034
693.292	2.437	1458912	WORD	n/a	wordpools/wordpool_EN.txt	DOCK	2	5	n/a	n/a	pyFR	0	TJ034
695.729	2.472	1461349	WORD	n/a	wordpools/wordpool_EN.txt	FOOT	3	5	n/a	n/a	pyFR	0	TJ034
698.201	2.587	1463821	WORD	n/a	wordpools/wordpool_EN.txt	PURSE	4	5	n/a	n/a	pyFR	0	TJ034
700.788	2.506	1466408	WORD	n/a	wordpools/wordpool_EN.txt	CAVE	5	5	n/a	n/a	pyFR	0	TJ034
703.294	2.453	1468914	WORD	n/a	wordpools/wordpool_EN.txt	PLATE	6	5	n/a	n/a	pyFR	0	TJ034
705.747	2.739	1471367	WORD	n/a	wordpools/wordpool_EN.txt	SWAMP	7	5	n/a	n/a	pyFR	0	TJ034
708.486	2.589	1474106	WORD	n/a	wordpools/wordpool_EN.txt	BREAD	8	5	n/a	n/a	pyFR	0	TJ034
711.075	2.687	1476695	WORD	n/a	wordpools/wordpool_EN.txt	VASE	9	5	n/a	n/a	pyFR	0	TJ034
713.762	2.655	1479382	WORD	n/a	wordpools/wordpool_EN.txt	WALL	10	5	n/a	n/a	pyFR	0	TJ034
716.417	2.739	1482037	WORD	n/a	wordpools/wordpool_EN.txt	SPOON	11	5	n/a	n/a	pyFR	0	TJ034
719.156	2.804	1484776	WORD	n/a	wordpools/wordpool_EN.txt	CLOCK	12	5	n/a	n/a	pyFR	0	TJ034
721.96	2.688	1487580	WORD	n/a	wordpools/wordpool_EN.txt	CART	13	5	n/a	n/a	pyFR	0	TJ034
724.648	2.706	1490268	WORD	n/a	wordpools/wordpool_EN.txt	BARN	14	5	n/a	n/a	pyFR	0	TJ034
727.354	1.62	1492974	WORD	n/a	wordpools/wordpool_EN.txt	STAIR	15	5	n/a	n/a	pyFR	0	TJ034
728.974	1.0	n/a	START	n/a	n/a	n/a	n/a	5	[-999 -999 -999]	-999	pyFR	0	TJ034
729.974	11.605	n/a	PROB	n/a	n/a	n/a	n/a	5	[7 9 3]	19	pyFR	0	TJ034
741.579	11.696	n/a	PROB	n/a	n/a	n/a	n/a	5	[3 5 7]	15	pyFR	0	TJ034
753.275	1.228	n/a	STOP	n/a	n/a	n/a	n/a	5	[-999 -999 -999]	-999	pyFR	0	TJ034
754.503	6.67	1520123	REC_START	n/a	n/a	n/a	-999	5	n/a	n/a	pyFR	0	TJ034
761.173	4.097	1526793	REC_WORD_VV	4.097	n/a	VV	-999	5	n/a	n/a	pyFR	0	TJ034
765.27	0.705	1530890	REC_WORD_VV	0.705	n/a	VV	-999	5	n/a	n/a	pyFR	0	TJ034
765.975	9.138	1531595	REC_WORD	9.138	n/a	COAT	-999	5	n/a	n/a	pyFR	0	TJ034
775.113	0.471	1540733	REC_WORD	0.471	n/a	COAT	-999	5	n/a	n/a	pyFR	0	TJ034
775.584	7.64	1541204	REC_WORD	7.64	n/a	TOAD	-999	5	n/a	n/a	pyFR	0	TJ034
783.224	21.037	1548844	REC_WORD	21.037	n/a	STOVE	-999	5	n/a	n/a	pyFR	0	TJ034
804.261	0.015	1569881	TRIAL	n/a	n/a	n/a	-999	6	n/a	n/a	pyFR	0	TJ034
804.276	2.738	1569896	ORIENT	n/a	n/a	n/a	-999	6	n/a	n/a	pyFR	0	TJ034
807.014	2.738	1572634	WORD	n/a	wordpools/wordpool_EN.txt	HORSE	1	6	n/a	n/a	pyFR	0	TJ034
809.752	2.472	1575372	WORD	n/a	wordpools/wordpool_EN.txt	BOOT	2	6	n/a	n/a	pyFR	0	TJ034
812.224	2.487	1577844	WORD	n/a	wordpools/wordpool_EN.txt	FISH	3	6	n/a	n/a	pyFR	0	TJ034
814.711	2.622	1580331	WORD	n/a	wordpools/wordpool_EN.txt	COUCH	4	6	n/a	n/a	pyFR	0	TJ034
817.333	2.738	1582953	WORD	n/a	wordpools/wordpool_EN.txt	HEN	5	6	n/a	n/a	pyFR	0	TJ034
820.071	2.654	1585691	WORD	n/a	wordpools/wordpool_EN.txt	PASTE	6	6	n/a	n/a	pyFR	0	TJ034
822.725	2.788	1588345	WORD	n/a	wordpools/wordpool_EN.txt	VINE	7	6	n/a	n/a	pyFR	0	TJ034
825.513	2.723	1591133	WORD	n/a	wordpools/wordpool_EN.txt	HOOK	8	6	n/a	n/a	pyFR	0	TJ034
828.236	2.805	1593856	WORD	n/a	wordpools/wordpool_EN.txt	FLOOR	9	6	n/a	n/a	pyFR	0	TJ034
831.041	2.737	1596660	WORD	n/a	wordpools/wordpool_EN.txt	MOUSE	10	6	n/a	n/a	pyFR	0	TJ034
833.778	2.689	1599397	WORD	n/a	wordpools/wordpool_EN.txt	PLANE	11	6	n/a	n/a	pyFR	0	TJ034
836.467	2.806	1602086	WORD	n/a	wordpools/wordpool_EN.txt	MAT	12	6	n/a	n/a	pyFR	0	TJ034
839.273	2.486	1604892	WORD	n/a	wordpools/wordpool_EN.txt	ROPE	13	6	n/a	n/a	pyFR	0	TJ034
841.759	2.439	1607378	WORD	n/a	wordpools/wordpool_EN.txt	SHARK	14	6	n/a	n/a	pyFR	0	TJ034
844.198	1.62	1609817	WORD	n/a	wordpools/wordpool_EN.txt	KITE	15	6	n/a	n/a	pyFR	0	TJ034
845.818	0.834	n/a	START	n/a	n/a	n/a	n/a	6	[-999 -999 -999]	-999	pyFR	0	TJ034
846.652	7.029	n/a	PROB	n/a	n/a	n/a	n/a	6	[1 9 4]	13	pyFR	0	TJ034
853.681	6.529	n/a	PROB	n/a	n/a	n/a	n/a	6	[4 8 5]	17	pyFR	0	TJ034
860.21	4.257	n/a	PROB	n/a	n/a	n/a	n/a	6	[1 5 6]	12	pyFR	0	TJ034
864.467	9.923	n/a	PROB	n/a	n/a	n/a	n/a	6	[2 7 1]	10	pyFR	0	TJ034
874.39	1.198	n/a	STOP	n/a	n/a	n/a	n/a	6	[-999 -999 -999]	-999	pyFR	0	TJ034
875.588	2.664	1641207	REC_START	n/a	n/a	n/a	-999	6	n/a	n/a	pyFR	0	TJ034
878.252	1.956	1643871	REC_WORD	1.956	n/a	HORSE	-999	6	n/a	n/a	pyFR	0	TJ034
880.208	0.437	1645827	REC_WORD_VV	0.437	n/a	VV	-999	6	n/a	n/a	pyFR	0	TJ034
880.645	0.681	1646264	REC_WORD	0.681	n/a	SHOE	-999	6	n/a	n/a	pyFR	0	TJ034
881.326	9.772	1646945	REC_WORD	9.772	n/a	BENCH	-999	6	n/a	n/a	pyFR	0	TJ034
891.098	3.64	1656717	REC_WORD_VV	3.64	n/a	VV	-999	6	n/a	n/a	pyFR	0	TJ034
894.738	14.627	1660357	REC_WORD	14.627	n/a	TOOL	-999	6	n/a	n/a	pyFR	0	TJ034
909.365	0.883	1674984	REC_WORD	0.883	n/a	HEN	-999	6	n/a	n/a	pyFR	0	TJ034
910.248	3.554	1675867	REC_WORD	3.554	n/a	TOOL	-999	6	n/a	n/a	pyFR	0	TJ034
913.802	1.0	1679421	REC_WORD_VV	1.0	n/a	VV	-999	6	n/a	n/a	pyFR	0	TJ034
914.802	92.559	1680421	REC_WORD_VV	92.559	n/a	VV	-999	6	n/a	n/a	pyFR	0	TJ034
1007.361	0.015	1772979	TRIAL	n/a	n/a	n/a	-999	7	n/a	n/a	pyFR	0	TJ034
1007.376	3.039	1772994	ORIENT	n/a	n/a	n/a	-999	7	n/a	n/a	pyFR	0	TJ034
1010.415	2.788	1776033	WORD	n/a	wordpools/wordpool_EN.txt	BADGE	1	7	n/a	n/a	pyFR	0	TJ034
1013.203	2.537	1778821	WORD	n/a	wordpools/wordpool_EN.txt	YARD	2	7	n/a	n/a	pyFR	0	TJ034
1015.74	2.789	1781358	WORD	n/a	wordpools/wordpool_EN.txt	HOUSE	3	7	n/a	n/a	pyFR	0	TJ034
1018.529	2.639	1784147	WORD	n/a	wordpools/wordpool_EN.txt	STOVE	4	7	n/a	n/a	pyFR	0	TJ034
1021.168	2.47	1786786	WORD	n/a	wordpools/wordpool_EN.txt	ROCK	5	7	n/a	n/a	pyFR	0	TJ034
1023.638	2.739	1789256	WORD	n/a	wordpools/wordpool_EN.txt	SHEEP	6	7	n/a	n/a	pyFR	0	TJ034
1026.377	2.604	1791995	WORD	n/a	wordpools/wordpool_EN.txt	BOY	7	7	n/a	n/a	pyFR	0	TJ034
1028.981	2.671	1794599	WORD	n/a	wordpools/wordpool_EN.txt	MAIL	8	7	n/a	n/a	pyFR	0	TJ034
1031.652	2.606	1797270	WORD	n/a	wordpools/wordpool_EN.txt	LIP	9	7	n/a	n/a	pyFR	0	TJ034
1034.258	2.637	1799876	WORD	n/a	wordpools/wordpool_EN.txt	STORE	10	7	n/a	n/a	pyFR	0	TJ034
1036.895	2.621	1802513	WORD	n/a	wordpools/wordpool_EN.txt	GIRL	11	7	n/a	n/a	pyFR	0	TJ034
1039.516	2.673	1805134	WORD	n/a	wordpools/wordpool_EN.txt	ROOM	12	7	n/a	n/a	pyFR	0	TJ034
1042.189	2.754	1807807	WORD	n/a	wordpools/wordpool_EN.txt	OAK	13	7	n/a	n/a	pyFR	0	TJ034
1044.943	2.439	1810561	WORD	n/a	wordpools/wordpool_EN.txt	MILK	14	7	n/a	n/a	pyFR	0	TJ034
1047.382	1.62	1813000	WORD	n/a	wordpools/wordpool_EN.txt	SPRING	15	7	n/a	n/a	pyFR	0	TJ034
1049.002	1.0	n/a	START	n/a	n/a	n/a	n/a	7	[-999 -999 -999]	-999	pyFR	0	TJ034
1050.002	8.449	n/a	PROB	n/a	n/a	n/a	n/a	7	[5 5 6]	16	pyFR	0	TJ034
1058.451	7.146	n/a	PROB	n/a	n/a	n/a	n/a	7	[1 3 2]	6	pyFR	0	TJ034
1065.597	5.874	n/a	PROB	n/a	n/a	n/a	n/a	7	[1 9 5]	15	pyFR	0	TJ034
1071.471	1.073	n/a	STOP	n/a	n/a	n/a	n/a	7	[-999 -999 -999]	-999	pyFR	0	TJ034
1072.544	1.502	1838162	REC_START	n/a	n/a	n/a	-999	7	n/a	n/a	pyFR	0	TJ034
1074.046	0.698	1839664	REC_WORD_VV	0.698	n/a	VV	-999	7	n/a	n/a	pyFR	0	TJ034
1074.744	0.89	1840362	REC_WORD	0.89	n/a	BADGE	-999	7	n/a	n/a	pyFR	0	TJ034
1075.634	3.142	1841252	REC_WORD	3.142	n/a	YARD	-999	7	n/a	n/a	pyFR	0	TJ034
1078.776	0.726	1844394	REC_WORD	0.726	n/a	SCOOP	-999	7	n/a	n/a	pyFR	0	TJ034
1079.502	5.883	1845120	REC_WORD	5.883	n/a	HILL	-999	7	n/a	n/a	pyFR	0	TJ034
1085.385	7.788	1851003	REC_WORD_VV	7.788	n/a	VV	-999	7	n/a	n/a	pyFR	0	TJ034
1093.173	8.367	1858791	REC_WORD	8.367	n/a	HILL	-999	7	n/a	n/a	pyFR	0	TJ034
1101.54	1.6	1867158	REC_WORD	1.6	n/a	YARD	-999	7	n/a	n/a	pyFR	0	TJ034
1103.14	19.195	1868758	REC_WORD_VV	19.195	n/a	VV	-999	7	n/a	n/a	pyFR	0	TJ034
1122.335	0.015	1887953	TRIAL	n/a	n/a	n/a	-999	8	n/a	n/a	pyFR	0	TJ034
1122.35	2.989	1887968	ORIENT	n/a	n/a	n/a	-999	8	n/a	n/a	pyFR	0	TJ034
1125.339	2.52	1890957	WORD	n/a	wordpools/wordpool_EN.txt	BOX	1	8	n/a	n/a	pyFR	0	TJ034
1127.859	2.489	1893476	WORD	n/a	wordpools/wordpool_EN.txt	TRAIN	2	8	n/a	n/a	pyFR	0	TJ034
1130.348	2.654	1895965	WORD	n/a	wordpools/wordpool_EN.txt	RUG	3	8	n/a	n/a	pyFR	0	TJ034
1133.002	2.554	1898619	WORD	n/a	wordpools/wordpool_EN.txt	FORK	4	8	n/a	n/a	pyFR	0	TJ034
1135.556	2.623	1901173	WORD	n/a	wordpools/wordpool_EN.txt	HOLE	5	8	n/a	n/a	pyFR	0	TJ034
1138.179	2.72	1903796	WORD	n/a	wordpools/wordpool_EN.txt	SHIELD	6	8	n/a	n/a	pyFR	0	TJ034
1140.899	2.705	1906516	WORD	n/a	wordpools/wordpool_EN.txt	STOOL	7	8	n/a	n/a	pyFR	0	TJ034
1143.604	2.556	1909221	WORD	n/a	wordpools/wordpool_EN.txt	FOG	8	8	n/a	n/a	pyFR	0	TJ034
1146.16	2.771	1911777	WORD	n/a	wordpools/wordpool_EN.txt	PIE	9	8	n/a	n/a	pyFR	0	TJ034
1148.931	2.821	1914548	WORD	n/a	wordpools/wordpool_EN.txt	DIME	10	8	n/a	n/a	pyFR	0	TJ034
1151.752	2.589	1917369	WORD	n/a	wordpools/wordpool_EN.txt	SUN	11	8	n/a	n/a	pyFR	0	TJ034
1154.341	2.504	1919958	WORD	n/a	wordpools/wordpool_EN.txt	JUICE	12	8	n/a	n/a	pyFR	0	TJ034
1156.845	2.455	1922462	WORD	n/a	wordpools/wordpool_EN.txt	PET	13	8	n/a	n/a	pyFR	0	TJ034
1159.3	2.537	1924917	WORD	n/a	wordpools/wordpool_EN.txt	PLANT	14	8	n/a	n/a	pyFR	0	TJ034
1161.837	1.606	1927454	WORD	n/a	wordpools/wordpool_EN.txt	MOTH	15	8	n/a	n/a	pyFR	0	TJ034
1163.443	0.933	n/a	START	n/a	n/a	n/a	n/a	8	[-999 -999 -999]	-999	pyFR	0	TJ034
1164.376	8.631	n/a	PROB	n/a	n/a	n/a	n/a	8	[2 6 5]	13	pyFR	0	TJ034
1173.007	9.201	n/a	PROB	n/a	n/a	n/a	n/a	8	[8 3 9]	20	pyFR	0	TJ034
1182.208	6.892	n/a	PROB	n/a	n/a	n/a	n/a	8	[8 2 6]	16	pyFR	0	TJ034
1189.1	1.073	n/a	STOP	n/a	n/a	n/a	n/a	8	[-999 -999 -999]	-999	pyFR	0	TJ034
1190.173	1.118	1955790	REC_START	n/a	n/a	n/a	-999	8	n/a	n/a	pyFR	0	TJ034
1191.291	1.018	1956908	REC_WORD_VV	1.018	n/a	VV	-999	8	n/a	n/a	pyFR	0	TJ034
1192.309	0.756	1957926	REC_WORD	0.756	n/a	BOX	-999	8	n/a	n/a	pyFR	0	TJ034
1193.065	0.578	1958682	REC_WORD	0.578	n/a	TRAIN	-999	8	n/a	n/a	pyFR	0	TJ034
1193.643	1.162	1959260	REC_WORD	1.162	n/a	SCOOP	-999	8	n/a	n/a	pyFR	0	TJ034
1194.805	2.8	1960422	REC_WORD	2.8	n/a	HILL	-999	8	n/a	n/a	pyFR	0	TJ034
1197.605	0.546	1963222	REC_WORD_VV	0.546	n/a	VV	-999	8	n/a	n/a	pyFR	0	TJ034
1198.151	4.668	1963768	REC_WORD	4.668	n/a	YARN	-999	8	n/a	n/a	pyFR	0	TJ034
1202.819	10.907	1968436	REC_WORD	10.907	n/a	CLAY	-999	8	n/a	n/a	pyFR	0	TJ034
1213.726	4.234	1979343	REC_WORD	4.234	n/a	OX	-999	8	n/a	n/a	pyFR	0	TJ034
1217.96	1.0	1983577	REC_WORD	1.0	n/a	HILL	-999	8	n/a	n/a	pyFR	0	TJ034
1218.96	24.76	1984577	REC_WORD_VV	24.76	n/a	VV	-999	8	n/a	n/a	pyFR	0	TJ034
1243.72	0.015	2009337	TRIAL	n/a	n/a	n/a	-999	9	n/a	n/a	pyFR	0	TJ034
1243.735	2.889	2009352	ORIENT	n/a	n/a	n/a	-999	9	n/a	n/a	pyFR	0	TJ034
1246.624	2.722	2012241	WORD	n/a	wordpools/wordpool_EN.txt	DAD	1	9	n/a	n/a	pyFR	0	TJ034
1249.346	2.722	2014963	WORD	n/a	wordpools/wordpool_EN.txt	BOOK	2	9	n/a	n/a	pyFR	0	TJ034
1252.068	2.537	2017685	WORD	n/a	wordpools/wordpool_EN.txt	GEESE	3	9	n/a	n/a	pyFR	0	TJ034
1254.605	2.756	2020222	WORD	n/a	wordpools/wordpool_EN.txt	BAND	4	9	n/a	n/a	pyFR	0	TJ034
1257.361	2.755	2022978	WORD	n/a	wordpools/wordpool_EN.txt	BED	5	9	n/a	n/a	pyFR	0	TJ034
1260.116	2.72	2025733	WORD	n/a	wordpools/wordpool_EN.txt	DART	6	9	n/a	n/a	pyFR	0	TJ034
1262.836	2.573	2028453	WORD	n/a	wordpools/wordpool_EN.txt	CORN	7	9	n/a	n/a	pyFR	0	TJ034
1265.409	2.52	2031026	WORD	n/a	wordpools/wordpool_EN.txt	STEM	8	9	n/a	n/a	pyFR	0	TJ034
1267.929	2.638	2033546	WORD	n/a	wordpools/wordpool_EN.txt	BLOOM	9	9	n/a	n/a	pyFR	0	TJ034
1270.567	2.722	2036184	WORD	n/a	wordpools/wordpool_EN.txt	JAIL	10	9	n/a	n/a	pyFR	0	TJ034
1273.289	2.487	2038906	WORD	n/a	wordpools/wordpool_EN.txt	ARK	11	9	n/a	n/a	pyFR	0	TJ034
1275.776	2.705	2041392	WORD	n/a	wordpools/wordpool_EN.txt	TOAST	12	9	n/a	n/a	pyFR	0	TJ034
1278.481	2.689	2044097	WORD	n/a	wordpools/wordpool_EN.txt	TREE	13	9	n/a	n/a	pyFR	0	TJ034
1281.17	2.621	2046786	WORD	n/a	wordpools/wordpool_EN.txt	FACE	14	9	n/a	n/a	pyFR	0	TJ034
1283.791	1.622	2049407	WORD	n/a	wordpools/wordpool_EN.txt	ARM	15	9	n/a	n/a	pyFR	0	TJ034
1285.413	1.183	n/a	START	n/a	n/a	n/a	n/a	9	[-999 -999 -999]	-999	pyFR	0	TJ034
1286.596	6.278	n/a	PROB	n/a	n/a	n/a	n/a	9	[6 4 1]	11	pyFR	0	TJ034
1292.874	5.377	n/a	PROB	n/a	n/a	n/a	n/a	9	[4 7 4]	15	pyFR	0	TJ034
1298.251	4.024	n/a	PROB	n/a	n/a	n/a	n/a	9	[2 2 9]	13	pyFR	0	TJ034
1302.275	4.613	n/a	PROB	n/a	n/a	n/a	n/a	9	[4 9 9]	22	pyFR	0	TJ034
1306.888	1.047	n/a	STOP	n/a	n/a	n/a	n/a	9	[-999 -999 -999]	-999	pyFR	0	TJ034
1307.935	1.638	2073551	REC_START	n/a	n/a	n/a	-999	9	n/a	n/a	pyFR	0	TJ034
1309.573	0.555	2075189	REC_WORD	0.555	n/a	DAD	-999	9	n/a	n/a	pyFR	0	TJ034
1310.128	2.628	2075744	REC_WORD	2.628	n/a	GEESE	-999	9	n/a	n/a	pyFR	0	TJ034
1312.756	1.0	2078372	REC_WORD_VV	1.0	n/a	VV	-999	9	n/a	n/a	pyFR	0	TJ034
1313.756	2.529	2079372	REC_WORD_VV	2.529	n/a	VV	-999	9	n/a	n/a	pyFR	0	TJ034
1316.285	0.65	2081901	REC_WORD_VV	0.65	n/a	VV	-999	9	n/a	n/a	pyFR	0	TJ034
1316.935	9.152	2082551	REC_WORD	9.152	n/a	YARN	-999	9	n/a	n/a	pyFR	0	TJ034
1326.087	1.0	2091703	REC_WORD_VV	1.0	n/a	VV	-999	9	n/a	n/a	pyFR	0	TJ034
1327.087	1.0	2092703	REC_WORD_VV	1.0	n/a	VV	-999	9	n/a	n/a	pyFR	0	TJ034
1328.087	1.0	2093703	REC_WORD_VV	1.0	n/a	VV	-999	9	n/a	n/a	pyFR	0	TJ034
1329.087	1.0	2094703	REC_WORD_VV	1.0	n/a	VV	-999	9	n/a	n/a	pyFR	0	TJ034
1330.087	1.0	2095703	REC_WORD_VV	1.0	n/a	VV	-999	9	n/a	n/a	pyFR	0	TJ034
1331.087	1.0	2096703	REC_WORD_VV	1.0	n/a	VV	-999	9	n/a	n/a	pyFR	0	TJ034
1332.087	1.0	2097703	REC_WORD_VV	1.0	n/a	VV	-999	9	n/a	n/a	pyFR	0	TJ034
1333.087	1.0	2098703	REC_WORD_VV	1.0	n/a	VV	-999	9	n/a	n/a	pyFR	0	TJ034
1334.087	1.0	2099703	REC_WORD_VV	1.0	n/a	VV	-999	9	n/a	n/a	pyFR	0	TJ034
1335.087	3.16	2100703	REC_WORD_VV	3.16	n/a	VV	-999	9	n/a	n/a	pyFR	0	TJ034
1338.247	1.348	2103863	REC_WORD_VV	1.348	n/a	VV	-999	9	n/a	n/a	pyFR	0	TJ034
1339.595	2.27	2105211	REC_WORD	2.27	n/a	HILL	-999	9	n/a	n/a	pyFR	0	TJ034
1341.865	3.475	2107481	REC_WORD	3.475	n/a	DAD	-999	9	n/a	n/a	pyFR	0	TJ034
1345.34	21.002	2110956	REC_WORD	21.002	n/a	TRIAL	-999	9	n/a	n/a	pyFR	0	TJ034
1366.342	0.015	2131958	TRIAL	n/a	n/a	n/a	-999	10	n/a	n/a	pyFR	0	TJ034
1366.357	2.822	2131973	ORIENT	n/a	n/a	n/a	-999	10	n/a	n/a	pyFR	0	TJ034
1369.179	2.687	2134795	WORD	n/a	wordpools/wordpool_EN.txt	GRASS	1	10	n/a	n/a	pyFR	0	TJ034
1371.866	2.588	2137482	WORD	n/a	wordpools/wordpool_EN.txt	MOLE	2	10	n/a	n/a	pyFR	0	TJ034
1374.454	2.673	2140070	WORD	n/a	wordpools/wordpool_EN.txt	ROAD	3	10	n/a	n/a	pyFR	0	TJ034
1377.127	2.587	2142743	WORD	n/a	wordpools/wordpool_EN.txt	PIPE	4	10	n/a	n/a	pyFR	0	TJ034
1379.714	2.455	2145330	WORD	n/a	wordpools/wordpool_EN.txt	FILM	5	10	n/a	n/a	pyFR	0	TJ034
1382.169	2.737	2147785	WORD	n/a	wordpools/wordpool_EN.txt	GLOVE	6	10	n/a	n/a	pyFR	0	TJ034
1384.906	2.689	2150522	WORD	n/a	wordpools/wordpool_EN.txt	QUEEN	7	10	n/a	n/a	pyFR	0	TJ034
1387.595	2.422	2153211	WORD	n/a	wordpools/wordpool_EN.txt	POND	8	10	n/a	n/a	pyFR	0	TJ034
1390.017	2.72	2155633	WORD	n/a	wordpools/wordpool_EN.txt	CORD	9	10	n/a	n/a	pyFR	0	TJ034
1392.737	2.656	2158353	WORD	n/a	wordpools/wordpool_EN.txt	PEA	10	10	n/a	n/a	pyFR	0	TJ034
1395.393	2.554	2161009	WORD	n/a	wordpools/wordpool_EN.txt	WEED	11	10	n/a	n/a	pyFR	0	TJ034
1397.947	2.805	2163563	WORD	n/a	wordpools/wordpool_EN.txt	SPEAR	12	10	n/a	n/a	pyFR	0	TJ034
1400.752	2.489	2166368	WORD	n/a	wordpools/wordpool_EN.txt	INK	13	10	n/a	n/a	pyFR	0	TJ034
1403.241	2.737	2168857	WORD	n/a	wordpools/wordpool_EN.txt	WORM	14	10	n/a	n/a	pyFR	0	TJ034
1405.978	1.621	2171594	WORD	n/a	wordpools/wordpool_EN.txt	ICE	15	10	n/a	n/a	pyFR	0	TJ034
1407.599	0.933	n/a	START	n/a	n/a	n/a	n/a	10	[-999 -999 -999]	-999	pyFR	0	TJ034
1408.532	9.502	n/a	PROB	n/a	n/a	n/a	n/a	10	[4 9 6]	19	pyFR	0	TJ034
1418.034	4.891	n/a	PROB	n/a	n/a	n/a	n/a	10	[4 2 5]	11	pyFR	0	TJ034
1422.925	8.336	n/a	PROB	n/a	n/a	n/a	n/a	10	[5 7 2]	14	pyFR	0	TJ034
1431.261	1.232	n/a	STOP	n/a	n/a	n/a	n/a	10	[-999 -999 -999]	-999	pyFR	0	TJ034
1432.493	0.958	2198108	REC_START	n/a	n/a	n/a	-999	10	n/a	n/a	pyFR	0	TJ034
1433.451	0.745	2199066	REC_WORD_VV	0.745	n/a	VV	-999	10	n/a	n/a	pyFR	0	TJ034
1434.196	0.529	2199811	REC_WORD	0.529	n/a	PINE	-999	10	n/a	n/a	pyFR	0	TJ034
1434.725	2.71	2200340	REC_WORD	2.71	n/a	CORD	-999	10	n/a	n/a	pyFR	0	TJ034
1437.435	4.646	2203050	REC_WORD	4.646	n/a	WEED	-999	10	n/a	n/a	pyFR	0	TJ034
1442.081	1.0	2207696	REC_WORD_VV	1.0	n/a	VV	-999	10	n/a	n/a	pyFR	0	TJ034
1443.081	12.167	2208696	REC_WORD_VV	12.167	n/a	VV	-999	10	n/a	n/a	pyFR	0	TJ034
1455.248	0.5	2220863	REC_WORD_VV	0.5	n/a	VV	-999	10	n/a	n/a	pyFR	0	TJ034
1455.748	0.91	2221363	REC_WORD	0.91	n/a	SLEEP	-999	10	n/a	n/a	pyFR	0	TJ034
1456.658	1.816	2222273	REC_WORD	1.816	n/a	SLEEP	-999	10	n/a	n/a	pyFR	0	TJ034
1458.474	2.927	2224089	REC_WORD	2.927	n/a	SLEEK	-999	10	n/a	n/a	pyFR	0	TJ034
1461.401	25.608	2227016	REC_WORD	25.608	n/a	CORD	-999	10	n/a	n/a	pyFR	0	TJ034
1487.009	0.016	2252624	TRIAL	n/a	n/a	n/a	-999	11	n/a	n/a	pyFR	0	TJ034
1487.025	2.671	2252640	ORIENT	n/a	n/a	n/a	-999	11	n/a	n/a	pyFR	0	TJ034
1489.696	2.771	2255311	WORD	n/a	wordpools/wordpool_EN.txt	FLEA	1	11	n/a	n/a	pyFR	0	TJ034
1492.467	2.522	2258082	WORD	n/a	wordpools/wordpool_EN.txt	WOOD	2	11	n/a	n/a	pyFR	0	TJ034
1494.989	2.604	2260604	WORD	n/a	wordpools/wordpool_EN.txt	LAKE	3	11	n/a	n/a	pyFR	0	TJ034
1497.593	2.673	2263208	WORD	n/a	wordpools/wordpool_EN.txt	COW	4	11	n/a	n/a	pyFR	0	TJ034
1500.266	2.453	2265881	WORD	n/a	wordpools/wordpool_EN.txt	SINK	5	11	n/a	n/a	pyFR	0	TJ034
1502.719	2.805	2268334	WORD	n/a	wordpools/wordpool_EN.txt	KING	6	11	n/a	n/a	pyFR	0	TJ034
1505.524	2.689	2271139	WORD	n/a	wordpools/wordpool_EN.txt	WEB	7	11	n/a	n/a	pyFR	0	TJ034
1508.213	2.671	2273828	WORD	n/a	wordpools/wordpool_EN.txt	NAIL	8	11	n/a	n/a	pyFR	0	TJ034
1510.884	2.822	2276499	WORD	n/a	wordpools/wordpool_EN.txt	ZOO	9	11	n/a	n/a	pyFR	0	TJ034
1513.706	2.505	2279321	WORD	n/a	wordpools/wordpool_EN.txt	BEACH	10	11	n/a	n/a	pyFR	0	TJ034
1516.211	2.604	2281826	WORD	n/a	wordpools/wordpool_EN.txt	BEAR	11	11	n/a	n/a	pyFR	0	TJ034
1518.815	2.755	2284430	WORD	n/a	wordpools/wordpool_EN.txt	BATH	12	11	n/a	n/a	pyFR	0	TJ034
1521.57	2.756	2287185	WORD	n/a	wordpools/wordpool_EN.txt	POOL	13	11	n/a	n/a	pyFR	0	TJ034
1524.326	2.772	2289941	WORD	n/a	wordpools/wordpool_EN.txt	BIRD	14	11	n/a	n/a	pyFR	0	TJ034
1527.098	1.62	2292713	WORD	n/a	wordpools/wordpool_EN.txt	COIN	15	11	n/a	n/a	pyFR	0	TJ034
1528.718	0.9	n/a	START	n/a	n/a	n/a	n/a	11	[-999 -999 -999]	-999	pyFR	0	TJ034
1529.618	5.877	n/a	PROB	n/a	n/a	n/a	n/a	11	[2 4 1]	7	pyFR	0	TJ034
1535.495	6.395	n/a	PROB	n/a	n/a	n/a	n/a	11	[2 6 8]	16	pyFR	0	TJ034
1541.89	4.192	n/a	PROB	n/a	n/a	n/a	n/a	11	[5 3 5]	13	pyFR	0	TJ034
1546.082	4.135	n/a	PROB	n/a	n/a	n/a	n/a	11	[4 6 2]	12	pyFR	0	TJ034
1550.217	1.108	n/a	STOP	n/a	n/a	n/a	n/a	11	[-999 -999 -999]	-999	pyFR	0	TJ034
1551.325	0.881	2316940	REC_START	n/a	n/a	n/a	-999	11	n/a	n/a	pyFR	0	TJ034
1552.206	0.55	2317821	REC_WORD_VV	0.55	n/a	VV	-999	11	n/a	n/a	pyFR	0	TJ034
1552.756	0.759	2318371	REC_WORD	0.759	n/a	FLEA	-999	11	n/a	n/a	pyFR	0	TJ034
1553.515	0.481	2319130	REC_WORD	0.481	n/a	WOOD	-999	11	n/a	n/a	pyFR	0	TJ034
1553.996	5.307	2319611	REC_WORD	5.307	n/a	BEAR	-999	11	n/a	n/a	pyFR	0	TJ034
1559.303	1.0	2324918	REC_WORD_VV	1.0	n/a	VV	-999	11	n/a	n/a	pyFR	0	TJ034
1560.303	2.786	2325918	REC_WORD_VV	2.786	n/a	VV	-999	11	n/a	n/a	pyFR	0	TJ034
1563.089	0.322	2328704	REC_WORD	0.322	n/a	WOOD	-999	11	n/a	n/a	pyFR	0	TJ034
1563.411	7.06	2329026	REC_WORD	7.06	n/a	BEAR	-999	11	n/a	n/a	pyFR	0	TJ034
1570.471	22.433	2336086	REC_WORD	22.433	n/a	MARK	-999	11	n/a	n/a	pyFR	0	TJ034
1592.904	8.379	2358518	REC_WORD	8.379	n/a	POOL	-999	11	n/a	n/a	pyFR	0	TJ034
1601.283	0.015	2366897	TRIAL	n/a	n/a	n/a	-999	12	n/a	n/a	pyFR	0	TJ034
1601.298	2.805	2366912	ORIENT	n/a	n/a	n/a	-999	12	n/a	n/a	pyFR	0	TJ034
1604.103	2.504	2369717	WORD	n/a	wordpools/wordpool_EN.txt	LAND	1	12	n/a	n/a	pyFR	0	TJ034
1606.607	2.722	2372221	WORD	n/a	wordpools/wordpool_EN.txt	FLUTE	2	12	n/a	n/a	pyFR	0	TJ034
1609.329	2.739	2374943	WORD	n/a	wordpools/wordpool_EN.txt	SWORD	3	12	n/a	n/a	pyFR	0	TJ034
1612.068	2.703	2377682	WORD	n/a	wordpools/wordpool_EN.txt	HAND	4	12	n/a	n/a	pyFR	0	TJ034
1614.771	2.423	2380385	WORD	n/a	wordpools/wordpool_EN.txt	DOLL	5	12	n/a	n/a	pyFR	0	TJ034
1617.194	2.52	2382808	WORD	n/a	wordpools/wordpool_EN.txt	WHEEL	6	12	n/a	n/a	pyFR	0	TJ034
1619.714	2.589	2385328	WORD	n/a	wordpools/wordpool_EN.txt	FOOD	7	12	n/a	n/a	pyFR	0	TJ034
1622.303	2.821	2387917	WORD	n/a	wordpools/wordpool_EN.txt	BRUSH	8	12	n/a	n/a	pyFR	0	TJ034
1625.124	2.587	2390738	WORD	n/a	wordpools/wordpool_EN.txt	FOX	9	12	n/a	n/a	pyFR	0	TJ034
1627.711	2.523	2393325	WORD	n/a	wordpools/wordpool_EN.txt	HEART	10	12	n/a	n/a	pyFR	0	TJ034
1630.234	2.788	2395848	WORD	n/a	wordpools/wordpool_EN.txt	SEA	11	12	n/a	n/a	pyFR	0	TJ034
1633.022	2.487	2398636	WORD	n/a	wordpools/wordpool_EN.txt	HOOF	12	12	n/a	n/a	pyFR	0	TJ034
1635.509	2.806	2401123	WORD	n/a	wordpools/wordpool_EN.txt	TEETH	13	12	n/a	n/a	pyFR	0	TJ034
1638.315	2.47	2403929	WORD	n/a	wordpools/wordpool_EN.txt	SPONGE	14	12	n/a	n/a	pyFR	0	TJ034
1640.785	1.605	2406399	WORD	n/a	wordpools/wordpool_EN.txt	HOSE	15	12	n/a	n/a	pyFR	0	TJ034
1642.39	1.017	n/a	START	n/a	n/a	n/a	n/a	12	[-999 -999 -999]	-999	pyFR	0	TJ034
1643.407	9.066	n/a	PROB	n/a	n/a	n/a	n/a	12	[7 1 9]	17	pyFR	0	TJ034
1652.473	4.86	n/a	PROB	n/a	n/a	n/a	n/a	12	[4 7 4]	15	pyFR	0	TJ034
1657.333	3.84	n/a	PROB	n/a	n/a	n/a	n/a	12	[3 7 4]	14	pyFR	0	TJ034
1661.173	5.856	n/a	PROB	n/a	n/a	n/a	n/a	12	[8 9 8]	25	pyFR	0	TJ034
1667.029	1.174	n/a	STOP	n/a	n/a	n/a	n/a	12	[-999 -999 -999]	-999	pyFR	0	TJ034
1668.203	1.388	2433817	REC_START	n/a	n/a	n/a	-999	12	n/a	n/a	pyFR	0	TJ034
1669.591	2.812	2435205	REC_WORD	2.812	n/a	LAND	-999	12	n/a	n/a	pyFR	0	TJ034
1672.403	0.525	2438017	REC_WORD_VV	0.525	n/a	VV	-999	12	n/a	n/a	pyFR	0	TJ034
1672.928	16.882	2438542	REC_WORD	16.882	n/a	SOAP	-999	12	n/a	n/a	pyFR	0	TJ034
1689.81	8.889	2455424	REC_WORD	8.889	n/a	POSE	-999	12	n/a	n/a	pyFR	0	TJ034
1698.699	18.008	2464313	REC_WORD	18.008	n/a	POISE	-999	12	n/a	n/a	pyFR	0	TJ034
1716.707	0.015	2482321	TRIAL	n/a	n/a	n/a	-999	13	n/a	n/a	pyFR	0	TJ034
1716.722	2.839	2482336	ORIENT	n/a	n/a	n/a	-999	13	n/a	n/a	pyFR	0	TJ034
1719.561	2.421	2485175	WORD	n/a	wordpools/wordpool_EN.txt	SIGN	1	13	n/a	n/a	pyFR	0	TJ034
1721.982	2.571	2487595	WORD	n/a	wordpools/wordpool_EN.txt	CONE	2	13	n/a	n/a	pyFR	0	TJ034
1724.553	2.656	2490166	WORD	n/a	wordpools/wordpool_EN.txt	SUIT	3	13	n/a	n/a	pyFR	0	TJ034
1727.209	2.67	2492822	WORD	n/a	wordpools/wordpool_EN.txt	LOCK	4	13	n/a	n/a	pyFR	0	TJ034
1729.879	2.439	2495492	WORD	n/a	wordpools/wordpool_EN.txt	GOLD	5	13	n/a	n/a	pyFR	0	TJ034
1732.318	2.687	2497931	WORD	n/a	wordpools/wordpool_EN.txt	FUR	6	13	n/a	n/a	pyFR	0	TJ034
1735.005	2.521	2500618	WORD	n/a	wordpools/wordpool_EN.txt	CASH	7	13	n/a	n/a	pyFR	0	TJ034
1737.526	2.639	2503139	WORD	n/a	wordpools/wordpool_EN.txt	WING	8	13	n/a	n/a	pyFR	0	TJ034
1740.165	2.771	2505778	WORD	n/a	wordpools/wordpool_EN.txt	PIG	9	13	n/a	n/a	pyFR	0	TJ034
1742.936	2.555	2508549	WORD	n/a	wordpools/wordpool_EN.txt	FROG	10	13	n/a	n/a	pyFR	0	TJ034
1745.491	2.421	2511104	WORD	n/a	wordpools/wordpool_EN.txt	LEAF	11	13	n/a	n/a	pyFR	0	TJ034
1747.912	2.439	2513525	WORD	n/a	wordpools/wordpool_EN.txt	SOUP	12	13	n/a	n/a	pyFR	0	TJ034
1750.351	2.821	2515964	WORD	n/a	wordpools/wordpool_EN.txt	FORT	13	13	n/a	n/a	pyFR	0	TJ034
1753.172	2.754	2518785	WORD	n/a	wordpools/wordpool_EN.txt	SHIP	14	13	n/a	n/a	pyFR	0	TJ034
1755.926	1.605	2521539	WORD	n/a	wordpools/wordpool_EN.txt	SLUSH	15	13	n/a	n/a	pyFR	0	TJ034
1757.531	0.901	n/a	START	n/a	n/a	n/a	n/a	13	[-999 -999 -999]	-999	pyFR	0	TJ034
1758.432	8.381	n/a	PROB	n/a	n/a	n/a	n/a	13	[7 5 8]	2	pyFR	0	TJ034
1766.813	4.208	n/a	PROB	n/a	n/a	n/a	n/a	13	[6 4 4]	14	pyFR	0	TJ034
1771.021	3.923	n/a	PROB	n/a	n/a	n/a	n/a	13	[2 7 5]	14	pyFR	0	TJ034
1774.944	5.177	n/a	PROB	n/a	n/a	n/a	n/a	13	[6 9 8]	23	pyFR	0	TJ034
1780.121	1.186	n/a	STOP	n/a	n/a	n/a	n/a	13	[-999 -999 -999]	-999	pyFR	0	TJ034
1781.307	1.259	2546920	REC_START	n/a	n/a	n/a	-999	13	n/a	n/a	pyFR	0	TJ034
1782.566	0.508	2548179	REC_WORD_VV	0.508	n/a	VV	-999	13	n/a	n/a	pyFR	0	TJ034
1783.074	0.692	2548687	REC_WORD	0.692	n/a	SIGN	-999	13	n/a	n/a	pyFR	0	TJ034
1783.766	2.915	2549379	REC_WORD	2.915	n/a	FUR	-999	13	n/a	n/a	pyFR	0	TJ034
1786.681	1.0	2552294	REC_WORD_VV	1.0	n/a	VV	-999	13	n/a	n/a	pyFR	0	TJ034
1787.681	8.784	2553294	REC_WORD_VV	8.784	n/a	VV	-999	13	n/a	n/a	pyFR	0	TJ034
1796.465	7.419	2562078	REC_WORD	7.419	n/a	COAT	-999	13	n/a	n/a	pyFR	0	TJ034
1803.884	1.0	2569497	REC_WORD_VV	1.0	n/a	VV	-999	13	n/a	n/a	pyFR	0	TJ034
1804.884	1.693	2570497	REC_WORD_VV	1.693	n/a	VV	-999	13	n/a	n/a	pyFR	0	TJ034
1806.577	3.13	2572190	REC_WORD	3.13	n/a	HOST	-999	13	n/a	n/a	pyFR	0	TJ034
1809.707	4.013	2575320	REC_WORD	4.013	n/a	COACH	-999	13	n/a	n/a	pyFR	0	TJ034
1813.72	6.792	2579333	REC_WORD	6.792	n/a	SIGN	-999	13	n/a	n/a	pyFR	0	TJ034
1820.512	10.417	2586125	REC_WORD_VV	10.417	n/a	VV	-999	13	n/a	n/a	pyFR	0	TJ034
1830.929	0.016	2596542	TRIAL	n/a	n/a	n/a	-999	14	n/a	n/a	pyFR	0	TJ034
1830.945	2.738	2596558	ORIENT	n/a	n/a	n/a	-999	14	n/a	n/a	pyFR	0	TJ034
1833.683	2.772	2599296	WORD	n/a	wordpools/wordpool_EN.txt	WAVE	1	14	n/a	n/a	pyFR	0	TJ034
1836.455	2.421	2602068	WORD	n/a	wordpools/wordpool_EN.txt	BAG	2	14	n/a	n/a	pyFR	0	TJ034
1838.876	2.522	2604489	WORD	n/a	wordpools/wordpool_EN.txt	DITCH	3	14	n/a	n/a	pyFR	0	TJ034
1841.398	2.554	2607011	WORD	n/a	wordpools/wordpool_EN.txt	SEED	4	14	n/a	n/a	pyFR	0	TJ034
1843.952	2.838	2609565	WORD	n/a	wordpools/wordpool_EN.txt	TEA	5	14	n/a	n/a	pyFR	0	TJ034
1846.79	2.573	2612403	WORD	n/a	wordpools/wordpool_EN.txt	JUDGE	6	14	n/a	n/a	pyFR	0	TJ034
1849.363	2.705	2614976	WORD	n/a	wordpools/wordpool_EN.txt	SNAIL	7	14	n/a	n/a	pyFR	0	TJ034
1852.068	2.77	2617681	WORD	n/a	wordpools/wordpool_EN.txt	GATE	8	14	n/a	n/a	pyFR	0	TJ034
1854.838	2.705	2620451	WORD	n/a	wordpools/wordpool_EN.txt	PEN	9	14	n/a	n/a	pyFR	0	TJ034
1857.543	2.756	2623156	WORD	n/a	wordpools/wordpool_EN.txt	CAKE	10	14	n/a	n/a	pyFR	0	TJ034
1860.299	2.67	2625912	WORD	n/a	wordpools/wordpool_EN.txt	NEST	11	14	n/a	n/a	pyFR	0	TJ034
1862.969	2.423	2628582	WORD	n/a	wordpools/wordpool_EN.txt	VAN	12	14	n/a	n/a	pyFR	0	TJ034
1865.392	2.537	2631005	WORD	n/a	wordpools/wordpool_EN.txt	MULE	13	14	n/a	n/a	pyFR	0	TJ034
1867.929	2.704	2633542	WORD	n/a	wordpools/wordpool_EN.txt	PEACH	14	14	n/a	n/a	pyFR	0	TJ034
1870.633	1.606	2636245	WORD	n/a	wordpools/wordpool_EN.txt	BLUSH	15	14	n/a	n/a	pyFR	0	TJ034
1872.239	0.866	n/a	START	n/a	n/a	n/a	n/a	14	[-999 -999 -999]	-999	pyFR	0	TJ034
1873.105	5.093	n/a	PROB	n/a	n/a	n/a	n/a	14	[9 2 6]	17	pyFR	0	TJ034
1878.198	4.758	n/a	PROB	n/a	n/a	n/a	n/a	14	[7 2 7]	16	pyFR	0	TJ034
1882.956	3.64	n/a	PROB	n/a	n/a	n/a	n/a	14	[8 6 3]	17	pyFR	0	TJ034
1886.596	4.023	n/a	PROB	n/a	n/a	n/a	n/a	14	[4 8 3]	15	pyFR	0	TJ034
1890.619	7.138	n/a	PROB	n/a	n/a	n/a	n/a	14	[2 3 7]	12	pyFR	0	TJ034
1897.757	1.044	n/a	STOP	n/a	n/a	n/a	n/a	14	[-999 -999 -999]	-999	pyFR	0	TJ034
1898.801	1.368	2664413	REC_START	n/a	n/a	n/a	-999	14	n/a	n/a	pyFR	0	TJ034
1900.169	1.089	2665781	REC_WORD	1.089	n/a	WAVE	-999	14	n/a	n/a	pyFR	0	TJ034
1901.258	0.425	2666870	REC_WORD	0.425	n/a	BAG	-999	14	n/a	n/a	pyFR	0	TJ034
1901.683	3.75	2667295	REC_WORD	3.75	n/a	NEST	-999	14	n/a	n/a	pyFR	0	TJ034
1905.433	6.924	2671045	REC_WORD	6.924	n/a	HOST	-999	14	n/a	n/a	pyFR	0	TJ034
1912.357	1.0	2677969	REC_WORD_VV	1.0	n/a	VV	-999	14	n/a	n/a	pyFR	0	TJ034
1913.357	42.131	2678969	REC_WORD_VV	42.131	n/a	VV	-999	14	n/a	n/a	pyFR	0	TJ034
1955.488	0.015	2721100	TRIAL	n/a	n/a	n/a	-999	15	n/a	n/a	pyFR	0	TJ034
1955.503	2.806	2721115	ORIENT	n/a	n/a	n/a	-999	15	n/a	n/a	pyFR	0	TJ034
1958.309	2.805	2723921	WORD	n/a	wordpools/wordpool_EN.txt	TOY	1	15	n/a	n/a	pyFR	0	TJ034
1961.114	2.704	2726726	WORD	n/a	wordpools/wordpool_EN.txt	VEST	2	15	n/a	n/a	pyFR	0	TJ034
1963.818	2.789	2729430	WORD	n/a	wordpools/wordpool_EN.txt	STONE	3	15	n/a	n/a	pyFR	0	TJ034
1966.607	2.455	2732219	WORD	n/a	wordpools/wordpool_EN.txt	DUCK	4	15	n/a	n/a	pyFR	0	TJ034
1969.062	2.554	2734674	WORD	n/a	wordpools/wordpool_EN.txt	MAP	5	15	n/a	n/a	pyFR	0	TJ034
1971.616	2.705	2737228	WORD	n/a	wordpools/wordpool_EN.txt	WORLD	6	15	n/a	n/a	pyFR	0	TJ034
1974.321	2.621	2739933	WORD	n/a	wordpools/wordpool_EN.txt	EEL	7	15	n/a	n/a	pyFR	0	TJ034
1976.942	2.588	2742554	WORD	n/a	wordpools/wordpool_EN.txt	CLOUD	8	15	n/a	n/a	pyFR	0	TJ034
1979.53	2.522	2745142	WORD	n/a	wordpools/wordpool_EN.txt	EAR	9	15	n/a	n/a	pyFR	0	TJ034
1982.052	2.821	2747664	WORD	n/a	wordpools/wordpool_EN.txt	RAT	10	15	n/a	n/a	pyFR	0	TJ034
1984.873	2.539	2750485	WORD	n/a	wordpools/wordpool_EN.txt	FLAME	11	15	n/a	n/a	pyFR	0	TJ034
1987.412	2.437	2753024	WORD	n/a	wordpools/wordpool_EN.txt	TAPE	12	15	n/a	n/a	pyFR	0	TJ034
1989.849	2.572	2755461	WORD	n/a	wordpools/wordpool_EN.txt	DEER	13	15	n/a	n/a	pyFR	0	TJ034
1992.421	2.604	2758033	WORD	n/a	wordpools/wordpool_EN.txt	CROW	14	15	n/a	n/a	pyFR	0	TJ034
1995.025	1.621	2760637	WORD	n/a	wordpools/wordpool_EN.txt	BRICK	15	15	n/a	n/a	pyFR	0	TJ034
1996.646	0.983	n/a	START	n/a	n/a	n/a	n/a	15	[-999 -999 -999]	-999	pyFR	0	TJ034
1997.629	5.578	n/a	PROB	n/a	n/a	n/a	n/a	15	[2 6 5]	13	pyFR	0	TJ034
2003.207	5.026	n/a	PROB	n/a	n/a	n/a	n/a	15	[4 3 6]	13	pyFR	0	TJ034
2008.233	11.073	n/a	PROB	n/a	n/a	n/a	n/a	15	[9 2 9]	20	pyFR	0	TJ034
2019.306	1.066	n/a	STOP	n/a	n/a	n/a	n/a	15	[-999 -999 -999]	-999	pyFR	0	TJ034
2020.372	1.034	2785983	REC_START	n/a	n/a	n/a	-999	15	n/a	n/a	pyFR	0	TJ034
2021.406	1.051	2787017	REC_WORD	1.051	n/a	STONE	-999	15	n/a	n/a	pyFR	0	TJ034
2022.457	0.792	2788068	REC_WORD	0.792	n/a	DUCK	-999	15	n/a	n/a	pyFR	0	TJ034
2023.249	1.935	2788860	REC_WORD	1.935	n/a	EEL	-999	15	n/a	n/a	pyFR	0	TJ034
2025.184	1.826	2790795	REC_WORD	1.826	n/a	WORLD	-999	15	n/a	n/a	pyFR	0	TJ034
2027.01	2.588	2792621	REC_WORD	2.588	n/a	MAP	-999	15	n/a	n/a	pyFR	0	TJ034
2029.598	9.029	2795209	REC_WORD	9.029	n/a	BRICK	-999	15	n/a	n/a	pyFR	0	TJ034
2038.627	45.059	2804238	REC_WORD	45.059	n/a	TOY	-999	15	n/a	n/a	pyFR	0	TJ034
2083.686	0.015	2849297	TRIAL	n/a	n/a	n/a	-999	16	n/a	n/a	pyFR	0	TJ034
2083.701	2.989	2849312	ORIENT	n/a	n/a	n/a	-999	16	n/a	n/a	pyFR	0	TJ034
2086.69	2.739	2852301	WORD	n/a	wordpools/wordpool_EN.txt	TIE	1	16	n/a	n/a	pyFR	0	TJ034
2089.429	2.454	2855040	WORD	n/a	wordpools/wordpool_EN.txt	BOARD	2	16	n/a	n/a	pyFR	0	TJ034
2091.883	2.755	2857494	WORD	n/a	wordpools/wordpool_EN.txt	CHEEK	3	16	n/a	n/a	pyFR	0	TJ034
2094.638	2.689	2860249	WORD	n/a	wordpools/wordpool_EN.txt	BRANCH	4	16	n/a	n/a	pyFR	0	TJ034
2097.327	2.503	2862938	WORD	n/a	wordpools/wordpool_EN.txt	SNAKE	5	16	n/a	n/a	pyFR	0	TJ034
2099.83	2.772	2865441	WORD	n/a	wordpools/wordpool_EN.txt	CARD	6	16	n/a	n/a	pyFR	0	TJ034
2102.602	2.589	2868213	WORD	n/a	wordpools/wordpool_EN.txt	STORM	7	16	n/a	n/a	pyFR	0	TJ034
2105.191	2.721	2870802	WORD	n/a	wordpools/wordpool_EN.txt	GOAT	8	16	n/a	n/a	pyFR	0	TJ034
2107.912	2.821	2873523	WORD	n/a	wordpools/wordpool_EN.txt	LEG	9	16	n/a	n/a	pyFR	0	TJ034
2110.733	2.789	2876344	WORD	n/a	wordpools/wordpool_EN.txt	BUSH	10	16	n/a	n/a	pyFR	0	TJ034
2113.522	2.438	2879133	WORD	n/a	wordpools/wordpool_EN.txt	ELF	11	16	n/a	n/a	pyFR	0	TJ034
2115.96	2.472	2881571	WORD	n/a	wordpools/wordpool_EN.txt	STICK	12	16	n/a	n/a	pyFR	0	TJ034
2118.432	2.486	2884043	WORD	n/a	wordpools/wordpool_EN.txt	EGG	13	16	n/a	n/a	pyFR	0	TJ034
2120.918	2.588	2886529	WORD	n/a	wordpools/wordpool_EN.txt	BEAN	14	16	n/a	n/a	pyFR	0	TJ034
2123.506	1.606	2889117	WORD	n/a	wordpools/wordpool_EN.txt	STRAW	15	16	n/a	n/a	pyFR	0	TJ034
2125.112	1.05	n/a	START	n/a	n/a	n/a	n/a	16	[-999 -999 -999]	-999	pyFR	0	TJ034
2126.162	8.648	n/a	PROB	n/a	n/a	n/a	n/a	16	[1 1 3]	5	pyFR	0	TJ034
2134.81	6.011	n/a	PROB	n/a	n/a	n/a	n/a	16	[6 7 3]	16	pyFR	0	TJ034
2140.821	4.007	n/a	PROB	n/a	n/a	n/a	n/a	16	[4 4 7]	13	pyFR	0	TJ034
2144.828	0.0	n/a	PROB	n/a	n/a	n/a	n/a	16	[4 1 1]	6	pyFR	0	TJ034
