onset	duration	sample	trial_type	response_time	stim_file	item_name	serialpos	list	test	answer	experiment	session	subject
0.0	0.0	1172577	B	n/a	n/a	n/a	-999.0	-999	n/a	n/a	pyFR	1	TJ054
0.0	129.586	1172577	SESS_START	n/a	n/a	n/a	-999.0	-999	n/a	n/a	pyFR	1	TJ054
129.586	0.024	1302159	START	n/a	n/a	n/a	n/a	0	[-999 -999 -999]	-999.0	pyFR	1	TJ054
129.61	37.566	1302183	PROB	37.566	n/a	n/a	n/a	0	[7 2 4]	13.0	pyFR	1	TJ054
167.176	252.89	1339747	STOP	n/a	n/a	n/a	n/a	0	[-999 -999 -999]	-999.0	pyFR	1	TJ054
420.066	0.016	1592628	TRIAL	n/a	n/a	n/a	-999.0	1	n/a	n/a	pyFR	1	TJ054
420.082	1.6	1592644	ORIENT	n/a	n/a	n/a	-999.0	1	n/a	n/a	pyFR	1	TJ054
423.087	1.6	1595649	WORD	n/a	wordpools/wordpool_EN.txt	MUD	1.0	1	n/a	n/a	pyFR	1	TJ054
425.876	1.6	1598438	WORD	n/a	wordpools/wordpool_EN.txt	ANT	2.0	1	n/a	n/a	pyFR	1	TJ054
428.631	1.6	1601193	WORD	n/a	wordpools/wordpool_EN.txt	DRESS	3.0	1	n/a	n/a	pyFR	1	TJ054
431.268	1.6	1603830	WORD	n/a	wordpools/wordpool_EN.txt	SNOW	4.0	1	n/a	n/a	pyFR	1	TJ054
434.072	1.6	1606634	WORD	n/a	wordpools/wordpool_EN.txt	GIRL	5.0	1	n/a	n/a	pyFR	1	TJ054
436.86	1.6	1609421	WORD	n/a	wordpools/wordpool_EN.txt	HOLE	6.0	1	n/a	n/a	pyFR	1	TJ054
439.366	1.6	1611927	WORD	n/a	wordpools/wordpool_EN.txt	PRINCE	7.0	1	n/a	n/a	pyFR	1	TJ054
442.069	1.6	1614630	WORD	n/a	wordpools/wordpool_EN.txt	WAND	8.0	1	n/a	n/a	pyFR	1	TJ054
444.857	1.6	1617418	WORD	n/a	wordpools/wordpool_EN.txt	CHALK	9.0	1	n/a	n/a	pyFR	1	TJ054
447.662	1.6	1620223	WORD	n/a	wordpools/wordpool_EN.txt	WALL	10.0	1	n/a	n/a	pyFR	1	TJ054
450.467	1.6	1623028	WORD	n/a	wordpools/wordpool_EN.txt	PIPE	11.0	1	n/a	n/a	pyFR	1	TJ054
453.272	1.6	1625833	WORD	n/a	wordpools/wordpool_EN.txt	FORK	12.0	1	n/a	n/a	pyFR	1	TJ054
456.042	1.6	1628603	WORD	n/a	wordpools/wordpool_EN.txt	THREAD	13.0	1	n/a	n/a	pyFR	1	TJ054
458.797	1.6	1631358	WORD	n/a	wordpools/wordpool_EN.txt	BRANCH	14.0	1	n/a	n/a	pyFR	1	TJ054
461.352	1.6	1633913	WORD	n/a	wordpools/wordpool_EN.txt	LAND	15.0	1	n/a	n/a	pyFR	1	TJ054
462.972	0.917	1635533	START	n/a	n/a	n/a	n/a	1	[-999 -999 -999]	-999.0	pyFR	1	TJ054
463.889	6.645	1636449	PROB	6.61	n/a	n/a	n/a	1	[1 2 1]	3.0	pyFR	1	TJ054
470.534	13.024	1643094	PROB	13.024	n/a	n/a	n/a	1	[1 4 7]	12.0	pyFR	1	TJ054
483.558	1.427	1656118	STOP	n/a	n/a	n/a	n/a	1	[-999 -999 -999]	-999.0	pyFR	1	TJ054
484.985	4.076	1657545	REC_START	n/a	n/a	n/a	-999.0	1	n/a	n/a	pyFR	1	TJ054
489.061	1.0	1661621	REC_WORD_VV	4.076	n/a	<>	-999.0	1	n/a	n/a	pyFR	1	TJ054
490.061	1.0	1662621	REC_WORD_VV	5.076	n/a	<>	-999.0	1	n/a	n/a	pyFR	1	TJ054
491.061	1.542	1663620	REC_WORD_VV	6.076	n/a	<>	-999.0	1	n/a	n/a	pyFR	1	TJ054
492.603	0.923	1665162	REC_WORD	7.618	n/a	THREAD	-999.0	1	n/a	n/a	pyFR	1	TJ054
493.526	0.671	1666085	REC_WORD	8.541	n/a	GIRL	-999.0	1	n/a	n/a	pyFR	1	TJ054
494.197	1.142	1666756	REC_WORD	9.212	n/a	PRINCE	-999.0	1	n/a	n/a	pyFR	1	TJ054
495.339	1.0	1667898	REC_WORD	10.354	n/a	DRESS	-999.0	1	n/a	n/a	pyFR	1	TJ054
496.339	1.0	1668898	REC_WORD	11.354	n/a	SNOW	-999.0	1	n/a	n/a	pyFR	1	TJ054
497.339	80.759	1669898	REC_WORD_VV	12.354	n/a	<>	-999.0	1	n/a	n/a	pyFR	1	TJ054
578.098	0.016	1750654	TRIAL	n/a	n/a	n/a	-999.0	2	n/a	n/a	pyFR	1	TJ054
578.114	1.6	1750670	ORIENT	n/a	n/a	n/a	-999.0	2	n/a	n/a	pyFR	1	TJ054
581.103	1.6	1753659	WORD	n/a	wordpools/wordpool_EN.txt	FLEA	1.0	2	n/a	n/a	pyFR	1	TJ054
583.674	1.6	1756230	WORD	n/a	wordpools/wordpool_EN.txt	FAN	2.0	2	n/a	n/a	pyFR	1	TJ054
586.163	1.6	1758719	WORD	n/a	wordpools/wordpool_EN.txt	TOOL	3.0	2	n/a	n/a	pyFR	1	TJ054
588.732	1.6	1761288	WORD	n/a	wordpools/wordpool_EN.txt	HOOK	4.0	2	n/a	n/a	pyFR	1	TJ054
591.471	1.6	1764027	WORD	n/a	wordpools/wordpool_EN.txt	PET	5.0	2	n/a	n/a	pyFR	1	TJ054
593.908	1.6	1766464	WORD	n/a	wordpools/wordpool_EN.txt	SALT	6.0	2	n/a	n/a	pyFR	1	TJ054
596.513	1.6	1769069	WORD	n/a	wordpools/wordpool_EN.txt	SHIELD	7.0	2	n/a	n/a	pyFR	1	TJ054
598.95	1.6	1771506	WORD	n/a	wordpools/wordpool_EN.txt	PANTS	8.0	2	n/a	n/a	pyFR	1	TJ054
601.737	1.6	1774292	WORD	n/a	wordpools/wordpool_EN.txt	ARK	9.0	2	n/a	n/a	pyFR	1	TJ054
604.276	1.6	1776831	WORD	n/a	wordpools/wordpool_EN.txt	WORLD	10.0	2	n/a	n/a	pyFR	1	TJ054
606.896	1.6	1779451	WORD	n/a	wordpools/wordpool_EN.txt	HEN	11.0	2	n/a	n/a	pyFR	1	TJ054
609.684	1.6	1782239	WORD	n/a	wordpools/wordpool_EN.txt	PEACH	12.0	2	n/a	n/a	pyFR	1	TJ054
612.44	1.6	1784995	WORD	n/a	wordpools/wordpool_EN.txt	JUICE	13.0	2	n/a	n/a	pyFR	1	TJ054
614.943	1.6	1787498	WORD	n/a	wordpools/wordpool_EN.txt	CROWN	14.0	2	n/a	n/a	pyFR	1	TJ054
617.648	1.6	1790203	WORD	n/a	wordpools/wordpool_EN.txt	SHRIMP	15.0	2	n/a	n/a	pyFR	1	TJ054
619.253	1.05	1791808	START	n/a	n/a	n/a	n/a	2	[-999 -999 -999]	-999.0	pyFR	1	TJ054
620.303	35.131	1792858	PROB	35.131	n/a	n/a	n/a	2	[4 6 9]	19.0	pyFR	1	TJ054
655.434	1.064	1827987	STOP	n/a	n/a	n/a	n/a	2	[-999 -999 -999]	-999.0	pyFR	1	TJ054
656.498	9.095	1829051	REC_START	n/a	n/a	n/a	-999.0	2	n/a	n/a	pyFR	1	TJ054
665.593	1.443	1838146	REC_WORD_VV	9.095	n/a	<>	-999.0	2	n/a	n/a	pyFR	1	TJ054
667.036	53.486	1839589	REC_WORD	10.538	n/a	PANTS	-999.0	2	n/a	n/a	pyFR	1	TJ054
720.522	0.016	1893073	TRIAL	n/a	n/a	n/a	-999.0	3	n/a	n/a	pyFR	1	TJ054
720.538	1.6	1893089	ORIENT	n/a	n/a	n/a	-999.0	3	n/a	n/a	pyFR	1	TJ054
723.428	1.6	1895979	WORD	n/a	wordpools/wordpool_EN.txt	STONE	1.0	3	n/a	n/a	pyFR	1	TJ054
726.115	1.6	1898666	WORD	n/a	wordpools/wordpool_EN.txt	HOOF	2.0	3	n/a	n/a	pyFR	1	TJ054
728.635	1.6	1901186	WORD	n/a	wordpools/wordpool_EN.txt	DITCH	3.0	3	n/a	n/a	pyFR	1	TJ054
731.457	1.6	1904008	WORD	n/a	wordpools/wordpool_EN.txt	CASH	4.0	3	n/a	n/a	pyFR	1	TJ054
733.927	1.6	1906478	WORD	n/a	wordpools/wordpool_EN.txt	ROOM	5.0	3	n/a	n/a	pyFR	1	TJ054
736.415	1.6	1908966	WORD	n/a	wordpools/wordpool_EN.txt	NAIL	6.0	3	n/a	n/a	pyFR	1	TJ054
739.086	1.6	1911636	WORD	n/a	wordpools/wordpool_EN.txt	DAD	7.0	3	n/a	n/a	pyFR	1	TJ054
741.541	1.6	1914091	WORD	n/a	wordpools/wordpool_EN.txt	GRASS	8.0	3	n/a	n/a	pyFR	1	TJ054
744.245	1.6	1916795	WORD	n/a	wordpools/wordpool_EN.txt	BEAR	9.0	3	n/a	n/a	pyFR	1	TJ054
746.849	1.6	1919399	WORD	n/a	wordpools/wordpool_EN.txt	DRUM	10.0	3	n/a	n/a	pyFR	1	TJ054
749.304	1.6	1921854	WORD	n/a	wordpools/wordpool_EN.txt	BUSH	11.0	3	n/a	n/a	pyFR	1	TJ054
751.74	1.6	1924290	WORD	n/a	wordpools/wordpool_EN.txt	RICE	12.0	3	n/a	n/a	pyFR	1	TJ054
754.346	1.6	1926896	WORD	n/a	wordpools/wordpool_EN.txt	FOOD	13.0	3	n/a	n/a	pyFR	1	TJ054
757.066	1.6	1929616	WORD	n/a	wordpools/wordpool_EN.txt	PIG	14.0	3	n/a	n/a	pyFR	1	TJ054
759.837	1.6	1932387	WORD	n/a	wordpools/wordpool_EN.txt	TOAST	15.0	3	n/a	n/a	pyFR	1	TJ054
761.442	1.117	1933992	START	n/a	n/a	n/a	n/a	3	[-999 -999 -999]	-999.0	pyFR	1	TJ054
762.559	24.955	1935109	PROB	24.955	n/a	n/a	n/a	3	[8 9 1]	18.0	pyFR	1	TJ054
787.514	1.189	1960063	STOP	n/a	n/a	n/a	n/a	3	[-999 -999 -999]	-999.0	pyFR	1	TJ054
788.703	1.564	1961252	REC_START	n/a	n/a	n/a	-999.0	3	n/a	n/a	pyFR	1	TJ054
790.267	0.125	1962816	REC_WORD	1.564	n/a	RICE	-999.0	3	n/a	n/a	pyFR	1	TJ054
790.392	1.23	1962941	REC_WORD_VV	1.689	n/a	<>	-999.0	3	n/a	n/a	pyFR	1	TJ054
791.622	1.245	1964171	REC_WORD	2.919	n/a	DAD	-999.0	3	n/a	n/a	pyFR	1	TJ054
792.867	15.828	1965415	REC_WORD	4.164	n/a	GRASS	-999.0	3	n/a	n/a	pyFR	1	TJ054
808.695	30.943	1981243	REC_WORD_VV	19.992	n/a	<>	-999.0	3	n/a	n/a	pyFR	1	TJ054
839.638	0.017	2012185	TRIAL	n/a	n/a	n/a	-999.0	4	n/a	n/a	pyFR	1	TJ054
839.655	1.6	2012202	ORIENT	n/a	n/a	n/a	-999.0	4	n/a	n/a	pyFR	1	TJ054
842.544	1.6	2015091	WORD	n/a	wordpools/wordpool_EN.txt	SEAT	1.0	4	n/a	n/a	pyFR	1	TJ054
845.348	1.6	2017895	WORD	n/a	wordpools/wordpool_EN.txt	RAKE	2.0	4	n/a	n/a	pyFR	1	TJ054
847.902	1.6	2020448	WORD	n/a	wordpools/wordpool_EN.txt	BRIDGE	3.0	4	n/a	n/a	pyFR	1	TJ054
850.591	1.6	2023137	WORD	n/a	wordpools/wordpool_EN.txt	TREE	4.0	4	n/a	n/a	pyFR	1	TJ054
853.178	1.6	2025724	WORD	n/a	wordpools/wordpool_EN.txt	BOARD	5.0	4	n/a	n/a	pyFR	1	TJ054
855.999	1.6	2028545	WORD	n/a	wordpools/wordpool_EN.txt	ROCK	6.0	4	n/a	n/a	pyFR	1	TJ054
858.487	1.6	2031033	WORD	n/a	wordpools/wordpool_EN.txt	STAIR	7.0	4	n/a	n/a	pyFR	1	TJ054
861.192	1.6	2033738	WORD	n/a	wordpools/wordpool_EN.txt	CAR	8.0	4	n/a	n/a	pyFR	1	TJ054
863.695	1.6	2036241	WORD	n/a	wordpools/wordpool_EN.txt	PHONE	9.0	4	n/a	n/a	pyFR	1	TJ054
866.167	1.6	2038713	WORD	n/a	wordpools/wordpool_EN.txt	SPOON	10.0	4	n/a	n/a	pyFR	1	TJ054
868.954	1.6	2041500	WORD	n/a	wordpools/wordpool_EN.txt	WHALE	11.0	4	n/a	n/a	pyFR	1	TJ054
871.459	1.6	2044005	WORD	n/a	wordpools/wordpool_EN.txt	POOL	12.0	4	n/a	n/a	pyFR	1	TJ054
874.096	1.6	2046642	WORD	n/a	wordpools/wordpool_EN.txt	INK	13.0	4	n/a	n/a	pyFR	1	TJ054
876.534	1.6	2049079	WORD	n/a	wordpools/wordpool_EN.txt	CART	14.0	4	n/a	n/a	pyFR	1	TJ054
878.971	1.6	2051516	WORD	n/a	wordpools/wordpool_EN.txt	NEST	15.0	4	n/a	n/a	pyFR	1	TJ054
880.592	0.867	2053137	START	n/a	n/a	n/a	n/a	4	[-999 -999 -999]	-999.0	pyFR	1	TJ054
881.459	22.868	2054004	PROB	22.868	n/a	n/a	n/a	4	[6 3 3]	12.0	pyFR	1	TJ054
904.327	1.073	2076871	STOP	n/a	n/a	n/a	n/a	4	[-999 -999 -999]	-999.0	pyFR	1	TJ054
905.4	24.423	2077944	REC_START	n/a	n/a	n/a	-999.0	4	n/a	n/a	pyFR	1	TJ054
929.823	1.0	2102366	REC_WORD_VV	24.423	n/a	<>	-999.0	4	n/a	n/a	pyFR	1	TJ054
930.823	1.0	2103366	REC_WORD_VV	25.423	n/a	<>	-999.0	4	n/a	n/a	pyFR	1	TJ054
931.823	1.0	2104366	REC_WORD_VV	26.423	n/a	<>	-999.0	4	n/a	n/a	pyFR	1	TJ054
932.823	1.0	2105366	REC_WORD_VV	27.423	n/a	<>	-999.0	4	n/a	n/a	pyFR	1	TJ054
933.823	1.0	2106366	REC_WORD_VV	28.423	n/a	<>	-999.0	4	n/a	n/a	pyFR	1	TJ054
934.823	1.371	2107366	REC_WORD_VV	29.423	n/a	<>	-999.0	4	n/a	n/a	pyFR	1	TJ054
936.194	1.0	2108737	REC_WORD	30.794	n/a	PANTS	-999.0	4	n/a	n/a	pyFR	1	TJ054
937.194	1.798	2109737	REC_WORD_VV	31.794	n/a	<>	-999.0	4	n/a	n/a	pyFR	1	TJ054
938.992	1.0	2111535	REC_WORD_VV	33.592	n/a	<>	-999.0	4	n/a	n/a	pyFR	1	TJ054
939.992	1.0	2112535	REC_WORD_VV	34.592	n/a	<>	-999.0	4	n/a	n/a	pyFR	1	TJ054
940.992	2.343	2113535	REC_WORD_VV	35.592	n/a	<>	-999.0	4	n/a	n/a	pyFR	1	TJ054
943.335	25.404	2115878	REC_WORD_VV	37.935	n/a	<>	-999.0	4	n/a	n/a	pyFR	1	TJ054
968.739	0.016	2141281	TRIAL	n/a	n/a	n/a	-999.0	5	n/a	n/a	pyFR	1	TJ054
968.755	1.6	2141297	ORIENT	n/a	n/a	n/a	-999.0	5	n/a	n/a	pyFR	1	TJ054
971.427	1.6	2143969	WORD	n/a	wordpools/wordpool_EN.txt	FOAM	1.0	5	n/a	n/a	pyFR	1	TJ054
974.081	1.6	2146623	WORD	n/a	wordpools/wordpool_EN.txt	HEART	2.0	5	n/a	n/a	pyFR	1	TJ054
976.718	1.6	2149260	WORD	n/a	wordpools/wordpool_EN.txt	TEETH	3.0	5	n/a	n/a	pyFR	1	TJ054
979.408	1.6	2151950	WORD	n/a	wordpools/wordpool_EN.txt	MOON	4.0	5	n/a	n/a	pyFR	1	TJ054
982.246	1.6	2154788	WORD	n/a	wordpools/wordpool_EN.txt	CAKE	5.0	5	n/a	n/a	pyFR	1	TJ054
984.682	1.6	2157223	WORD	n/a	wordpools/wordpool_EN.txt	TOE	6.0	5	n/a	n/a	pyFR	1	TJ054
987.254	1.6	2159795	WORD	n/a	wordpools/wordpool_EN.txt	TOOTH	7.0	5	n/a	n/a	pyFR	1	TJ054
989.724	1.6	2162265	WORD	n/a	wordpools/wordpool_EN.txt	MAIL	8.0	5	n/a	n/a	pyFR	1	TJ054
992.346	1.6	2164887	WORD	n/a	wordpools/wordpool_EN.txt	SHOE	9.0	5	n/a	n/a	pyFR	1	TJ054
994.883	1.6	2167424	WORD	n/a	wordpools/wordpool_EN.txt	CHIN	10.0	5	n/a	n/a	pyFR	1	TJ054
997.637	1.6	2170178	WORD	n/a	wordpools/wordpool_EN.txt	HAND	11.0	5	n/a	n/a	pyFR	1	TJ054
1000.309	1.6	2172850	WORD	n/a	wordpools/wordpool_EN.txt	FUR	12.0	5	n/a	n/a	pyFR	1	TJ054
1003.046	1.6	2175587	WORD	n/a	wordpools/wordpool_EN.txt	SKY	13.0	5	n/a	n/a	pyFR	1	TJ054
1005.701	1.6	2178242	WORD	n/a	wordpools/wordpool_EN.txt	DESK	14.0	5	n/a	n/a	pyFR	1	TJ054
1008.139	1.6	2180680	WORD	n/a	wordpools/wordpool_EN.txt	ELF	15.0	5	n/a	n/a	pyFR	1	TJ054
1009.759	1.201	2182300	START	n/a	n/a	n/a	n/a	5	[-999 -999 -999]	-999.0	pyFR	1	TJ054
1010.96	19.663	2183500	PROB	19.663	n/a	n/a	n/a	5	[2 9 3]	14.0	pyFR	1	TJ054
1030.623	1.189	2203163	STOP	n/a	n/a	n/a	n/a	5	[-999 -999 -999]	-999.0	pyFR	1	TJ054
1031.812	9.891	2204352	REC_START	n/a	n/a	n/a	-999.0	5	n/a	n/a	pyFR	1	TJ054
1041.703	21.614	2214242	REC_WORD	9.891	n/a	CAKE	-999.0	5	n/a	n/a	pyFR	1	TJ054
1063.317	10.126	2235856	REC_WORD	31.505	n/a	CHIN	-999.0	5	n/a	n/a	pyFR	1	TJ054
1073.443	26.885	2245981	REC_WORD	41.631	n/a	HAND	-999.0	5	n/a	n/a	pyFR	1	TJ054
1100.328	0.016	2272865	TRIAL	n/a	n/a	n/a	-999.0	6	n/a	n/a	pyFR	1	TJ054
1100.344	1.6	2272881	ORIENT	n/a	n/a	n/a	-999.0	6	n/a	n/a	pyFR	1	TJ054
1103.082	1.6	2275619	WORD	n/a	wordpools/wordpool_EN.txt	CAT	1.0	6	n/a	n/a	pyFR	1	TJ054
1105.587	1.6	2278124	WORD	n/a	wordpools/wordpool_EN.txt	SHEET	2.0	6	n/a	n/a	pyFR	1	TJ054
1108.391	1.6	2280928	WORD	n/a	wordpools/wordpool_EN.txt	HOUSE	3.0	6	n/a	n/a	pyFR	1	TJ054
1111.146	1.6	2283683	WORD	n/a	wordpools/wordpool_EN.txt	SOCK	4.0	6	n/a	n/a	pyFR	1	TJ054
1113.916	1.6	2286453	WORD	n/a	wordpools/wordpool_EN.txt	SOUP	5.0	6	n/a	n/a	pyFR	1	TJ054
1116.338	1.6	2288875	WORD	n/a	wordpools/wordpool_EN.txt	BOOK	6.0	6	n/a	n/a	pyFR	1	TJ054
1118.841	1.6	2291378	WORD	n/a	wordpools/wordpool_EN.txt	EAR	7.0	6	n/a	n/a	pyFR	1	TJ054
1121.363	1.6	2293899	WORD	n/a	wordpools/wordpool_EN.txt	BOOT	8.0	6	n/a	n/a	pyFR	1	TJ054
1124.033	1.6	2296569	WORD	n/a	wordpools/wordpool_EN.txt	WORM	9.0	6	n/a	n/a	pyFR	1	TJ054
1126.471	1.6	2299007	WORD	n/a	wordpools/wordpool_EN.txt	PIE	10.0	6	n/a	n/a	pyFR	1	TJ054
1129.16	1.6	2301696	WORD	n/a	wordpools/wordpool_EN.txt	FARM	11.0	6	n/a	n/a	pyFR	1	TJ054
1131.646	1.6	2304182	WORD	n/a	wordpools/wordpool_EN.txt	BIRD	12.0	6	n/a	n/a	pyFR	1	TJ054
1134.335	1.6	2306871	WORD	n/a	wordpools/wordpool_EN.txt	MOUSE	13.0	6	n/a	n/a	pyFR	1	TJ054
1136.872	1.6	2309408	WORD	n/a	wordpools/wordpool_EN.txt	APE	14.0	6	n/a	n/a	pyFR	1	TJ054
1139.543	1.6	2312079	WORD	n/a	wordpools/wordpool_EN.txt	CHEEK	15.0	6	n/a	n/a	pyFR	1	TJ054
1141.164	1.151	2313700	START	n/a	n/a	n/a	n/a	6	[-999 -999 -999]	-999.0	pyFR	1	TJ054
1142.315	31.125	2314851	PROB	31.125	n/a	n/a	n/a	6	[2 8 3]	13.0	pyFR	1	TJ054
1173.44	1.08	2345975	STOP	n/a	n/a	n/a	n/a	6	[-999 -999 -999]	-999.0	pyFR	1	TJ054
1174.52	45.0	2347055	REC_START	n/a	n/a	n/a	-999.0	6	n/a	n/a	pyFR	1	TJ054
1219.52	21.645	2392053	REC_WORD_VV	45.0	n/a	<>	-999.0	6	n/a	n/a	pyFR	1	TJ054
1241.165	0.016	2413697	TRIAL	n/a	n/a	n/a	-999.0	7	n/a	n/a	pyFR	1	TJ054
1241.181	1.6	2413713	ORIENT	n/a	n/a	n/a	-999.0	7	n/a	n/a	pyFR	1	TJ054
1244.186	1.6	2416718	WORD	n/a	wordpools/wordpool_EN.txt	PURSE	1.0	7	n/a	n/a	pyFR	1	TJ054
1246.673	1.6	2419205	WORD	n/a	wordpools/wordpool_EN.txt	DOG	2.0	7	n/a	n/a	pyFR	1	TJ054
1249.212	1.6	2421744	WORD	n/a	wordpools/wordpool_EN.txt	STRING	3.0	7	n/a	n/a	pyFR	1	TJ054
1252.032	1.6	2424564	WORD	n/a	wordpools/wordpool_EN.txt	CHAIR	4.0	7	n/a	n/a	pyFR	1	TJ054
1254.604	1.6	2427136	WORD	n/a	wordpools/wordpool_EN.txt	PALM	5.0	7	n/a	n/a	pyFR	1	TJ054
1257.275	1.6	2429807	WORD	n/a	wordpools/wordpool_EN.txt	TIE	6.0	7	n/a	n/a	pyFR	1	TJ054
1260.062	1.6	2432593	WORD	n/a	wordpools/wordpool_EN.txt	NET	7.0	7	n/a	n/a	pyFR	1	TJ054
1262.767	1.6	2435298	WORD	n/a	wordpools/wordpool_EN.txt	CAPE	8.0	7	n/a	n/a	pyFR	1	TJ054
1265.489	1.6	2438020	WORD	n/a	wordpools/wordpool_EN.txt	SHIP	9.0	7	n/a	n/a	pyFR	1	TJ054
1267.975	1.6	2440506	WORD	n/a	wordpools/wordpool_EN.txt	VAN	10.0	7	n/a	n/a	pyFR	1	TJ054
1270.764	1.6	2443295	WORD	n/a	wordpools/wordpool_EN.txt	STOVE	11.0	7	n/a	n/a	pyFR	1	TJ054
1273.502	1.6	2446033	WORD	n/a	wordpools/wordpool_EN.txt	GEESE	12.0	7	n/a	n/a	pyFR	1	TJ054
1276.022	1.6	2448553	WORD	n/a	wordpools/wordpool_EN.txt	SHARK	13.0	7	n/a	n/a	pyFR	1	TJ054
1278.677	1.6	2451208	WORD	n/a	wordpools/wordpool_EN.txt	CROW	14.0	7	n/a	n/a	pyFR	1	TJ054
1281.332	1.6	2453863	WORD	n/a	wordpools/wordpool_EN.txt	MAP	15.0	7	n/a	n/a	pyFR	1	TJ054
1282.952	1.134	2455483	START	n/a	n/a	n/a	n/a	7	[-999 -999 -999]	-999.0	pyFR	1	TJ054
1284.086	12.171	2456617	PROB	12.146	n/a	n/a	n/a	7	[1 4 3]	8.0	pyFR	1	TJ054
1296.257	21.447	2468787	PROB	21.447	n/a	n/a	n/a	7	[1 1 9]	11.0	pyFR	1	TJ054
1317.704	1.241	2490233	STOP	n/a	n/a	n/a	n/a	7	[-999 -999 -999]	-999.0	pyFR	1	TJ054
1318.945	2.544	2491474	REC_START	n/a	n/a	n/a	-999.0	7	n/a	n/a	pyFR	1	TJ054
1321.489	3.04	2494018	REC_WORD	2.544	n/a	MAP	-999.0	7	n/a	n/a	pyFR	1	TJ054
1324.529	1.91	2497058	REC_WORD	5.584	n/a	SHARK	-999.0	7	n/a	n/a	pyFR	1	TJ054
1326.439	50.905	2498968	REC_WORD	7.494	n/a	CROW	-999.0	7	n/a	n/a	pyFR	1	TJ054
1377.344	0.016	2549871	TRIAL	n/a	n/a	n/a	-999.0	8	n/a	n/a	pyFR	1	TJ054
1377.36	1.6	2549887	ORIENT	n/a	n/a	n/a	-999.0	8	n/a	n/a	pyFR	1	TJ054
1380.282	1.6	2552809	WORD	n/a	wordpools/wordpool_EN.txt	CAGE	1.0	8	n/a	n/a	pyFR	1	TJ054
1383.103	1.6	2555630	WORD	n/a	wordpools/wordpool_EN.txt	BED	2.0	8	n/a	n/a	pyFR	1	TJ054
1385.874	1.6	2558401	WORD	n/a	wordpools/wordpool_EN.txt	DOLL	3.0	8	n/a	n/a	pyFR	1	TJ054
1388.362	1.6	2560889	WORD	n/a	wordpools/wordpool_EN.txt	JAIL	4.0	8	n/a	n/a	pyFR	1	TJ054
1391.116	1.6	2563643	WORD	n/a	wordpools/wordpool_EN.txt	POND	5.0	8	n/a	n/a	pyFR	1	TJ054
1393.921	1.6	2566448	WORD	n/a	wordpools/wordpool_EN.txt	SPARK	6.0	8	n/a	n/a	pyFR	1	TJ054
1396.46	1.6	2568986	WORD	n/a	wordpools/wordpool_EN.txt	FUDGE	7.0	8	n/a	n/a	pyFR	1	TJ054
1399.297	1.6	2571823	WORD	n/a	wordpools/wordpool_EN.txt	BOY	8.0	8	n/a	n/a	pyFR	1	TJ054
1401.851	1.6	2574377	WORD	n/a	wordpools/wordpool_EN.txt	ICE	9.0	8	n/a	n/a	pyFR	1	TJ054
1404.672	1.6	2577198	WORD	n/a	wordpools/wordpool_EN.txt	BOMB	10.0	8	n/a	n/a	pyFR	1	TJ054
1407.394	1.6	2579920	WORD	n/a	wordpools/wordpool_EN.txt	POLE	11.0	8	n/a	n/a	pyFR	1	TJ054
1410.199	1.6	2582725	WORD	n/a	wordpools/wordpool_EN.txt	PARK	12.0	8	n/a	n/a	pyFR	1	TJ054
1412.869	1.6	2585395	WORD	n/a	wordpools/wordpool_EN.txt	PEARL	13.0	8	n/a	n/a	pyFR	1	TJ054
1415.458	1.6	2587984	WORD	n/a	wordpools/wordpool_EN.txt	STEM	14.0	8	n/a	n/a	pyFR	1	TJ054
1418.196	1.6	2590722	WORD	n/a	wordpools/wordpool_EN.txt	WOLF	15.0	8	n/a	n/a	pyFR	1	TJ054
1419.815	0.984	2592341	START	n/a	n/a	n/a	n/a	8	[-999 -999 -999]	-999.0	pyFR	1	TJ054
1420.799	93.421	2593325	PROB	93.421	n/a	n/a	n/a	8	[6 5 5]	16.0	pyFR	1	TJ054
1514.22	1.157	2686742	STOP	n/a	n/a	n/a	n/a	8	[-999 -999 -999]	-999.0	pyFR	1	TJ054
1515.377	10.966	2687899	REC_START	n/a	n/a	n/a	-999.0	8	n/a	n/a	pyFR	1	TJ054
1526.343	5.237	2698865	REC_WORD	10.966	n/a	POLE	-999.0	8	n/a	n/a	pyFR	1	TJ054
1531.58	39.089	2704101	REC_WORD	16.203	n/a	JAIL	-999.0	8	n/a	n/a	pyFR	1	TJ054
1570.669	0.015	2743189	TRIAL	n/a	n/a	n/a	-999.0	9	n/a	n/a	pyFR	1	TJ054
1570.684	1.6	2743204	ORIENT	n/a	n/a	n/a	-999.0	9	n/a	n/a	pyFR	1	TJ054
1573.64	1.6	2746160	WORD	n/a	wordpools/wordpool_EN.txt	CONE	1.0	9	n/a	n/a	pyFR	1	TJ054
1576.43	1.6	2748950	WORD	n/a	wordpools/wordpool_EN.txt	PLATE	2.0	9	n/a	n/a	pyFR	1	TJ054
1579.133	1.6	2751653	WORD	n/a	wordpools/wordpool_EN.txt	PLANE	3.0	9	n/a	n/a	pyFR	1	TJ054
1581.904	1.6	2754424	WORD	n/a	wordpools/wordpool_EN.txt	CLOWN	4.0	9	n/a	n/a	pyFR	1	TJ054
1584.509	1.6	2757029	WORD	n/a	wordpools/wordpool_EN.txt	MOTH	5.0	9	n/a	n/a	pyFR	1	TJ054
1587.18	1.6	2759699	WORD	n/a	wordpools/wordpool_EN.txt	BLOOM	6.0	9	n/a	n/a	pyFR	1	TJ054
1589.734	1.6	2762253	WORD	n/a	wordpools/wordpool_EN.txt	GLASS	7.0	9	n/a	n/a	pyFR	1	TJ054
1592.423	1.6	2764942	WORD	n/a	wordpools/wordpool_EN.txt	BAT	8.0	9	n/a	n/a	pyFR	1	TJ054
1595.127	1.6	2767646	WORD	n/a	wordpools/wordpool_EN.txt	SMILE	9.0	9	n/a	n/a	pyFR	1	TJ054
1597.598	1.6	2770117	WORD	n/a	wordpools/wordpool_EN.txt	COW	10.0	9	n/a	n/a	pyFR	1	TJ054
1600.269	1.6	2772788	WORD	n/a	wordpools/wordpool_EN.txt	BEE	11.0	9	n/a	n/a	pyFR	1	TJ054
1602.806	1.6	2775325	WORD	n/a	wordpools/wordpool_EN.txt	MULE	12.0	9	n/a	n/a	pyFR	1	TJ054
1605.528	1.6	2778047	WORD	n/a	wordpools/wordpool_EN.txt	FLOOR	13.0	9	n/a	n/a	pyFR	1	TJ054
1608.115	1.6	2780634	WORD	n/a	wordpools/wordpool_EN.txt	ZOO	14.0	9	n/a	n/a	pyFR	1	TJ054
1610.802	1.6	2783321	WORD	n/a	wordpools/wordpool_EN.txt	STORM	15.0	9	n/a	n/a	pyFR	1	TJ054
1612.407	1.118	2784926	START	n/a	n/a	n/a	n/a	9	[-999 -999 -999]	-999.0	pyFR	1	TJ054
1613.525	18.731	2786043	PROB	18.702	n/a	n/a	n/a	9	[4 4 7]	15.0	pyFR	1	TJ054
1632.256	25.184	2804774	PROB	25.184	n/a	n/a	n/a	9	[2 9 3]	13.0	pyFR	1	TJ054
1657.44	1.077	2829957	STOP	n/a	n/a	n/a	n/a	9	[-999 -999 -999]	-999.0	pyFR	1	TJ054
1658.517	0.997	2831034	REC_START	n/a	n/a	n/a	-999.0	9	n/a	n/a	pyFR	1	TJ054
1659.514	44.026	2832031	REC_WORD_VV	0.997	n/a	<>	-999.0	9	n/a	n/a	pyFR	1	TJ054
1703.54	35.948	2876055	REC_WORD_VV	45.023	n/a	<>	-999.0	9	n/a	n/a	pyFR	1	TJ054
1739.488	0.015	2912002	TRIAL	n/a	n/a	n/a	-999.0	10	n/a	n/a	pyFR	1	TJ054
1739.503	1.6	2912017	ORIENT	n/a	n/a	n/a	-999.0	10	n/a	n/a	pyFR	1	TJ054
1742.525	1.6	2915039	WORD	n/a	wordpools/wordpool_EN.txt	CUP	1.0	10	n/a	n/a	pyFR	1	TJ054
1745.163	1.6	2917677	WORD	n/a	wordpools/wordpool_EN.txt	BARN	2.0	10	n/a	n/a	pyFR	1	TJ054
1747.617	1.6	2920131	WORD	n/a	wordpools/wordpool_EN.txt	BALL	3.0	10	n/a	n/a	pyFR	1	TJ054
1750.405	1.6	2922918	WORD	n/a	wordpools/wordpool_EN.txt	STAR	4.0	10	n/a	n/a	pyFR	1	TJ054
1753.025	1.6	2925538	WORD	n/a	wordpools/wordpool_EN.txt	CORN	5.0	10	n/a	n/a	pyFR	1	TJ054
1755.83	1.6	2928343	WORD	n/a	wordpools/wordpool_EN.txt	TAPE	6.0	10	n/a	n/a	pyFR	1	TJ054
1758.619	1.6	2931132	WORD	n/a	wordpools/wordpool_EN.txt	LAKE	7.0	10	n/a	n/a	pyFR	1	TJ054
1761.072	1.6	2933585	WORD	n/a	wordpools/wordpool_EN.txt	MILK	8.0	10	n/a	n/a	pyFR	1	TJ054
1763.843	1.6	2936356	WORD	n/a	wordpools/wordpool_EN.txt	CAVE	9.0	10	n/a	n/a	pyFR	1	TJ054
1766.515	1.6	2939028	WORD	n/a	wordpools/wordpool_EN.txt	SUIT	10.0	10	n/a	n/a	pyFR	1	TJ054
1769.27	1.6	2941783	WORD	n/a	wordpools/wordpool_EN.txt	CORD	11.0	10	n/a	n/a	pyFR	1	TJ054
1771.773	1.6	2944286	WORD	n/a	wordpools/wordpool_EN.txt	SUN	12.0	10	n/a	n/a	pyFR	1	TJ054
1774.429	1.6	2946942	WORD	n/a	wordpools/wordpool_EN.txt	CUBE	13.0	10	n/a	n/a	pyFR	1	TJ054
1777.116	1.6	2949629	WORD	n/a	wordpools/wordpool_EN.txt	HORN	14.0	10	n/a	n/a	pyFR	1	TJ054
1779.604	1.6	2952116	WORD	n/a	wordpools/wordpool_EN.txt	ROAD	15.0	10	n/a	n/a	pyFR	1	TJ054
1781.225	1.05	2953737	START	n/a	n/a	n/a	n/a	10	[-999 -999 -999]	-999.0	pyFR	1	TJ054
1782.275	12.386	2954787	PROB	12.354	n/a	n/a	n/a	10	[4 5 1]	10.0	pyFR	1	TJ054
1794.661	10.208	2967173	PROB	10.208	n/a	n/a	n/a	10	[3 3 5]	11.0	pyFR	1	TJ054
1804.869	1.146	2977380	STOP	n/a	n/a	n/a	n/a	10	[-999 -999 -999]	-999.0	pyFR	1	TJ054
1806.015	45.0	2978526	REC_START	n/a	n/a	n/a	-999.0	10	n/a	n/a	pyFR	1	TJ054
1851.015	49.593	3023525	REC_WORD_VV	45.0	n/a	<>	-999.0	10	n/a	n/a	pyFR	1	TJ054
1900.608	0.016	3073116	TRIAL	n/a	n/a	n/a	-999.0	11	n/a	n/a	pyFR	1	TJ054
1900.624	1.6	3073132	ORIENT	n/a	n/a	n/a	-999.0	11	n/a	n/a	pyFR	1	TJ054
1903.429	1.6	3075937	WORD	n/a	wordpools/wordpool_EN.txt	SEA	1.0	11	n/a	n/a	pyFR	1	TJ054
1906.217	1.6	3078725	WORD	n/a	wordpools/wordpool_EN.txt	THUMB	2.0	11	n/a	n/a	pyFR	1	TJ054
1908.737	1.6	3081245	WORD	n/a	wordpools/wordpool_EN.txt	FOOT	3.0	11	n/a	n/a	pyFR	1	TJ054
1911.426	1.6	3083934	WORD	n/a	wordpools/wordpool_EN.txt	VINE	4.0	11	n/a	n/a	pyFR	1	TJ054
1913.996	1.6	3086504	WORD	n/a	wordpools/wordpool_EN.txt	KITE	5.0	11	n/a	n/a	pyFR	1	TJ054
1916.651	1.6	3089158	WORD	n/a	wordpools/wordpool_EN.txt	LAMB	6.0	11	n/a	n/a	pyFR	1	TJ054
1919.105	1.6	3091612	WORD	n/a	wordpools/wordpool_EN.txt	TRAIN	7.0	11	n/a	n/a	pyFR	1	TJ054
1921.943	1.6	3094450	WORD	n/a	wordpools/wordpool_EN.txt	FACE	8.0	11	n/a	n/a	pyFR	1	TJ054
1924.714	1.6	3097221	WORD	n/a	wordpools/wordpool_EN.txt	BAG	9.0	11	n/a	n/a	pyFR	1	TJ054
1927.486	1.6	3099993	WORD	n/a	wordpools/wordpool_EN.txt	FLAME	10.0	11	n/a	n/a	pyFR	1	TJ054
1929.923	1.6	3102430	WORD	n/a	wordpools/wordpool_EN.txt	HORSE	11.0	11	n/a	n/a	pyFR	1	TJ054
1932.528	1.6	3105035	WORD	n/a	wordpools/wordpool_EN.txt	MOUTH	12.0	11	n/a	n/a	pyFR	1	TJ054
1935.048	1.6	3107555	WORD	n/a	wordpools/wordpool_EN.txt	TRAY	13.0	11	n/a	n/a	pyFR	1	TJ054
1937.819	1.6	3110326	WORD	n/a	wordpools/wordpool_EN.txt	TOAD	14.0	11	n/a	n/a	pyFR	1	TJ054
1940.308	1.6	3112815	WORD	n/a	wordpools/wordpool_EN.txt	ROOT	15.0	11	n/a	n/a	pyFR	1	TJ054
1941.927	1.017	3114433	START	n/a	n/a	n/a	n/a	11	[-999 -999 -999]	-999.0	pyFR	1	TJ054
1942.944	30.879	3115450	PROB	30.879	n/a	n/a	n/a	11	[4 8 1]	13.0	pyFR	1	TJ054
1973.823	1.159	3146328	STOP	n/a	n/a	n/a	n/a	11	[-999 -999 -999]	-999.0	pyFR	1	TJ054
1974.982	45.023	3147487	REC_START	n/a	n/a	n/a	-999.0	11	n/a	n/a	pyFR	1	TJ054
2020.005	38.519	3192509	REC_WORD_VV	45.023	n/a	<>	-999.0	11	n/a	n/a	pyFR	1	TJ054
2058.524	0.016	3231026	TRIAL	n/a	n/a	n/a	-999.0	12	n/a	n/a	pyFR	1	TJ054
2058.54	1.6	3231042	ORIENT	n/a	n/a	n/a	-999.0	12	n/a	n/a	pyFR	1	TJ054
2061.512	1.6	3234014	WORD	n/a	wordpools/wordpool_EN.txt	NOSE	1.0	12	n/a	n/a	pyFR	1	TJ054
2064.283	1.6	3236785	WORD	n/a	wordpools/wordpool_EN.txt	DOOR	2.0	12	n/a	n/a	pyFR	1	TJ054
2066.753	1.6	3239255	WORD	n/a	wordpools/wordpool_EN.txt	FOX	3.0	12	n/a	n/a	pyFR	1	TJ054
2069.492	1.6	3241994	WORD	n/a	wordpools/wordpool_EN.txt	ARM	4.0	12	n/a	n/a	pyFR	1	TJ054
2072.197	1.6	3244699	WORD	n/a	wordpools/wordpool_EN.txt	RIB	5.0	12	n/a	n/a	pyFR	1	TJ054
2074.817	1.6	3247319	WORD	n/a	wordpools/wordpool_EN.txt	FLUTE	6.0	12	n/a	n/a	pyFR	1	TJ054
2077.555	1.6	3250057	WORD	n/a	wordpools/wordpool_EN.txt	SPEAR	7.0	12	n/a	n/a	pyFR	1	TJ054
2080.243	1.6	3252744	WORD	n/a	wordpools/wordpool_EN.txt	BANK	8.0	12	n/a	n/a	pyFR	1	TJ054
2082.947	1.6	3255448	WORD	n/a	wordpools/wordpool_EN.txt	GOAT	9.0	12	n/a	n/a	pyFR	1	TJ054
2085.535	1.6	3258036	WORD	n/a	wordpools/wordpool_EN.txt	TEA	10.0	12	n/a	n/a	pyFR	1	TJ054
2088.34	1.6	3260841	WORD	n/a	wordpools/wordpool_EN.txt	SAIL	11.0	12	n/a	n/a	pyFR	1	TJ054
2090.793	1.6	3263294	WORD	n/a	wordpools/wordpool_EN.txt	TAIL	12.0	12	n/a	n/a	pyFR	1	TJ054
2093.582	1.6	3266083	WORD	n/a	wordpools/wordpool_EN.txt	SKI	13.0	12	n/a	n/a	pyFR	1	TJ054
2096.119	1.6	3268620	WORD	n/a	wordpools/wordpool_EN.txt	BAND	14.0	12	n/a	n/a	pyFR	1	TJ054
2098.757	1.6	3271258	WORD	n/a	wordpools/wordpool_EN.txt	SLUSH	15.0	12	n/a	n/a	pyFR	1	TJ054
2100.378	0.968	3272879	START	n/a	n/a	n/a	n/a	12	[-999 -999 -999]	-999.0	pyFR	1	TJ054
2101.346	19.092	3273847	PROB	19.092	n/a	n/a	n/a	12	[7 4 5]	16.0	pyFR	1	TJ054
2120.438	1.175	3292938	STOP	n/a	n/a	n/a	n/a	12	[-999 -999 -999]	-999.0	pyFR	1	TJ054
2121.613	45.0	3294113	REC_START	n/a	n/a	n/a	-999.0	12	n/a	n/a	pyFR	1	TJ054
2166.613	9.859	3339111	REC_WORD_VV	45.0	n/a	<>	-999.0	12	n/a	n/a	pyFR	1	TJ054
2176.472	0.016	3348970	TRIAL	n/a	n/a	n/a	-999.0	13	n/a	n/a	pyFR	1	TJ054
2176.488	1.6	3348986	ORIENT	n/a	n/a	n/a	-999.0	13	n/a	n/a	pyFR	1	TJ054
2179.444	1.6	3351942	WORD	n/a	wordpools/wordpool_EN.txt	WING	1.0	13	n/a	n/a	pyFR	1	TJ054
2181.913	1.6	3354411	WORD	n/a	wordpools/wordpool_EN.txt	JET	2.0	13	n/a	n/a	pyFR	1	TJ054
2184.419	1.6	3356917	WORD	n/a	wordpools/wordpool_EN.txt	BADGE	3.0	13	n/a	n/a	pyFR	1	TJ054
2186.922	1.6	3359420	WORD	n/a	wordpools/wordpool_EN.txt	SCHOOL	4.0	13	n/a	n/a	pyFR	1	TJ054
2189.693	1.6	3362190	WORD	n/a	wordpools/wordpool_EN.txt	SKUNK	5.0	13	n/a	n/a	pyFR	1	TJ054
2192.382	1.6	3364879	WORD	n/a	wordpools/wordpool_EN.txt	KEY	6.0	13	n/a	n/a	pyFR	1	TJ054
2194.936	1.6	3367433	WORD	n/a	wordpools/wordpool_EN.txt	COIN	7.0	13	n/a	n/a	pyFR	1	TJ054
2197.407	1.6	3369904	WORD	n/a	wordpools/wordpool_EN.txt	TRASH	8.0	13	n/a	n/a	pyFR	1	TJ054
2199.877	1.6	3372374	WORD	n/a	wordpools/wordpool_EN.txt	VEST	9.0	13	n/a	n/a	pyFR	1	TJ054
2202.648	1.6	3375145	WORD	n/a	wordpools/wordpool_EN.txt	JAR	10.0	13	n/a	n/a	pyFR	1	TJ054
2205.187	1.6	3377684	WORD	n/a	wordpools/wordpool_EN.txt	ROOF	11.0	13	n/a	n/a	pyFR	1	TJ054
2207.84	1.6	3380337	WORD	n/a	wordpools/wordpool_EN.txt	WEED	12.0	13	n/a	n/a	pyFR	1	TJ054
2210.563	1.6	3383060	WORD	n/a	wordpools/wordpool_EN.txt	BREAD	13.0	13	n/a	n/a	pyFR	1	TJ054
2213.234	1.6	3385731	WORD	n/a	wordpools/wordpool_EN.txt	STORE	14.0	13	n/a	n/a	pyFR	1	TJ054
2215.854	1.6	3388350	WORD	n/a	wordpools/wordpool_EN.txt	COUCH	15.0	13	n/a	n/a	pyFR	1	TJ054
2217.458	1.135	3389954	START	n/a	n/a	n/a	n/a	13	[-999 -999 -999]	-999.0	pyFR	1	TJ054
2218.593	105.874	3391089	PROB	105.874	n/a	n/a	n/a	13	[8 7 8]	23.0	pyFR	1	TJ054
2324.467	1.056	3496960	STOP	n/a	n/a	n/a	n/a	13	[-999 -999 -999]	-999.0	pyFR	1	TJ054
2325.523	44.983	3498015	REC_START	n/a	n/a	n/a	-999.0	13	n/a	n/a	pyFR	1	TJ054
2370.506	30.293	3542997	REC_WORD_VV	44.983	n/a	<>	-999.0	13	n/a	n/a	pyFR	1	TJ054
2400.799	0.016	3573289	TRIAL	n/a	n/a	n/a	-999.0	14	n/a	n/a	pyFR	1	TJ054
2400.815	1.6	3573305	ORIENT	n/a	n/a	n/a	-999.0	14	n/a	n/a	pyFR	1	TJ054
2403.804	1.6	3576294	WORD	n/a	wordpools/wordpool_EN.txt	LEG	1.0	14	n/a	n/a	pyFR	1	TJ054
2406.292	1.6	3578782	WORD	n/a	wordpools/wordpool_EN.txt	PIN	2.0	14	n/a	n/a	pyFR	1	TJ054
2409.046	1.6	3581535	WORD	n/a	wordpools/wordpool_EN.txt	SNAKE	3.0	14	n/a	n/a	pyFR	1	TJ054
2411.75	1.6	3584239	WORD	n/a	wordpools/wordpool_EN.txt	CLOCK	4.0	14	n/a	n/a	pyFR	1	TJ054
2414.255	1.6	3586744	WORD	n/a	wordpools/wordpool_EN.txt	TANK	5.0	14	n/a	n/a	pyFR	1	TJ054
2416.942	1.6	3589431	WORD	n/a	wordpools/wordpool_EN.txt	CALF	6.0	14	n/a	n/a	pyFR	1	TJ054
2419.464	1.6	3591953	WORD	n/a	wordpools/wordpool_EN.txt	HILL	7.0	14	n/a	n/a	pyFR	1	TJ054
2422.252	1.6	3594741	WORD	n/a	wordpools/wordpool_EN.txt	BOWL	8.0	14	n/a	n/a	pyFR	1	TJ054
2424.872	1.6	3597361	WORD	n/a	wordpools/wordpool_EN.txt	CHIEF	9.0	14	n/a	n/a	pyFR	1	TJ054
2427.578	1.6	3600067	WORD	n/a	wordpools/wordpool_EN.txt	SIGN	10.0	14	n/a	n/a	pyFR	1	TJ054
2430.349	1.6	3602838	WORD	n/a	wordpools/wordpool_EN.txt	SLIME	11.0	14	n/a	n/a	pyFR	1	TJ054
2433.053	1.6	3605542	WORD	n/a	wordpools/wordpool_EN.txt	SHELL	12.0	14	n/a	n/a	pyFR	1	TJ054
2435.624	1.6	3608112	WORD	n/a	wordpools/wordpool_EN.txt	FRUIT	13.0	14	n/a	n/a	pyFR	1	TJ054
2438.463	1.6	3610951	WORD	n/a	wordpools/wordpool_EN.txt	WEB	14.0	14	n/a	n/a	pyFR	1	TJ054
2441.218	1.6	3613706	WORD	n/a	wordpools/wordpool_EN.txt	YARD	15.0	14	n/a	n/a	pyFR	1	TJ054
2442.837	1.117	3615325	START	n/a	n/a	n/a	n/a	14	[-999 -999 -999]	-999.0	pyFR	1	TJ054
2443.954	9.467	3616442	PROB	9.431	n/a	n/a	n/a	14	[1 8 3]	12.0	pyFR	1	TJ054
2453.421	24.272	3625909	PROB	24.272	n/a	n/a	n/a	14	[3 4 4]	11.0	pyFR	1	TJ054
2477.693	1.237	3650180	STOP	n/a	n/a	n/a	n/a	14	[-999 -999 -999]	-999.0	pyFR	1	TJ054
2478.93	3.921	3651417	REC_START	n/a	n/a	n/a	-999.0	14	n/a	n/a	pyFR	1	TJ054
2482.851	1.711	3655338	REC_WORD	3.921	n/a	FRUIT	-999.0	14	n/a	n/a	pyFR	1	TJ054
2484.562	11.264	3657049	REC_WORD	5.632	n/a	WEB	-999.0	14	n/a	n/a	pyFR	1	TJ054
2495.826	2.523	3668312	REC_WORD	16.896	n/a	CLOCK	-999.0	14	n/a	n/a	pyFR	1	TJ054
2498.349	1.0	3670835	REC_WORD_VV	19.419	n/a	<>	-999.0	14	n/a	n/a	pyFR	1	TJ054
2499.349	51.003	3671835	REC_WORD_VV	20.419	n/a	<>	-999.0	14	n/a	n/a	pyFR	1	TJ054
2550.352	0.016	3722836	TRIAL	n/a	n/a	n/a	-999.0	15	n/a	n/a	pyFR	1	TJ054
2550.368	1.6	3722852	ORIENT	n/a	n/a	n/a	-999.0	15	n/a	n/a	pyFR	1	TJ054
2553.356	1.6	3725840	WORD	n/a	wordpools/wordpool_EN.txt	SPONGE	1.0	15	n/a	n/a	pyFR	1	TJ054
2556.109	1.6	3728593	WORD	n/a	wordpools/wordpool_EN.txt	EEL	2.0	15	n/a	n/a	pyFR	1	TJ054
2558.664	1.6	3731148	WORD	n/a	wordpools/wordpool_EN.txt	PEN	3.0	15	n/a	n/a	pyFR	1	TJ054
2561.32	1.6	3733804	WORD	n/a	wordpools/wordpool_EN.txt	SEAL	4.0	15	n/a	n/a	pyFR	1	TJ054
2563.956	1.6	3736440	WORD	n/a	wordpools/wordpool_EN.txt	SHIRT	5.0	15	n/a	n/a	pyFR	1	TJ054
2566.761	1.6	3739245	WORD	n/a	wordpools/wordpool_EN.txt	DART	6.0	15	n/a	n/a	pyFR	1	TJ054
2569.283	1.6	3741767	WORD	n/a	wordpools/wordpool_EN.txt	BATH	7.0	15	n/a	n/a	pyFR	1	TJ054
2572.053	1.6	3744536	WORD	n/a	wordpools/wordpool_EN.txt	BLUSH	8.0	15	n/a	n/a	pyFR	1	TJ054
2574.508	1.6	3746991	WORD	n/a	wordpools/wordpool_EN.txt	SEED	9.0	15	n/a	n/a	pyFR	1	TJ054
2576.995	1.6	3749478	WORD	n/a	wordpools/wordpool_EN.txt	GATE	10.0	15	n/a	n/a	pyFR	1	TJ054
2579.45	1.6	3751933	WORD	n/a	wordpools/wordpool_EN.txt	CLOUD	11.0	15	n/a	n/a	pyFR	1	TJ054
2582.138	1.6	3754621	WORD	n/a	wordpools/wordpool_EN.txt	RAIN	12.0	15	n/a	n/a	pyFR	1	TJ054
2584.658	1.6	3757141	WORD	n/a	wordpools/wordpool_EN.txt	STRAW	13.0	15	n/a	n/a	pyFR	1	TJ054
2587.18	1.6	3759663	WORD	n/a	wordpools/wordpool_EN.txt	FENCE	14.0	15	n/a	n/a	pyFR	1	TJ054
2589.65	1.6	3762133	WORD	n/a	wordpools/wordpool_EN.txt	GRAPE	15.0	15	n/a	n/a	pyFR	1	TJ054
2591.271	0.849	3763754	START	n/a	n/a	n/a	n/a	15	[-999 -999 -999]	-999.0	pyFR	1	TJ054
2592.12	5.46	3764603	PROB	5.426	n/a	n/a	n/a	15	[3 1 1]	4.0	pyFR	1	TJ054
2597.58	48.747	3770063	PROB	48.747	n/a	n/a	n/a	15	[2 9 8]	19.0	pyFR	1	TJ054
2646.327	1.155	3818808	STOP	n/a	n/a	n/a	n/a	15	[-999 -999 -999]	-999.0	pyFR	1	TJ054
2647.482	45.0	3819963	REC_START	n/a	n/a	n/a	-999.0	15	n/a	n/a	pyFR	1	TJ054
2692.482	8.439	3864961	REC_WORD_VV	45.0	n/a	<>	-999.0	15	n/a	n/a	pyFR	1	TJ054
2700.921	0.015	3873400	TRIAL	n/a	n/a	n/a	-999.0	16	n/a	n/a	pyFR	1	TJ054
2700.936	1.6	3873415	ORIENT	n/a	n/a	n/a	-999.0	16	n/a	n/a	pyFR	1	TJ054
2703.575	1.6	3876054	WORD	n/a	wordpools/wordpool_EN.txt	LIP	1.0	16	n/a	n/a	pyFR	1	TJ054
2706.264	1.6	3878743	WORD	n/a	wordpools/wordpool_EN.txt	CLIFF	2.0	16	n/a	n/a	pyFR	1	TJ054
2708.716	1.6	3881194	WORD	n/a	wordpools/wordpool_EN.txt	MOOSE	3.0	16	n/a	n/a	pyFR	1	TJ054
2711.289	1.6	3883767	WORD	n/a	wordpools/wordpool_EN.txt	STICK	4.0	16	n/a	n/a	pyFR	1	TJ054
2713.808	1.6	3886286	WORD	n/a	wordpools/wordpool_EN.txt	FROG	5.0	16	n/a	n/a	pyFR	1	TJ054
2716.23	1.6	3888708	WORD	n/a	wordpools/wordpool_EN.txt	SNAIL	6.0	16	n/a	n/a	pyFR	1	TJ054
2718.767	1.6	3891245	WORD	n/a	wordpools/wordpool_EN.txt	RUG	7.0	16	n/a	n/a	pyFR	1	TJ054
2721.539	1.6	3894017	WORD	n/a	wordpools/wordpool_EN.txt	DUCK	8.0	16	n/a	n/a	pyFR	1	TJ054
2724.026	1.6	3896504	WORD	n/a	wordpools/wordpool_EN.txt	SHEEP	9.0	16	n/a	n/a	pyFR	1	TJ054
2726.531	1.6	3899009	WORD	n/a	wordpools/wordpool_EN.txt	VASE	10.0	16	n/a	n/a	pyFR	1	TJ054
2729.051	1.6	3901529	WORD	n/a	wordpools/wordpool_EN.txt	WOOD	11.0	16	n/a	n/a	pyFR	1	TJ054
2731.739	1.6	3904217	WORD	n/a	wordpools/wordpool_EN.txt	LAMP	12.0	16	n/a	n/a	pyFR	1	TJ054
2734.36	1.6	3906838	WORD	n/a	wordpools/wordpool_EN.txt	BROOM	13.0	16	n/a	n/a	pyFR	1	TJ054
2736.981	1.6	3909458	WORD	n/a	wordpools/wordpool_EN.txt	OAK	14.0	16	n/a	n/a	pyFR	1	TJ054
2739.819	1.6	3912296	WORD	n/a	wordpools/wordpool_EN.txt	LAWN	15.0	16	n/a	n/a	pyFR	1	TJ054
2741.44	1.101	3913917	START	n/a	n/a	n/a	n/a	16	[-999 -999 -999]	-999.0	pyFR	1	TJ054
2742.541	23.451	3915018	PROB	23.451	n/a	n/a	n/a	16	[4 2 8]	14.0	pyFR	1	TJ054
2765.992	1.174	3938468	STOP	n/a	n/a	n/a	n/a	16	[-999 -999 -999]	-999.0	pyFR	1	TJ054
2767.166	0.719	3939642	REC_START	n/a	n/a	n/a	-999.0	16	n/a	n/a	pyFR	1	TJ054
2767.885	9.324	3940361	REC_WORD	0.719	n/a	BROOM	-999.0	16	n/a	n/a	pyFR	1	TJ054
2777.209	2.331	3949685	REC_WORD	10.043	n/a	DUCK	-999.0	16	n/a	n/a	pyFR	1	TJ054
2779.54	556.6	3952016	REC_WORD	12.374	n/a	SHEEP	-999.0	16	n/a	n/a	pyFR	1	TJ054
3336.14	0.093	4508596	SESS_END	n/a	n/a	n/a	-999.0	16	n/a	n/a	pyFR	1	TJ054
3336.233	0.0	4508689	E	n/a	n/a	n/a	-999.0	16	n/a	n/a	pyFR	1	TJ054
