onset	duration	sample	trial_type	response_time	stim_file	item_name	serialpos	list	test	answer	experiment	session	subject
0.0	0.0	450219	B	n/a	n/a	n/a	-999	-999	n/a	n/a	pyFR	0	UP021
0.0	82.267	450219	SESS_START	n/a	n/a	n/a	-999	-999	n/a	n/a	pyFR	0	UP021
82.267	0.04	492343	START	n/a	n/a	n/a	n/a	0	[-999 -999 -999]	-999	pyFR	0	UP021
82.307	6.362	492363	PROB	6.308	n/a	n/a	n/a	0	[6 4 5]	15	pyFR	0	UP021
88.669	9.601	495621	PROB	9.546	n/a	n/a	n/a	0	[4 7 5]	16	pyFR	0	UP021
98.27	8.716	500537	PROB	8.664	n/a	n/a	n/a	0	[1 7 7]	15	pyFR	0	UP021
106.986	10.757	505000	PROB	10.757	n/a	n/a	n/a	0	[9 3 4]	16	pyFR	0	UP021
117.743	97.61	510508	STOP	n/a	n/a	n/a	n/a	0	[-999 -999 -999]	-999	pyFR	0	UP021
215.353	0.016	560487	TRIAL	n/a	n/a	n/a	-999	-999	n/a	n/a	pyFR	0	UP021
215.369	3.022	560495	ORIENT	n/a	n/a	n/a	-999	-999	n/a	n/a	pyFR	0	UP021
218.391	2.722	562043	WORD	n/a	wordpools/wordpool_EN.txt	STEAM	1	1	n/a	n/a	pyFR	0	UP021
221.113	2.604	563436	WORD	n/a	wordpools/wordpool_EN.txt	PLANT	2	1	n/a	n/a	pyFR	0	UP021
223.717	2.622	564770	WORD	n/a	wordpools/wordpool_EN.txt	SMOKE	3	1	n/a	n/a	pyFR	0	UP021
226.339	2.722	566112	WORD	n/a	wordpools/wordpool_EN.txt	BRICK	4	1	n/a	n/a	pyFR	0	UP021
229.061	2.771	567506	WORD	n/a	wordpools/wordpool_EN.txt	WORM	5	1	n/a	n/a	pyFR	0	UP021
231.832	2.822	568925	WORD	n/a	wordpools/wordpool_EN.txt	WHALE	6	1	n/a	n/a	pyFR	0	UP021
234.654	2.722	570370	WORD	n/a	wordpools/wordpool_EN.txt	FLAG	7	1	n/a	n/a	pyFR	0	UP021
237.376	2.621	571764	WORD	n/a	wordpools/wordpool_EN.txt	WHEEL	8	1	n/a	n/a	pyFR	0	UP021
239.997	2.605	573106	WORD	n/a	wordpools/wordpool_EN.txt	CLAY	9	1	n/a	n/a	pyFR	0	UP021
242.602	2.571	574439	WORD	n/a	wordpools/wordpool_EN.txt	MILK	10	1	n/a	n/a	pyFR	0	UP021
245.173	2.639	575756	WORD	n/a	wordpools/wordpool_EN.txt	BUSH	11	1	n/a	n/a	pyFR	0	UP021
247.812	2.738	577107	WORD	n/a	wordpools/wordpool_EN.txt	TRAIN	12	1	n/a	n/a	pyFR	0	UP021
250.55	2.538	578509	WORD	n/a	wordpools/wordpool_EN.txt	FACE	13	1	n/a	n/a	pyFR	0	UP021
253.088	2.538	579809	WORD	n/a	wordpools/wordpool_EN.txt	BEAN	14	1	n/a	n/a	pyFR	0	UP021
255.626	1.621	581108	WORD	n/a	wordpools/wordpool_EN.txt	RAIN	15	1	n/a	n/a	pyFR	0	UP021
257.247	1.0	581938	START	n/a	n/a	n/a	n/a	1	[-999 -999 -999]	-999	pyFR	0	UP021
258.247	12.357	582450	PROB	12.312	n/a	n/a	n/a	1	[4 9 3]	16	pyFR	0	UP021
270.604	3.439	588777	PROB	3.386	n/a	n/a	n/a	1	[7 1 1]	9	pyFR	0	UP021
274.043	6.668	590538	PROB	6.668	n/a	n/a	n/a	1	[3 5 6]	12	pyFR	0	UP021
280.711	1.528	593953	STOP	n/a	n/a	n/a	n/a	1	[-999 -999 -999]	-999	pyFR	0	UP021
282.239	0.476	594735	REC_START	n/a	n/a	n/a	-999	-999	n/a	n/a	pyFR	0	UP021
282.715	1.0	594979	REC_WORD	0.476	n/a	<>	-999	1	n/a	n/a	pyFR	0	UP021
283.715	1.0	595491	REC_WORD	1.476	n/a	<>	-999	1	n/a	n/a	pyFR	0	UP021
284.715	1.0	596003	REC_WORD	2.476	n/a	<>	-999	1	n/a	n/a	pyFR	0	UP021
285.715	0.318	596515	REC_WORD	3.476	n/a	<>	-999	1	n/a	n/a	pyFR	0	UP021
286.033	0.64	596678	REC_WORD	3.794	n/a	<>	-999	1	n/a	n/a	pyFR	0	UP021
286.673	0.57	597005	REC_WORD	4.434	n/a	TRAIN	-999	1	n/a	n/a	pyFR	0	UP021
287.243	2.29	597297	REC_WORD	5.004	n/a	<>	-999	1	n/a	n/a	pyFR	0	UP021
289.533	3.233	598470	REC_WORD	7.294	n/a	<>	-999	1	n/a	n/a	pyFR	0	UP021
292.766	1.139	600125	REC_WORD	10.527	n/a	WORM	-999	1	n/a	n/a	pyFR	0	UP021
293.905	4.037	600708	REC_WORD	11.666	n/a	WHALE	-999	1	n/a	n/a	pyFR	0	UP021
297.942	3.862	602775	REC_WORD	15.703	n/a	<>	-999	1	n/a	n/a	pyFR	0	UP021
301.804	1.0	604753	REC_WORD	19.565	n/a	<>	-999	1	n/a	n/a	pyFR	0	UP021
302.804	2.537	605265	REC_WORD	20.565	n/a	<>	-999	1	n/a	n/a	pyFR	0	UP021
305.341	12.453	606564	REC_WORD	23.102	n/a	<>	-999	1	n/a	n/a	pyFR	0	UP021
317.794	1.0	612940	REC_WORD	35.555	n/a	<>	-999	1	n/a	n/a	pyFR	0	UP021
318.794	38.954	613452	REC_WORD	36.555	n/a	<>	-999	1	n/a	n/a	pyFR	0	UP021
357.748	0.016	633398	TRIAL	n/a	n/a	n/a	-999	-999	n/a	n/a	pyFR	0	UP021
357.764	2.638	633406	ORIENT	n/a	n/a	n/a	-999	-999	n/a	n/a	pyFR	0	UP021
360.402	2.805	634757	WORD	n/a	wordpools/wordpool_EN.txt	CART	1	2	n/a	n/a	pyFR	0	UP021
363.207	2.521	636193	WORD	n/a	wordpools/wordpool_EN.txt	BADGE	2	2	n/a	n/a	pyFR	0	UP021
365.728	2.739	637484	WORD	n/a	wordpools/wordpool_EN.txt	ARM	3	2	n/a	n/a	pyFR	0	UP021
368.467	2.487	638886	WORD	n/a	wordpools/wordpool_EN.txt	SHARK	4	2	n/a	n/a	pyFR	0	UP021
370.954	2.438	640160	WORD	n/a	wordpools/wordpool_EN.txt	PANTS	5	2	n/a	n/a	pyFR	0	UP021
373.392	2.672	641408	WORD	n/a	wordpools/wordpool_EN.txt	LAWN	6	2	n/a	n/a	pyFR	0	UP021
376.064	2.788	642776	WORD	n/a	wordpools/wordpool_EN.txt	SMILE	7	2	n/a	n/a	pyFR	0	UP021
378.852	2.438	644204	WORD	n/a	wordpools/wordpool_EN.txt	LAND	8	2	n/a	n/a	pyFR	0	UP021
381.29	2.638	645452	WORD	n/a	wordpools/wordpool_EN.txt	CORD	9	2	n/a	n/a	pyFR	0	UP021
383.928	2.488	646803	WORD	n/a	wordpools/wordpool_EN.txt	PIG	10	2	n/a	n/a	pyFR	0	UP021
386.416	2.488	648077	WORD	n/a	wordpools/wordpool_EN.txt	DOG	11	2	n/a	n/a	pyFR	0	UP021
388.904	2.555	649351	WORD	n/a	wordpools/wordpool_EN.txt	SAIL	12	2	n/a	n/a	pyFR	0	UP021
391.459	2.471	650659	WORD	n/a	wordpools/wordpool_EN.txt	FORK	13	2	n/a	n/a	pyFR	0	UP021
393.93	2.638	651924	WORD	n/a	wordpools/wordpool_EN.txt	HOLE	14	2	n/a	n/a	pyFR	0	UP021
396.568	1.621	653275	WORD	n/a	wordpools/wordpool_EN.txt	FENCE	15	2	n/a	n/a	pyFR	0	UP021
398.189	1.051	654105	START	n/a	n/a	n/a	n/a	2	[-999 -999 -999]	-999	pyFR	0	UP021
399.24	8.866	654643	PROB	8.822	n/a	n/a	n/a	2	[4 7 8]	19	pyFR	0	UP021
408.106	17.86	659183	PROB	17.86	n/a	n/a	n/a	2	[7 9 4]	20	pyFR	0	UP021
425.966	1.059	668328	STOP	n/a	n/a	n/a	n/a	2	[-999 -999 -999]	-999	pyFR	0	UP021
427.025	1.283	668870	REC_START	n/a	n/a	n/a	-999	-999	n/a	n/a	pyFR	0	UP021
428.308	1.054	669527	REC_WORD	1.283	n/a	<>	-999	2	n/a	n/a	pyFR	0	UP021
429.362	1.3	670067	REC_WORD	2.337	n/a	HOLE	-999	2	n/a	n/a	pyFR	0	UP021
430.662	1.165	670732	REC_WORD	3.637	n/a	<>	-999	2	n/a	n/a	pyFR	0	UP021
431.827	2.59	671329	REC_WORD	4.802	n/a	WORM	-999	2	n/a	n/a	pyFR	0	UP021
434.417	0.919	672655	REC_WORD	7.392	n/a	<>	-999	2	n/a	n/a	pyFR	0	UP021
435.336	4.834	673126	REC_WORD	8.311	n/a	PLANT	-999	2	n/a	n/a	pyFR	0	UP021
440.17	10.974	675601	REC_WORD	13.145	n/a	<>	-999	2	n/a	n/a	pyFR	0	UP021
451.144	1.0	681220	REC_WORD	24.119	n/a	<>	-999	2	n/a	n/a	pyFR	0	UP021
452.144	1.0	681732	REC_WORD	25.119	n/a	<>	-999	2	n/a	n/a	pyFR	0	UP021
453.144	1.0	682244	REC_WORD	26.119	n/a	<>	-999	2	n/a	n/a	pyFR	0	UP021
454.144	41.307	682756	REC_WORD	27.119	n/a	<>	-999	2	n/a	n/a	pyFR	0	UP021
495.451	0.016	703906	TRIAL	n/a	n/a	n/a	-999	-999	n/a	n/a	pyFR	0	UP021
495.467	2.771	703915	ORIENT	n/a	n/a	n/a	-999	-999	n/a	n/a	pyFR	0	UP021
498.238	2.689	705333	WORD	n/a	wordpools/wordpool_EN.txt	CAVE	1	3	n/a	n/a	pyFR	0	UP021
500.927	2.721	706710	WORD	n/a	wordpools/wordpool_EN.txt	DOCK	2	3	n/a	n/a	pyFR	0	UP021
503.648	2.689	708103	WORD	n/a	wordpools/wordpool_EN.txt	SLUSH	3	3	n/a	n/a	pyFR	0	UP021
506.337	2.621	709480	WORD	n/a	wordpools/wordpool_EN.txt	HILL	4	3	n/a	n/a	pyFR	0	UP021
508.958	2.521	710822	WORD	n/a	wordpools/wordpool_EN.txt	GLOVE	5	3	n/a	n/a	pyFR	0	UP021
511.479	2.572	712113	WORD	n/a	wordpools/wordpool_EN.txt	ROCK	6	3	n/a	n/a	pyFR	0	UP021
514.051	2.571	713430	WORD	n/a	wordpools/wordpool_EN.txt	CROWN	7	3	n/a	n/a	pyFR	0	UP021
516.622	2.488	714747	WORD	n/a	wordpools/wordpool_EN.txt	LOCK	8	3	n/a	n/a	pyFR	0	UP021
519.11	2.805	716020	WORD	n/a	wordpools/wordpool_EN.txt	HOSE	9	3	n/a	n/a	pyFR	0	UP021
521.915	2.538	717457	WORD	n/a	wordpools/wordpool_EN.txt	DRESS	10	3	n/a	n/a	pyFR	0	UP021
524.453	2.438	718756	WORD	n/a	wordpools/wordpool_EN.txt	PEARL	11	3	n/a	n/a	pyFR	0	UP021
526.891	2.521	720005	WORD	n/a	wordpools/wordpool_EN.txt	SUIT	12	3	n/a	n/a	pyFR	0	UP021
529.412	2.472	721295	WORD	n/a	wordpools/wordpool_EN.txt	TREE	13	3	n/a	n/a	pyFR	0	UP021
531.884	2.755	722561	WORD	n/a	wordpools/wordpool_EN.txt	LIP	14	3	n/a	n/a	pyFR	0	UP021
534.639	1.621	723972	WORD	n/a	wordpools/wordpool_EN.txt	MUG	15	3	n/a	n/a	pyFR	0	UP021
536.26	1.184	724802	START	n/a	n/a	n/a	n/a	3	[-999 -999 -999]	-999	pyFR	0	UP021
537.444	12.356	725408	PROB	12.306	n/a	n/a	n/a	3	[5 4 2]	12	pyFR	0	UP021
549.8	8.11	731735	PROB	8.11	n/a	n/a	n/a	3	[3 6 3]	15	pyFR	0	UP021
557.91	1.241	735887	STOP	n/a	n/a	n/a	n/a	3	[-999 -999 -999]	-999	pyFR	0	UP021
559.151	1.836	736523	REC_START	n/a	n/a	n/a	-999	-999	n/a	n/a	pyFR	0	UP021
560.987	1.0	737463	REC_WORD	1.836	n/a	<>	-999	3	n/a	n/a	pyFR	0	UP021
561.987	1.0	737975	REC_WORD	2.836	n/a	<>	-999	3	n/a	n/a	pyFR	0	UP021
562.987	0.039	738487	REC_WORD	3.836	n/a	<>	-999	3	n/a	n/a	pyFR	0	UP021
563.026	2.08	738507	REC_WORD	3.875	n/a	HORSE	-999	3	n/a	n/a	pyFR	0	UP021
565.106	0.416	739572	REC_WORD	5.955	n/a	<>	-999	3	n/a	n/a	pyFR	0	UP021
565.522	1.663	739785	REC_WORD	6.371	n/a	HILL	-999	3	n/a	n/a	pyFR	0	UP021
567.185	0.445	740636	REC_WORD	8.034	n/a	<>	-999	3	n/a	n/a	pyFR	0	UP021
567.63	1.356	740864	REC_WORD	8.479	n/a	DOCK	-999	3	n/a	n/a	pyFR	0	UP021
568.986	0.296	741559	REC_WORD	9.835	n/a	<>	-999	3	n/a	n/a	pyFR	0	UP021
569.282	3.449	741710	REC_WORD	10.131	n/a	FISH	-999	3	n/a	n/a	pyFR	0	UP021
572.731	0.466	743476	REC_WORD	13.58	n/a	<>	-999	3	n/a	n/a	pyFR	0	UP021
573.197	5.755	743715	REC_WORD	14.046	n/a	CROWN	-999	3	n/a	n/a	pyFR	0	UP021
578.952	0.764	746662	REC_WORD	19.801	n/a	ROCK	-999	3	n/a	n/a	pyFR	0	UP021
579.716	0.504	747053	REC_WORD	20.565	n/a	HILL	-999	3	n/a	n/a	pyFR	0	UP021
580.22	0.769	747311	REC_WORD	21.069	n/a	CROWN	-999	3	n/a	n/a	pyFR	0	UP021
580.989	4.327	747705	REC_WORD	21.838	n/a	FISH	-999	3	n/a	n/a	pyFR	0	UP021
585.316	8.734	749920	REC_WORD	26.165	n/a	PEARL	-999	3	n/a	n/a	pyFR	0	UP021
594.05	1.549	754392	REC_WORD	34.899	n/a	<>	-999	3	n/a	n/a	pyFR	0	UP021
595.599	15.264	755185	REC_WORD	36.448	n/a	<>	-999	3	n/a	n/a	pyFR	0	UP021
610.863	0.017	763001	TRIAL	n/a	n/a	n/a	-999	-999	n/a	n/a	pyFR	0	UP021
610.88	2.787	763010	ORIENT	n/a	n/a	n/a	-999	-999	n/a	n/a	pyFR	0	UP021
613.667	2.789	764437	WORD	n/a	wordpools/wordpool_EN.txt	FISH	1	4	n/a	n/a	pyFR	0	UP021
616.456	2.538	765865	WORD	n/a	wordpools/wordpool_EN.txt	BAT	2	4	n/a	n/a	pyFR	0	UP021
618.994	2.705	767164	WORD	n/a	wordpools/wordpool_EN.txt	SCHOOL	3	4	n/a	n/a	pyFR	0	UP021
621.699	2.821	768549	WORD	n/a	wordpools/wordpool_EN.txt	PRINCE	4	4	n/a	n/a	pyFR	0	UP021
624.52	2.555	769994	WORD	n/a	wordpools/wordpool_EN.txt	PALM	5	4	n/a	n/a	pyFR	0	UP021
627.075	2.705	771302	WORD	n/a	wordpools/wordpool_EN.txt	VEST	6	4	n/a	n/a	pyFR	0	UP021
629.78	2.722	772687	WORD	n/a	wordpools/wordpool_EN.txt	HOOK	7	4	n/a	n/a	pyFR	0	UP021
632.502	2.504	774081	WORD	n/a	wordpools/wordpool_EN.txt	MUD	8	4	n/a	n/a	pyFR	0	UP021
635.006	2.639	775363	WORD	n/a	wordpools/wordpool_EN.txt	PEA	9	4	n/a	n/a	pyFR	0	UP021
637.645	2.638	776714	WORD	n/a	wordpools/wordpool_EN.txt	PIT	10	4	n/a	n/a	pyFR	0	UP021
640.283	2.471	778065	WORD	n/a	wordpools/wordpool_EN.txt	TRUCK	11	4	n/a	n/a	pyFR	0	UP021
642.754	2.588	779330	WORD	n/a	wordpools/wordpool_EN.txt	CUP	12	4	n/a	n/a	pyFR	0	UP021
645.342	2.755	780655	WORD	n/a	wordpools/wordpool_EN.txt	STICK	13	4	n/a	n/a	pyFR	0	UP021
648.097	2.488	782066	WORD	n/a	wordpools/wordpool_EN.txt	DOLL	14	4	n/a	n/a	pyFR	0	UP021
650.585	1.621	783340	WORD	n/a	wordpools/wordpool_EN.txt	BAND	15	4	n/a	n/a	pyFR	0	UP021
652.206	1.101	784170	START	n/a	n/a	n/a	n/a	4	[-999 -999 -999]	-999	pyFR	0	UP021
653.307	149.692	784734	PROB	149.692	n/a	n/a	n/a	4	[7 8 9]	24	pyFR	0	UP021
802.999	1.169	861381	STOP	n/a	n/a	n/a	n/a	4	[-999 -999 -999]	-999	pyFR	0	UP021
804.168	0.0	861979	REC_START	n/a	n/a	n/a	-999	-999	n/a	n/a	pyFR	0	UP021
804.168	9.258	861979	REC_WORD	0.0	n/a	<>	-999	4	n/a	n/a	pyFR	0	UP021
813.426	0.65	866720	REC_WORD	9.258	n/a	<>	-999	4	n/a	n/a	pyFR	0	UP021
814.076	2.38	867053	REC_WORD	9.908	n/a	FISH	-999	4	n/a	n/a	pyFR	0	UP021
816.456	1.0	868271	REC_WORD	12.288	n/a	<>	-999	4	n/a	n/a	pyFR	0	UP021
817.456	1.0	868783	REC_WORD	13.288	n/a	<>	-999	4	n/a	n/a	pyFR	0	UP021
818.456	2.397	869295	REC_WORD	14.288	n/a	<>	-999	4	n/a	n/a	pyFR	0	UP021
820.853	1.0	870523	REC_WORD	16.685	n/a	<>	-999	4	n/a	n/a	pyFR	0	UP021
821.853	1.35	871035	REC_WORD	17.685	n/a	<>	-999	4	n/a	n/a	pyFR	0	UP021
823.203	1.0	871726	REC_WORD	19.035	n/a	<>	-999	4	n/a	n/a	pyFR	0	UP021
824.203	1.785	872238	REC_WORD	20.035	n/a	<>	-999	4	n/a	n/a	pyFR	0	UP021
825.988	4.622	873152	REC_WORD	21.82	n/a	BAT	-999	4	n/a	n/a	pyFR	0	UP021
830.61	0.4	875519	REC_WORD	26.442	n/a	<>	-999	4	n/a	n/a	pyFR	0	UP021
831.01	0.731	875723	REC_WORD	26.842	n/a	BIRD	-999	4	n/a	n/a	pyFR	0	UP021
831.741	1.0	876098	REC_WORD	27.573	n/a	BAT	-999	4	n/a	n/a	pyFR	0	UP021
832.741	5.515	876610	REC_WORD	28.573	n/a	<>	-999	4	n/a	n/a	pyFR	0	UP021
838.256	1.0	879434	REC_WORD	34.088	n/a	<>	-999	4	n/a	n/a	pyFR	0	UP021
839.256	1.0	879946	REC_WORD	35.088	n/a	<>	-999	4	n/a	n/a	pyFR	0	UP021
840.256	4.15	880458	REC_WORD	36.088	n/a	<>	-999	4	n/a	n/a	pyFR	0	UP021
844.406	1.0	882583	REC_WORD	40.238	n/a	<>	-999	4	n/a	n/a	pyFR	0	UP021
845.406	1.0	883095	REC_WORD	41.238	n/a	<>	-999	4	n/a	n/a	pyFR	0	UP021
846.406	1.0	883607	REC_WORD	42.238	n/a	<>	-999	4	n/a	n/a	pyFR	0	UP021
847.406	1.0	884119	REC_WORD	43.238	n/a	<>	-999	4	n/a	n/a	pyFR	0	UP021
848.406	4.852	884631	REC_WORD	44.238	n/a	<>	-999	4	n/a	n/a	pyFR	0	UP021
853.258	0.016	887115	TRIAL	n/a	n/a	n/a	-999	-999	n/a	n/a	pyFR	0	UP021
853.274	2.889	887123	ORIENT	n/a	n/a	n/a	-999	-999	n/a	n/a	pyFR	0	UP021
856.163	2.638	888603	WORD	n/a	wordpools/wordpool_EN.txt	HAWK	1	5	n/a	n/a	pyFR	0	UP021
858.801	2.454	889953	WORD	n/a	wordpools/wordpool_EN.txt	SEED	2	5	n/a	n/a	pyFR	0	UP021
861.255	2.472	891210	WORD	n/a	wordpools/wordpool_EN.txt	MOOSE	3	5	n/a	n/a	pyFR	0	UP021
863.727	2.738	892476	WORD	n/a	wordpools/wordpool_EN.txt	SEAL	4	5	n/a	n/a	pyFR	0	UP021
866.465	2.788	893877	WORD	n/a	wordpools/wordpool_EN.txt	DUCK	5	5	n/a	n/a	pyFR	0	UP021
869.253	2.605	895305	WORD	n/a	wordpools/wordpool_EN.txt	WOOD	6	5	n/a	n/a	pyFR	0	UP021
871.858	2.555	896639	WORD	n/a	wordpools/wordpool_EN.txt	SUN	7	5	n/a	n/a	pyFR	0	UP021
874.413	2.671	897947	WORD	n/a	wordpools/wordpool_EN.txt	PEACH	8	5	n/a	n/a	pyFR	0	UP021
877.084	2.622	899315	WORD	n/a	wordpools/wordpool_EN.txt	BELL	9	5	n/a	n/a	pyFR	0	UP021
879.706	2.571	900657	WORD	n/a	wordpools/wordpool_EN.txt	BRUSH	10	5	n/a	n/a	pyFR	0	UP021
882.277	2.421	901974	WORD	n/a	wordpools/wordpool_EN.txt	BLUSH	11	5	n/a	n/a	pyFR	0	UP021
884.698	2.438	903213	WORD	n/a	wordpools/wordpool_EN.txt	CUBE	12	5	n/a	n/a	pyFR	0	UP021
887.136	2.488	904462	WORD	n/a	wordpools/wordpool_EN.txt	MULE	13	5	n/a	n/a	pyFR	0	UP021
889.624	2.438	905736	WORD	n/a	wordpools/wordpool_EN.txt	KEY	14	5	n/a	n/a	pyFR	0	UP021
892.062	1.621	906984	WORD	n/a	wordpools/wordpool_EN.txt	ROOM	15	5	n/a	n/a	pyFR	0	UP021
893.683	0.9	907814	START	n/a	n/a	n/a	n/a	5	[-999 -999 -999]	-999	pyFR	0	UP021
894.583	8.115	908275	PROB	8.071	n/a	n/a	n/a	5	[5 8 4]	17	pyFR	0	UP021
902.698	6.913	912430	PROB	6.86	n/a	n/a	n/a	5	[8 7 2]	17	pyFR	0	UP021
909.611	5.411	915970	PROB	5.411	n/a	n/a	n/a	5	[3 1 5]	9	pyFR	0	UP021
915.022	1.102	918740	STOP	n/a	n/a	n/a	n/a	5	[-999 -999 -999]	-999	pyFR	0	UP021
916.124	0.455	919304	REC_START	n/a	n/a	n/a	-999	-999	n/a	n/a	pyFR	0	UP021
916.579	1.571	919537	REC_WORD	0.455	n/a	HAWK	-999	5	n/a	n/a	pyFR	0	UP021
918.15	1.0	920342	REC_WORD	2.026	n/a	<>	-999	5	n/a	n/a	pyFR	0	UP021
919.15	2.285	920854	REC_WORD	3.026	n/a	<>	-999	5	n/a	n/a	pyFR	0	UP021
921.435	0.373	922024	REC_WORD	5.311	n/a	<>	-999	5	n/a	n/a	pyFR	0	UP021
921.808	5.003	922215	REC_WORD	5.684	n/a	SNAIL	-999	5	n/a	n/a	pyFR	0	UP021
926.811	4.632	924777	REC_WORD	10.687	n/a	<>	-999	5	n/a	n/a	pyFR	0	UP021
931.443	1.0	927148	REC_WORD	15.319	n/a	<>	-999	5	n/a	n/a	pyFR	0	UP021
932.443	1.0	927660	REC_WORD	16.319	n/a	<>	-999	5	n/a	n/a	pyFR	0	UP021
933.443	2.705	928172	REC_WORD	17.319	n/a	<>	-999	5	n/a	n/a	pyFR	0	UP021
936.148	1.0	929557	REC_WORD	20.024	n/a	<>	-999	5	n/a	n/a	pyFR	0	UP021
937.148	1.0	930069	REC_WORD	21.024	n/a	<>	-999	5	n/a	n/a	pyFR	0	UP021
938.148	1.0	930581	REC_WORD	22.024	n/a	<>	-999	5	n/a	n/a	pyFR	0	UP021
939.148	0.569	931094	REC_WORD	23.024	n/a	<>	-999	5	n/a	n/a	pyFR	0	UP021
939.717	1.0	931385	REC_WORD	23.593	n/a	MULE	-999	5	n/a	n/a	pyFR	0	UP021
940.717	4.931	931897	REC_WORD	24.593	n/a	<>	-999	5	n/a	n/a	pyFR	0	UP021
945.648	1.0	934422	REC_WORD	29.524	n/a	<>	-999	5	n/a	n/a	pyFR	0	UP021
946.648	1.99	934934	REC_WORD	30.524	n/a	<>	-999	5	n/a	n/a	pyFR	0	UP021
948.638	2.443	935953	REC_WORD	32.514	n/a	MOOSE	-999	5	n/a	n/a	pyFR	0	UP021
951.081	1.0	937204	REC_WORD	34.957	n/a	<>	-999	5	n/a	n/a	pyFR	0	UP021
952.081	1.0	937716	REC_WORD	35.957	n/a	<>	-999	5	n/a	n/a	pyFR	0	UP021
953.081	1.0	938228	REC_WORD	36.957	n/a	<>	-999	5	n/a	n/a	pyFR	0	UP021
954.081	1.0	938740	REC_WORD	37.957	n/a	<>	-999	5	n/a	n/a	pyFR	0	UP021
955.081	1.0	939252	REC_WORD	38.957	n/a	<>	-999	5	n/a	n/a	pyFR	0	UP021
956.081	1.0	939764	REC_WORD	39.957	n/a	<>	-999	5	n/a	n/a	pyFR	0	UP021
957.081	90.668	940276	REC_WORD	40.957	n/a	<>	-999	5	n/a	n/a	pyFR	0	UP021
1047.749	0.016	986701	TRIAL	n/a	n/a	n/a	-999	-999	n/a	n/a	pyFR	0	UP021
1047.765	2.771	986709	ORIENT	n/a	n/a	n/a	-999	-999	n/a	n/a	pyFR	0	UP021
1050.536	2.722	988128	WORD	n/a	wordpools/wordpool_EN.txt	SKI	1	6	n/a	n/a	pyFR	0	UP021
1053.258	2.572	989522	WORD	n/a	wordpools/wordpool_EN.txt	OAK	2	6	n/a	n/a	pyFR	0	UP021
1055.83	2.571	990838	WORD	n/a	wordpools/wordpool_EN.txt	BRANCH	3	6	n/a	n/a	pyFR	0	UP021
1058.401	2.454	992155	WORD	n/a	wordpools/wordpool_EN.txt	CROW	4	6	n/a	n/a	pyFR	0	UP021
1060.855	2.689	993411	WORD	n/a	wordpools/wordpool_EN.txt	FRUIT	5	6	n/a	n/a	pyFR	0	UP021
1063.544	2.604	994788	WORD	n/a	wordpools/wordpool_EN.txt	FUDGE	6	6	n/a	n/a	pyFR	0	UP021
1066.148	2.789	996122	WORD	n/a	wordpools/wordpool_EN.txt	STRAW	7	6	n/a	n/a	pyFR	0	UP021
1068.937	2.788	997550	WORD	n/a	wordpools/wordpool_EN.txt	SWAMP	8	6	n/a	n/a	pyFR	0	UP021
1071.725	2.572	998977	WORD	n/a	wordpools/wordpool_EN.txt	BOWL	9	6	n/a	n/a	pyFR	0	UP021
1074.297	2.588	1000294	WORD	n/a	wordpools/wordpool_EN.txt	WOLF	10	6	n/a	n/a	pyFR	0	UP021
1076.885	2.722	1001619	WORD	n/a	wordpools/wordpool_EN.txt	GATE	11	6	n/a	n/a	pyFR	0	UP021
1079.607	2.688	1003013	WORD	n/a	wordpools/wordpool_EN.txt	BENCH	12	6	n/a	n/a	pyFR	0	UP021
1082.295	2.454	1004389	WORD	n/a	wordpools/wordpool_EN.txt	SOAP	13	6	n/a	n/a	pyFR	0	UP021
1084.749	2.722	1005646	WORD	n/a	wordpools/wordpool_EN.txt	MAP	14	6	n/a	n/a	pyFR	0	UP021
1087.471	1.604	1007040	WORD	n/a	wordpools/wordpool_EN.txt	BREAD	15	6	n/a	n/a	pyFR	0	UP021
1089.075	1.101	1007861	START	n/a	n/a	n/a	n/a	6	[-999 -999 -999]	-999	pyFR	0	UP021
1090.176	12.022	1008425	PROB	11.966	n/a	n/a	n/a	6	[8 9 6]	23	pyFR	0	UP021
1102.198	5.894	1014580	PROB	5.848	n/a	n/a	n/a	6	[3 1 9]	13	pyFR	0	UP021
1108.092	6.106	1017598	PROB	6.106	n/a	n/a	n/a	6	[6 5 2]	13	pyFR	0	UP021
1114.198	1.192	1020725	STOP	n/a	n/a	n/a	n/a	6	[-999 -999 -999]	-999	pyFR	0	UP021
1115.39	1.583	1021335	REC_START	n/a	n/a	n/a	-999	-999	n/a	n/a	pyFR	0	UP021
1116.973	1.0	1022146	REC_WORD	1.583	n/a	<>	-999	6	n/a	n/a	pyFR	0	UP021
1117.973	2.812	1022658	REC_WORD	2.583	n/a	<>	-999	6	n/a	n/a	pyFR	0	UP021
1120.785	0.797	1024098	REC_WORD	5.395	n/a	<>	-999	6	n/a	n/a	pyFR	0	UP021
1121.582	4.902	1024506	REC_WORD	6.192	n/a	CROW	-999	6	n/a	n/a	pyFR	0	UP021
1126.484	4.37	1027016	REC_WORD	11.094	n/a	FISH	-999	6	n/a	n/a	pyFR	0	UP021
1130.854	1.0	1029253	REC_WORD	15.464	n/a	<>	-999	6	n/a	n/a	pyFR	0	UP021
1131.854	1.914	1029765	REC_WORD	16.464	n/a	<>	-999	6	n/a	n/a	pyFR	0	UP021
1133.768	1.0	1030745	REC_WORD	18.378	n/a	<>	-999	6	n/a	n/a	pyFR	0	UP021
1134.768	8.764	1031257	REC_WORD	19.378	n/a	<>	-999	6	n/a	n/a	pyFR	0	UP021
1143.532	1.0	1035745	REC_WORD	28.142	n/a	<>	-999	6	n/a	n/a	pyFR	0	UP021
1144.532	6.706	1036257	REC_WORD	29.142	n/a	<>	-999	6	n/a	n/a	pyFR	0	UP021
1151.238	96.161	1039690	REC_WORD	35.848	n/a	HOUSE	-999	6	n/a	n/a	pyFR	0	UP021
1247.399	0.016	1088928	TRIAL	n/a	n/a	n/a	-999	-999	n/a	n/a	pyFR	0	UP021
1247.415	2.822	1088936	ORIENT	n/a	n/a	n/a	-999	-999	n/a	n/a	pyFR	0	UP021
1250.237	2.805	1090381	WORD	n/a	wordpools/wordpool_EN.txt	MAZE	1	7	n/a	n/a	pyFR	0	UP021
1253.042	2.755	1091817	WORD	n/a	wordpools/wordpool_EN.txt	MOUSE	2	7	n/a	n/a	pyFR	0	UP021
1255.797	2.805	1093228	WORD	n/a	wordpools/wordpool_EN.txt	CAKE	3	7	n/a	n/a	pyFR	0	UP021
1258.602	2.521	1094664	WORD	n/a	wordpools/wordpool_EN.txt	OAR	4	7	n/a	n/a	pyFR	0	UP021
1261.123	2.555	1095955	WORD	n/a	wordpools/wordpool_EN.txt	BOARD	5	7	n/a	n/a	pyFR	0	UP021
1263.678	2.455	1097263	WORD	n/a	wordpools/wordpool_EN.txt	STREET	6	7	n/a	n/a	pyFR	0	UP021
1266.133	2.588	1098520	WORD	n/a	wordpools/wordpool_EN.txt	NOSE	7	7	n/a	n/a	pyFR	0	UP021
1268.721	2.721	1099846	WORD	n/a	wordpools/wordpool_EN.txt	SOCK	8	7	n/a	n/a	pyFR	0	UP021
1271.442	2.622	1101239	WORD	n/a	wordpools/wordpool_EN.txt	FLUTE	9	7	n/a	n/a	pyFR	0	UP021
1274.064	2.671	1102581	WORD	n/a	wordpools/wordpool_EN.txt	RICE	10	7	n/a	n/a	pyFR	0	UP021
1276.735	2.505	1103949	WORD	n/a	wordpools/wordpool_EN.txt	STOOL	11	7	n/a	n/a	pyFR	0	UP021
1279.24	2.705	1105232	WORD	n/a	wordpools/wordpool_EN.txt	VASE	12	7	n/a	n/a	pyFR	0	UP021
1281.945	2.588	1106617	WORD	n/a	wordpools/wordpool_EN.txt	OWL	13	7	n/a	n/a	pyFR	0	UP021
1284.533	2.455	1107942	WORD	n/a	wordpools/wordpool_EN.txt	MAT	14	7	n/a	n/a	pyFR	0	UP021
1286.988	1.621	1109199	WORD	n/a	wordpools/wordpool_EN.txt	TOOTH	15	7	n/a	n/a	pyFR	0	UP021
1288.609	0.867	1110029	START	n/a	n/a	n/a	n/a	7	[-999 -999 -999]	-999	pyFR	0	UP021
1289.476	9.667	1110473	PROB	9.618	n/a	n/a	n/a	7	[5 1 2]	8	pyFR	0	UP021
1299.143	7.297	1115423	PROB	7.247	n/a	n/a	n/a	7	[7 2 5]	14	pyFR	0	UP021
1306.44	8.222	1119159	PROB	8.222	n/a	n/a	n/a	7	[7 9 1]	17	pyFR	0	UP021
1314.662	1.129	1123369	STOP	n/a	n/a	n/a	n/a	7	[-999 -999 -999]	-999	pyFR	0	UP021
1315.791	0.876	1123947	REC_START	n/a	n/a	n/a	-999	-999	n/a	n/a	pyFR	0	UP021
1316.667	1.942	1124395	REC_WORD	0.876	n/a	MOUSE	-999	7	n/a	n/a	pyFR	0	UP021
1318.609	4.852	1125390	REC_WORD	2.818	n/a	MAZE	-999	7	n/a	n/a	pyFR	0	UP021
1323.461	0.3	1127874	REC_WORD	7.67	n/a	<>	-999	7	n/a	n/a	pyFR	0	UP021
1323.761	3.45	1128028	REC_WORD	7.97	n/a	BRUSH	-999	7	n/a	n/a	pyFR	0	UP021
1327.211	0.513	1129794	REC_WORD	11.42	n/a	<>	-999	7	n/a	n/a	pyFR	0	UP021
1327.724	3.376	1130057	REC_WORD	11.933	n/a	BOWL	-999	7	n/a	n/a	pyFR	0	UP021
1331.1	6.1	1131786	REC_WORD	15.309	n/a	RICE	-999	7	n/a	n/a	pyFR	0	UP021
1337.2	9.135	1134909	REC_WORD	21.409	n/a	<>	-999	7	n/a	n/a	pyFR	0	UP021
1346.335	1.0	1139586	REC_WORD	30.544	n/a	<>	-999	7	n/a	n/a	pyFR	0	UP021
1347.335	50.324	1140098	REC_WORD	31.544	n/a	<>	-999	7	n/a	n/a	pyFR	0	UP021
1397.659	0.015	1165866	TRIAL	n/a	n/a	n/a	-999	-999	n/a	n/a	pyFR	0	UP021
1397.674	2.772	1165874	ORIENT	n/a	n/a	n/a	-999	-999	n/a	n/a	pyFR	0	UP021
1400.446	2.655	1167293	WORD	n/a	wordpools/wordpool_EN.txt	FILM	1	8	n/a	n/a	pyFR	0	UP021
1403.101	2.555	1168652	WORD	n/a	wordpools/wordpool_EN.txt	LEG	2	8	n/a	n/a	pyFR	0	UP021
1405.656	2.621	1169961	WORD	n/a	wordpools/wordpool_EN.txt	PIE	3	8	n/a	n/a	pyFR	0	UP021
1408.277	2.471	1171303	WORD	n/a	wordpools/wordpool_EN.txt	HEN	4	8	n/a	n/a	pyFR	0	UP021
1410.748	2.438	1172568	WORD	n/a	wordpools/wordpool_EN.txt	SQUARE	5	8	n/a	n/a	pyFR	0	UP021
1413.186	2.705	1173816	WORD	n/a	wordpools/wordpool_EN.txt	COIN	6	8	n/a	n/a	pyFR	0	UP021
1415.891	2.805	1175201	WORD	n/a	wordpools/wordpool_EN.txt	BARN	7	8	n/a	n/a	pyFR	0	UP021
1418.696	2.705	1176638	WORD	n/a	wordpools/wordpool_EN.txt	EEL	8	8	n/a	n/a	pyFR	0	UP021
1421.401	2.622	1178023	WORD	n/a	wordpools/wordpool_EN.txt	RAKE	9	8	n/a	n/a	pyFR	0	UP021
1424.023	2.504	1179365	WORD	n/a	wordpools/wordpool_EN.txt	ARK	10	8	n/a	n/a	pyFR	0	UP021
1426.527	2.538	1180647	WORD	n/a	wordpools/wordpool_EN.txt	EGG	11	8	n/a	n/a	pyFR	0	UP021
1429.065	2.739	1181947	WORD	n/a	wordpools/wordpool_EN.txt	MOLE	12	8	n/a	n/a	pyFR	0	UP021
1431.804	2.655	1183349	WORD	n/a	wordpools/wordpool_EN.txt	BATH	13	8	n/a	n/a	pyFR	0	UP021
1434.459	2.454	1184709	WORD	n/a	wordpools/wordpool_EN.txt	THREAD	14	8	n/a	n/a	pyFR	0	UP021
1436.913	1.621	1185965	WORD	n/a	wordpools/wordpool_EN.txt	TRASH	15	8	n/a	n/a	pyFR	0	UP021
1438.534	1.101	1186795	START	n/a	n/a	n/a	n/a	8	[-999 -999 -999]	-999	pyFR	0	UP021
1439.635	12.64	1187359	PROB	12.588	n/a	n/a	n/a	8	[1 8 7]	16	pyFR	0	UP021
1452.275	5.059	1193831	PROB	5.011	n/a	n/a	n/a	8	[1 1 3]	5	pyFR	0	UP021
1457.334	5.688	1196422	PROB	5.688	n/a	n/a	n/a	8	[7 4 6]	17	pyFR	0	UP021
1463.022	1.108	1199334	STOP	n/a	n/a	n/a	n/a	8	[-999 -999 -999]	-999	pyFR	0	UP021
1464.13	1.908	1199901	REC_START	n/a	n/a	n/a	-999	-999	n/a	n/a	pyFR	0	UP021
1466.038	7.043	1200878	REC_WORD	1.908	n/a	<>	-999	8	n/a	n/a	pyFR	0	UP021
1473.081	2.25	1204484	REC_WORD	8.951	n/a	OWL	-999	8	n/a	n/a	pyFR	0	UP021
1475.331	1.328	1205636	REC_WORD	11.201	n/a	RAKE	-999	8	n/a	n/a	pyFR	0	UP021
1476.659	4.827	1206316	REC_WORD	12.529	n/a	MOLE	-999	8	n/a	n/a	pyFR	0	UP021
1481.486	1.0	1208788	REC_WORD	17.356	n/a	SNAKE	-999	8	n/a	n/a	pyFR	0	UP021
1482.486	3.268	1209300	REC_WORD	18.356	n/a	<>	-999	8	n/a	n/a	pyFR	0	UP021
1485.754	8.949	1210973	REC_WORD	21.624	n/a	<>	-999	8	n/a	n/a	pyFR	0	UP021
1494.703	42.545	1215556	REC_WORD	30.573	n/a	<>	-999	8	n/a	n/a	pyFR	0	UP021
1537.248	0.016	1237340	TRIAL	n/a	n/a	n/a	-999	-999	n/a	n/a	pyFR	0	UP021
1537.264	2.788	1237348	ORIENT	n/a	n/a	n/a	-999	-999	n/a	n/a	pyFR	0	UP021
1540.052	2.455	1238776	WORD	n/a	wordpools/wordpool_EN.txt	SHRIMP	1	9	n/a	n/a	pyFR	0	UP021
1542.507	2.622	1240033	WORD	n/a	wordpools/wordpool_EN.txt	SNAIL	2	9	n/a	n/a	pyFR	0	UP021
1545.129	2.738	1241375	WORD	n/a	wordpools/wordpool_EN.txt	BALL	3	9	n/a	n/a	pyFR	0	UP021
1547.867	2.722	1242777	WORD	n/a	wordpools/wordpool_EN.txt	LAMB	4	9	n/a	n/a	pyFR	0	UP021
1550.589	2.771	1244171	WORD	n/a	wordpools/wordpool_EN.txt	MOON	5	9	n/a	n/a	pyFR	0	UP021
1553.36	2.538	1245590	WORD	n/a	wordpools/wordpool_EN.txt	STORM	6	9	n/a	n/a	pyFR	0	UP021
1555.898	2.588	1246889	WORD	n/a	wordpools/wordpool_EN.txt	PLANE	7	9	n/a	n/a	pyFR	0	UP021
1558.486	2.572	1248215	WORD	n/a	wordpools/wordpool_EN.txt	STAR	8	9	n/a	n/a	pyFR	0	UP021
1561.058	2.671	1249531	WORD	n/a	wordpools/wordpool_EN.txt	PARK	9	9	n/a	n/a	pyFR	0	UP021
1563.729	2.538	1250899	WORD	n/a	wordpools/wordpool_EN.txt	HORSE	10	9	n/a	n/a	pyFR	0	UP021
1566.267	2.472	1252199	WORD	n/a	wordpools/wordpool_EN.txt	HEART	11	9	n/a	n/a	pyFR	0	UP021
1568.739	2.621	1253464	WORD	n/a	wordpools/wordpool_EN.txt	CLIFF	12	9	n/a	n/a	pyFR	0	UP021
1571.36	2.688	1254806	WORD	n/a	wordpools/wordpool_EN.txt	POND	13	9	n/a	n/a	pyFR	0	UP021
1574.048	2.655	1256183	WORD	n/a	wordpools/wordpool_EN.txt	CHEEK	14	9	n/a	n/a	pyFR	0	UP021
1576.703	1.605	1257542	WORD	n/a	wordpools/wordpool_EN.txt	BOX	15	9	n/a	n/a	pyFR	0	UP021
1578.308	1.2	1258364	START	n/a	n/a	n/a	n/a	9	[-999 -999 -999]	-999	pyFR	0	UP021
1579.508	9.651	1258979	PROB	9.61	n/a	n/a	n/a	9	[7 3 6]	16	pyFR	0	UP021
1589.159	11.103	1263920	PROB	11.103	n/a	n/a	n/a	9	[7 2 6]	15	pyFR	0	UP021
1600.262	1.104	1269605	STOP	n/a	n/a	n/a	n/a	9	[-999 -999 -999]	-999	pyFR	0	UP021
1601.366	0.742	1270170	REC_START	n/a	n/a	n/a	-999	-999	n/a	n/a	pyFR	0	UP021
1602.108	1.215	1270550	REC_WORD	0.742	n/a	POUND	-999	9	n/a	n/a	pyFR	0	UP021
1603.323	2.702	1271173	REC_WORD	1.957	n/a	BALL	-999	9	n/a	n/a	pyFR	0	UP021
1606.025	0.593	1272556	REC_WORD	4.659	n/a	<>	-999	9	n/a	n/a	pyFR	0	UP021
1606.618	0.893	1272860	REC_WORD	5.252	n/a	BOX	-999	9	n/a	n/a	pyFR	0	UP021
1607.511	2.605	1273317	REC_WORD	6.145	n/a	CHECK	-999	9	n/a	n/a	pyFR	0	UP021
1610.116	2.445	1274651	REC_WORD	8.75	n/a	HORSE	-999	9	n/a	n/a	pyFR	0	UP021
1612.561	1.0	1275903	REC_WORD	11.195	n/a	<>	-999	9	n/a	n/a	pyFR	0	UP021
1613.561	0.499	1276415	REC_WORD	12.195	n/a	<>	-999	9	n/a	n/a	pyFR	0	UP021
1614.06	1.0	1276670	REC_WORD	12.694	n/a	STAR	-999	9	n/a	n/a	pyFR	0	UP021
1615.06	1.0	1277182	REC_WORD	13.694	n/a	<>	-999	9	n/a	n/a	pyFR	0	UP021
1616.06	1.0	1277694	REC_WORD	14.694	n/a	<>	-999	9	n/a	n/a	pyFR	0	UP021
1617.06	1.0	1278206	REC_WORD	15.694	n/a	<>	-999	9	n/a	n/a	pyFR	0	UP021
1618.06	6.535	1278718	REC_WORD	16.694	n/a	<>	-999	9	n/a	n/a	pyFR	0	UP021
1624.595	1.0	1282064	REC_WORD	23.229	n/a	<>	-999	9	n/a	n/a	pyFR	0	UP021
1625.595	1.0	1282577	REC_WORD	24.229	n/a	<>	-999	9	n/a	n/a	pyFR	0	UP021
1626.595	2.047	1283089	REC_WORD	25.229	n/a	<>	-999	9	n/a	n/a	pyFR	0	UP021
1628.642	1.488	1284137	REC_WORD	27.276	n/a	MOON	-999	9	n/a	n/a	pyFR	0	UP021
1630.13	1.0	1284899	REC_WORD	28.764	n/a	<>	-999	9	n/a	n/a	pyFR	0	UP021
1631.13	8.438	1285411	REC_WORD	29.764	n/a	<>	-999	9	n/a	n/a	pyFR	0	UP021
1639.568	0.265	1289731	REC_WORD	38.202	n/a	<>	-999	9	n/a	n/a	pyFR	0	UP021
1639.833	1.439	1289867	REC_WORD	38.467	n/a	SHRIMP	-999	9	n/a	n/a	pyFR	0	UP021
1641.272	1.134	1290604	REC_WORD	39.906	n/a	<>	-999	9	n/a	n/a	pyFR	0	UP021
1642.406	1.0	1291184	REC_WORD	41.04	n/a	<>	-999	9	n/a	n/a	pyFR	0	UP021
1643.406	1.0	1291696	REC_WORD	42.04	n/a	<>	-999	9	n/a	n/a	pyFR	0	UP021
1644.406	123.065	1292208	REC_WORD	43.04	n/a	<>	-999	9	n/a	n/a	pyFR	0	UP021
1767.471	0.016	1355222	TRIAL	n/a	n/a	n/a	-999	-999	n/a	n/a	pyFR	0	UP021
1767.487	2.855	1355230	ORIENT	n/a	n/a	n/a	-999	-999	n/a	n/a	pyFR	0	UP021
1770.342	2.539	1356692	WORD	n/a	wordpools/wordpool_EN.txt	POLE	1	10	n/a	n/a	pyFR	0	UP021
1772.881	2.454	1357992	WORD	n/a	wordpools/wordpool_EN.txt	JUICE	2	10	n/a	n/a	pyFR	0	UP021
1775.335	2.688	1359248	WORD	n/a	wordpools/wordpool_EN.txt	ROPE	3	10	n/a	n/a	pyFR	0	UP021
1778.023	2.471	1360625	WORD	n/a	wordpools/wordpool_EN.txt	JAR	4	10	n/a	n/a	pyFR	0	UP021
1780.494	2.555	1361890	WORD	n/a	wordpools/wordpool_EN.txt	INK	5	10	n/a	n/a	pyFR	0	UP021
1783.049	2.538	1363198	WORD	n/a	wordpools/wordpool_EN.txt	BANK	6	10	n/a	n/a	pyFR	0	UP021
1785.587	2.438	1364498	WORD	n/a	wordpools/wordpool_EN.txt	TEA	7	10	n/a	n/a	pyFR	0	UP021
1788.025	2.505	1365746	WORD	n/a	wordpools/wordpool_EN.txt	FORT	8	10	n/a	n/a	pyFR	0	UP021
1790.53	2.771	1367029	WORD	n/a	wordpools/wordpool_EN.txt	TEETH	9	10	n/a	n/a	pyFR	0	UP021
1793.301	2.805	1368447	WORD	n/a	wordpools/wordpool_EN.txt	BED	10	10	n/a	n/a	pyFR	0	UP021
1796.106	2.438	1369884	WORD	n/a	wordpools/wordpool_EN.txt	TOOL	11	10	n/a	n/a	pyFR	0	UP021
1798.544	2.705	1371132	WORD	n/a	wordpools/wordpool_EN.txt	TIE	12	10	n/a	n/a	pyFR	0	UP021
1801.249	2.789	1372517	WORD	n/a	wordpools/wordpool_EN.txt	TAPE	13	10	n/a	n/a	pyFR	0	UP021
1804.038	2.604	1373945	WORD	n/a	wordpools/wordpool_EN.txt	DART	14	10	n/a	n/a	pyFR	0	UP021
1806.642	1.605	1375278	WORD	n/a	wordpools/wordpool_EN.txt	DOOR	15	10	n/a	n/a	pyFR	0	UP021
1808.247	1.184	1376100	START	n/a	n/a	n/a	n/a	10	[-999 -999 -999]	-999	pyFR	0	UP021
1809.431	15.662	1376707	PROB	15.615	n/a	n/a	n/a	10	[4 2 9]	15	pyFR	0	UP021
1825.093	18.009	1384726	PROB	18.009	n/a	n/a	n/a	10	[2 4 7]	13	pyFR	0	UP021
1843.102	1.21	1393947	STOP	n/a	n/a	n/a	n/a	10	[-999 -999 -999]	-999	pyFR	0	UP021
1844.312	1.087	1394567	REC_START	n/a	n/a	n/a	-999	-999	n/a	n/a	pyFR	0	UP021
1845.399	0.881	1395123	REC_WORD	1.087	n/a	ROPE	-999	10	n/a	n/a	pyFR	0	UP021
1846.28	0.245	1395574	REC_WORD	1.968	n/a	<>	-999	10	n/a	n/a	pyFR	0	UP021
1846.525	3.876	1395700	REC_WORD	2.213	n/a	JAR	-999	10	n/a	n/a	pyFR	0	UP021
1850.401	0.704	1397684	REC_WORD	6.089	n/a	<>	-999	10	n/a	n/a	pyFR	0	UP021
1851.105	5.46	1398045	REC_WORD	6.793	n/a	JAM	-999	10	n/a	n/a	pyFR	0	UP021
1856.565	2.766	1400841	REC_WORD	12.253	n/a	<>	-999	10	n/a	n/a	pyFR	0	UP021
1859.331	3.351	1402257	REC_WORD	15.019	n/a	TEETH	-999	10	n/a	n/a	pyFR	0	UP021
1862.682	10.802	1403973	REC_WORD	18.37	n/a	<>	-999	10	n/a	n/a	pyFR	0	UP021
1873.484	1.653	1409504	REC_WORD	29.172	n/a	DART	-999	10	n/a	n/a	pyFR	0	UP021
1875.137	31.356	1410350	REC_WORD	30.825	n/a	DOOR	-999	10	n/a	n/a	pyFR	0	UP021
1906.493	0.016	1426405	TRIAL	n/a	n/a	n/a	-999	-999	n/a	n/a	pyFR	0	UP021
1906.509	2.956	1426414	ORIENT	n/a	n/a	n/a	-999	-999	n/a	n/a	pyFR	0	UP021
1909.465	2.671	1427927	WORD	n/a	wordpools/wordpool_EN.txt	GRASS	1	11	n/a	n/a	pyFR	0	UP021
1912.136	2.488	1429295	WORD	n/a	wordpools/wordpool_EN.txt	GIRL	2	11	n/a	n/a	pyFR	0	UP021
1914.624	2.505	1430569	WORD	n/a	wordpools/wordpool_EN.txt	CHAIR	3	11	n/a	n/a	pyFR	0	UP021
1917.129	2.722	1431851	WORD	n/a	wordpools/wordpool_EN.txt	DITCH	4	11	n/a	n/a	pyFR	0	UP021
1919.851	2.604	1433245	WORD	n/a	wordpools/wordpool_EN.txt	VINE	5	11	n/a	n/a	pyFR	0	UP021
1922.455	2.455	1434578	WORD	n/a	wordpools/wordpool_EN.txt	FLAME	6	11	n/a	n/a	pyFR	0	UP021
1924.91	2.771	1435835	WORD	n/a	wordpools/wordpool_EN.txt	SKUNK	7	11	n/a	n/a	pyFR	0	UP021
1927.681	2.756	1437254	WORD	n/a	wordpools/wordpool_EN.txt	SNOW	8	11	n/a	n/a	pyFR	0	UP021
1930.437	2.788	1438665	WORD	n/a	wordpools/wordpool_EN.txt	TRAY	9	11	n/a	n/a	pyFR	0	UP021
1933.225	2.822	1440093	WORD	n/a	wordpools/wordpool_EN.txt	BAG	10	11	n/a	n/a	pyFR	0	UP021
1936.047	2.504	1441538	WORD	n/a	wordpools/wordpool_EN.txt	NAIL	11	11	n/a	n/a	pyFR	0	UP021
1938.551	2.605	1442820	WORD	n/a	wordpools/wordpool_EN.txt	LAKE	12	11	n/a	n/a	pyFR	0	UP021
1941.156	2.555	1444154	WORD	n/a	wordpools/wordpool_EN.txt	CORN	13	11	n/a	n/a	pyFR	0	UP021
1943.711	2.471	1445462	WORD	n/a	wordpools/wordpool_EN.txt	SEA	14	11	n/a	n/a	pyFR	0	UP021
1946.182	1.621	1446727	WORD	n/a	wordpools/wordpool_EN.txt	SPARK	15	11	n/a	n/a	pyFR	0	UP021
1947.803	0.884	1447557	START	n/a	n/a	n/a	n/a	11	[-999 -999 -999]	-999	pyFR	0	UP021
1948.687	23.704	1448010	PROB	23.704	n/a	n/a	n/a	11	[9 2 3]	14	pyFR	0	UP021
1972.391	1.242	1460147	STOP	n/a	n/a	n/a	n/a	11	[-999 -999 -999]	-999	pyFR	0	UP021
1973.633	6.089	1460783	REC_START	n/a	n/a	n/a	-999	-999	n/a	n/a	pyFR	0	UP021
1979.722	2.065	1463901	REC_WORD	6.089	n/a	<>	-999	11	n/a	n/a	pyFR	0	UP021
1981.787	3.345	1464958	REC_WORD	8.154	n/a	GIRL	-999	11	n/a	n/a	pyFR	0	UP021
1985.132	7.448	1466671	REC_WORD	11.499	n/a	VINE	-999	11	n/a	n/a	pyFR	0	UP021
1992.58	0.85	1470485	REC_WORD	18.947	n/a	<>	-999	11	n/a	n/a	pyFR	0	UP021
1993.43	1.0	1470920	REC_WORD	19.797	n/a	HILL	-999	11	n/a	n/a	pyFR	0	UP021
1994.43	2.542	1471432	REC_WORD	20.797	n/a	<>	-999	11	n/a	n/a	pyFR	0	UP021
1996.972	1.0	1472734	REC_WORD	23.339	n/a	<>	-999	11	n/a	n/a	pyFR	0	UP021
1997.972	1.0	1473246	REC_WORD	24.339	n/a	<>	-999	11	n/a	n/a	pyFR	0	UP021
1998.972	2.411	1473758	REC_WORD	25.339	n/a	<>	-999	11	n/a	n/a	pyFR	0	UP021
2001.383	169.212	1474992	REC_WORD	27.75	n/a	<>	-999	11	n/a	n/a	pyFR	0	UP021
2170.595	0.016	1561634	TRIAL	n/a	n/a	n/a	-999	-999	n/a	n/a	pyFR	0	UP021
2170.611	2.855	1561642	ORIENT	n/a	n/a	n/a	-999	-999	n/a	n/a	pyFR	0	UP021
2173.466	2.655	1563104	WORD	n/a	wordpools/wordpool_EN.txt	BOY	1	12	n/a	n/a	pyFR	0	UP021
2176.121	2.471	1564464	WORD	n/a	wordpools/wordpool_EN.txt	NEST	2	12	n/a	n/a	pyFR	0	UP021
2178.592	2.472	1565729	WORD	n/a	wordpools/wordpool_EN.txt	PURSE	3	12	n/a	n/a	pyFR	0	UP021
2181.064	2.604	1566995	WORD	n/a	wordpools/wordpool_EN.txt	LEAF	4	12	n/a	n/a	pyFR	0	UP021
2183.668	2.505	1568328	WORD	n/a	wordpools/wordpool_EN.txt	PLATE	5	12	n/a	n/a	pyFR	0	UP021
2186.173	2.538	1569611	WORD	n/a	wordpools/wordpool_EN.txt	BOOT	6	12	n/a	n/a	pyFR	0	UP021
2188.711	2.438	1570910	WORD	n/a	wordpools/wordpool_EN.txt	DEER	7	12	n/a	n/a	pyFR	0	UP021
2191.149	2.672	1572158	WORD	n/a	wordpools/wordpool_EN.txt	CLOTH	8	12	n/a	n/a	pyFR	0	UP021
2193.821	2.654	1573527	WORD	n/a	wordpools/wordpool_EN.txt	FLOOR	9	12	n/a	n/a	pyFR	0	UP021
2196.475	2.438	1574885	WORD	n/a	wordpools/wordpool_EN.txt	ZOO	10	12	n/a	n/a	pyFR	0	UP021
2198.913	2.789	1576134	WORD	n/a	wordpools/wordpool_EN.txt	WING	11	12	n/a	n/a	pyFR	0	UP021
2201.702	2.655	1577562	WORD	n/a	wordpools/wordpool_EN.txt	LAMP	12	12	n/a	n/a	pyFR	0	UP021
2204.357	2.522	1578921	WORD	n/a	wordpools/wordpool_EN.txt	JEEP	13	12	n/a	n/a	pyFR	0	UP021
2206.879	2.437	1580213	WORD	n/a	wordpools/wordpool_EN.txt	FOOD	14	12	n/a	n/a	pyFR	0	UP021
2209.316	1.621	1581460	WORD	n/a	wordpools/wordpool_EN.txt	PET	15	12	n/a	n/a	pyFR	0	UP021
2210.937	0.883	1582291	START	n/a	n/a	n/a	n/a	12	[-999 -999 -999]	-999	pyFR	0	UP021
2211.82	6.879	1582743	PROB	6.834	n/a	n/a	n/a	12	[8 2 8]	18	pyFR	0	UP021
2218.699	16.18	1586265	PROB	16.18	n/a	n/a	n/a	12	[4 6 4]	14	pyFR	0	UP021
2234.879	1.186	1594550	STOP	n/a	n/a	n/a	n/a	12	[-999 -999 -999]	-999	pyFR	0	UP021
2236.065	1.394	1595157	REC_START	n/a	n/a	n/a	-999	-999	n/a	n/a	pyFR	0	UP021
2237.459	0.415	1595871	REC_WORD	1.394	n/a	<>	-999	12	n/a	n/a	pyFR	0	UP021
2237.874	4.815	1596083	REC_WORD	1.809	n/a	BOY	-999	12	n/a	n/a	pyFR	0	UP021
2242.689	3.331	1598549	REC_WORD	6.624	n/a	CHEST	-999	12	n/a	n/a	pyFR	0	UP021
2246.02	1.0	1600254	REC_WORD	9.955	n/a	<>	-999	12	n/a	n/a	pyFR	0	UP021
2247.02	3.213	1600766	REC_WORD	10.955	n/a	<>	-999	12	n/a	n/a	pyFR	0	UP021
2250.233	2.028	1602411	REC_WORD	14.168	n/a	<>	-999	12	n/a	n/a	pyFR	0	UP021
2252.261	1.0	1603450	REC_WORD	16.196	n/a	<>	-999	12	n/a	n/a	pyFR	0	UP021
2253.261	1.979	1603962	REC_WORD	17.196	n/a	<>	-999	12	n/a	n/a	pyFR	0	UP021
2255.24	4.62	1604975	REC_WORD	19.175	n/a	KITE	-999	12	n/a	n/a	pyFR	0	UP021
2259.86	1.0	1607341	REC_WORD	23.795	n/a	<>	-999	12	n/a	n/a	pyFR	0	UP021
2260.86	2.895	1607853	REC_WORD	24.795	n/a	<>	-999	12	n/a	n/a	pyFR	0	UP021
2263.755	2.935	1609335	REC_WORD	27.69	n/a	<>	-999	12	n/a	n/a	pyFR	0	UP021
2266.69	0.22	1610838	REC_WORD	30.625	n/a	<>	-999	12	n/a	n/a	pyFR	0	UP021
2266.91	5.085	1610950	REC_WORD	30.845	n/a	JEEP	-999	12	n/a	n/a	pyFR	0	UP021
2271.995	61.5	1613554	REC_WORD	35.93	n/a	<>	-999	12	n/a	n/a	pyFR	0	UP021
2333.495	0.015	1645044	TRIAL	n/a	n/a	n/a	-999	-999	n/a	n/a	pyFR	0	UP021
2333.51	2.772	1645052	ORIENT	n/a	n/a	n/a	-999	-999	n/a	n/a	pyFR	0	UP021
2336.282	2.622	1646471	WORD	n/a	wordpools/wordpool_EN.txt	SHEEP	1	13	n/a	n/a	pyFR	0	UP021
2338.904	2.471	1647814	WORD	n/a	wordpools/wordpool_EN.txt	ICE	2	13	n/a	n/a	pyFR	0	UP021
2341.375	2.605	1649079	WORD	n/a	wordpools/wordpool_EN.txt	TAIL	3	13	n/a	n/a	pyFR	0	UP021
2343.98	2.638	1650413	WORD	n/a	wordpools/wordpool_EN.txt	ANT	4	13	n/a	n/a	pyFR	0	UP021
2346.618	2.738	1651764	WORD	n/a	wordpools/wordpool_EN.txt	SHEET	5	13	n/a	n/a	pyFR	0	UP021
2349.356	2.555	1653165	WORD	n/a	wordpools/wordpool_EN.txt	SNAKE	6	13	n/a	n/a	pyFR	0	UP021
2351.911	2.571	1654474	WORD	n/a	wordpools/wordpool_EN.txt	HAND	7	13	n/a	n/a	pyFR	0	UP021
2354.482	2.505	1655790	WORD	n/a	wordpools/wordpool_EN.txt	PEAR	8	13	n/a	n/a	pyFR	0	UP021
2356.987	2.488	1657073	WORD	n/a	wordpools/wordpool_EN.txt	BROOM	9	13	n/a	n/a	pyFR	0	UP021
2359.475	2.772	1658347	WORD	n/a	wordpools/wordpool_EN.txt	HAT	10	13	n/a	n/a	pyFR	0	UP021
2362.247	2.821	1659766	WORD	n/a	wordpools/wordpool_EN.txt	BEE	11	13	n/a	n/a	pyFR	0	UP021
2365.068	2.689	1661211	WORD	n/a	wordpools/wordpool_EN.txt	SPOON	12	13	n/a	n/a	pyFR	0	UP021
2367.757	2.788	1662587	WORD	n/a	wordpools/wordpool_EN.txt	SPONGE	13	13	n/a	n/a	pyFR	0	UP021
2370.545	2.622	1664015	WORD	n/a	wordpools/wordpool_EN.txt	WEED	14	13	n/a	n/a	pyFR	0	UP021
2373.167	1.621	1665357	WORD	n/a	wordpools/wordpool_EN.txt	TOY	15	13	n/a	n/a	pyFR	0	UP021
2374.788	1.05	1666188	START	n/a	n/a	n/a	n/a	13	[-999 -999 -999]	-999	pyFR	0	UP021
2375.838	9.067	1666725	PROB	9.025	n/a	n/a	n/a	13	[2 8 7]	17	pyFR	0	UP021
2384.905	9.0	1671368	PROB	8.949	n/a	n/a	n/a	13	[9 5 4]	18	pyFR	0	UP021
2393.905	18.725	1675976	PROB	18.725	n/a	n/a	n/a	13	[4 7 7]	18	pyFR	0	UP021
2412.63	1.179	1685564	STOP	n/a	n/a	n/a	n/a	13	[-999 -999 -999]	-999	pyFR	0	UP021
2413.809	1.15	1686168	REC_START	n/a	n/a	n/a	-999	-999	n/a	n/a	pyFR	0	UP021
2414.959	2.203	1686756	REC_WORD	1.15	n/a	PIG	-999	13	n/a	n/a	pyFR	0	UP021
2417.162	2.22	1687884	REC_WORD	3.353	n/a	<>	-999	13	n/a	n/a	pyFR	0	UP021
2419.382	11.688	1689021	REC_WORD	5.573	n/a	ANT	-999	13	n/a	n/a	pyFR	0	UP021
2431.07	9.262	1695006	REC_WORD	17.261	n/a	<>	-999	13	n/a	n/a	pyFR	0	UP021
2440.332	0.135	1699748	REC_WORD	26.523	n/a	<>	-999	13	n/a	n/a	pyFR	0	UP021
2440.467	6.424	1699817	REC_WORD	26.658	n/a	SHOE	-999	13	n/a	n/a	pyFR	0	UP021
2446.891	0.406	1703107	REC_WORD	33.082	n/a	<>	-999	13	n/a	n/a	pyFR	0	UP021
2447.297	1.464	1703314	REC_WORD	33.488	n/a	BEE	-999	13	n/a	n/a	pyFR	0	UP021
2448.761	0.203	1704064	REC_WORD	34.952	n/a	<>	-999	13	n/a	n/a	pyFR	0	UP021
2448.964	8.845	1704168	REC_WORD	35.155	n/a	BROOM	-999	13	n/a	n/a	pyFR	0	UP021
2457.809	55.483	1708697	REC_WORD	44.0	n/a	<>	-999	13	n/a	n/a	pyFR	0	UP021
2513.292	0.015	1737106	TRIAL	n/a	n/a	n/a	-999	-999	n/a	n/a	pyFR	0	UP021
2513.307	2.839	1737114	ORIENT	n/a	n/a	n/a	-999	-999	n/a	n/a	pyFR	0	UP021
2516.146	2.521	1738567	WORD	n/a	wordpools/wordpool_EN.txt	PIPE	1	14	n/a	n/a	pyFR	0	UP021
2518.667	2.755	1739858	WORD	n/a	wordpools/wordpool_EN.txt	EAR	2	14	n/a	n/a	pyFR	0	UP021
2521.422	2.722	1741269	WORD	n/a	wordpools/wordpool_EN.txt	CARD	3	14	n/a	n/a	pyFR	0	UP021
2524.144	2.588	1742663	WORD	n/a	wordpools/wordpool_EN.txt	STEAK	4	14	n/a	n/a	pyFR	0	UP021
2526.732	2.655	1743988	WORD	n/a	wordpools/wordpool_EN.txt	MAIL	5	14	n/a	n/a	pyFR	0	UP021
2529.387	2.438	1745347	WORD	n/a	wordpools/wordpool_EN.txt	RUG	6	14	n/a	n/a	pyFR	0	UP021
2531.825	2.721	1746596	WORD	n/a	wordpools/wordpool_EN.txt	STONE	7	14	n/a	n/a	pyFR	0	UP021
2534.546	2.605	1747989	WORD	n/a	wordpools/wordpool_EN.txt	FLEA	8	14	n/a	n/a	pyFR	0	UP021
2537.151	2.555	1749323	WORD	n/a	wordpools/wordpool_EN.txt	KING	9	14	n/a	n/a	pyFR	0	UP021
2539.706	2.805	1750631	WORD	n/a	wordpools/wordpool_EN.txt	CALF	10	14	n/a	n/a	pyFR	0	UP021
2542.511	2.672	1752067	WORD	n/a	wordpools/wordpool_EN.txt	YARD	11	14	n/a	n/a	pyFR	0	UP021
2545.183	2.538	1753435	WORD	n/a	wordpools/wordpool_EN.txt	HOOF	12	14	n/a	n/a	pyFR	0	UP021
2547.721	2.571	1754735	WORD	n/a	wordpools/wordpool_EN.txt	CAR	13	14	n/a	n/a	pyFR	0	UP021
2550.292	2.722	1756051	WORD	n/a	wordpools/wordpool_EN.txt	SHIRT	14	14	n/a	n/a	pyFR	0	UP021
2553.014	1.621	1757445	WORD	n/a	wordpools/wordpool_EN.txt	TOAST	15	14	n/a	n/a	pyFR	0	UP021
2554.635	0.933	1758275	START	n/a	n/a	n/a	n/a	14	[-999 -999 -999]	-999	pyFR	0	UP021
2555.568	14.51	1758753	PROB	14.47	n/a	n/a	n/a	14	[4 3 8]	15	pyFR	0	UP021
2570.078	9.24	1766182	PROB	9.24	n/a	n/a	n/a	14	[6 5 4]	15	pyFR	0	UP021
2579.318	1.164	1770914	STOP	n/a	n/a	n/a	n/a	14	[-999 -999 -999]	-999	pyFR	0	UP021
2580.482	0.737	1771509	REC_START	n/a	n/a	n/a	-999	-999	n/a	n/a	pyFR	0	UP021
2581.219	0.765	1771887	REC_WORD	0.737	n/a	PIPE	-999	14	n/a	n/a	pyFR	0	UP021
2581.984	1.278	1772279	REC_WORD	1.502	n/a	EAR	-999	14	n/a	n/a	pyFR	0	UP021
2583.262	1.507	1772933	REC_WORD	2.78	n/a	<>	-999	14	n/a	n/a	pyFR	0	UP021
2584.769	5.843	1773705	REC_WORD	4.287	n/a	<>	-999	14	n/a	n/a	pyFR	0	UP021
2590.612	7.47	1776696	REC_WORD	10.13	n/a	BIKE	-999	14	n/a	n/a	pyFR	0	UP021
2598.082	5.65	1780521	REC_WORD	17.6	n/a	RAT	-999	14	n/a	n/a	pyFR	0	UP021
2603.732	16.742	1783414	REC_WORD	23.25	n/a	STEAK	-999	14	n/a	n/a	pyFR	0	UP021
2620.474	2.942	1791987	REC_WORD	39.992	n/a	<>	-999	14	n/a	n/a	pyFR	0	UP021
2623.416	36.278	1793493	REC_WORD	42.934	n/a	<>	-999	14	n/a	n/a	pyFR	0	UP021
2659.694	0.016	1812069	TRIAL	n/a	n/a	n/a	-999	-999	n/a	n/a	pyFR	0	UP021
2659.71	2.955	1812077	ORIENT	n/a	n/a	n/a	-999	-999	n/a	n/a	pyFR	0	UP021
2662.665	2.755	1813590	WORD	n/a	wordpools/wordpool_EN.txt	CANE	1	15	n/a	n/a	pyFR	0	UP021
2665.42	2.588	1815000	WORD	n/a	wordpools/wordpool_EN.txt	STAIR	2	15	n/a	n/a	pyFR	0	UP021
2668.008	2.555	1816326	WORD	n/a	wordpools/wordpool_EN.txt	JET	3	15	n/a	n/a	pyFR	0	UP021
2670.563	2.655	1817634	WORD	n/a	wordpools/wordpool_EN.txt	BIRD	4	15	n/a	n/a	pyFR	0	UP021
2673.218	2.488	1818993	WORD	n/a	wordpools/wordpool_EN.txt	CLOWN	5	15	n/a	n/a	pyFR	0	UP021
2675.706	2.688	1820267	WORD	n/a	wordpools/wordpool_EN.txt	SLEEVE	6	15	n/a	n/a	pyFR	0	UP021
2678.394	2.705	1821644	WORD	n/a	wordpools/wordpool_EN.txt	GOLD	7	15	n/a	n/a	pyFR	0	UP021
2681.099	2.772	1823029	WORD	n/a	wordpools/wordpool_EN.txt	SWORD	8	15	n/a	n/a	pyFR	0	UP021
2683.871	2.805	1824448	WORD	n/a	wordpools/wordpool_EN.txt	MOTH	9	15	n/a	n/a	pyFR	0	UP021
2686.676	2.521	1825884	WORD	n/a	wordpools/wordpool_EN.txt	CONE	10	15	n/a	n/a	pyFR	0	UP021
2689.197	2.722	1827175	WORD	n/a	wordpools/wordpool_EN.txt	WALL	11	15	n/a	n/a	pyFR	0	UP021
2691.919	2.421	1828569	WORD	n/a	wordpools/wordpool_EN.txt	JUDGE	12	15	n/a	n/a	pyFR	0	UP021
2694.34	2.722	1829808	WORD	n/a	wordpools/wordpool_EN.txt	HORN	13	15	n/a	n/a	pyFR	0	UP021
2697.062	2.504	1831202	WORD	n/a	wordpools/wordpool_EN.txt	STEM	14	15	n/a	n/a	pyFR	0	UP021
2699.566	1.605	1832484	WORD	n/a	wordpools/wordpool_EN.txt	GLASS	15	15	n/a	n/a	pyFR	0	UP021
2701.171	0.867	1833306	START	n/a	n/a	n/a	n/a	15	[-999 -999 -999]	-999	pyFR	0	UP021
2702.038	11.621	1833750	PROB	11.568	n/a	n/a	n/a	15	[2 1 3]	6	pyFR	0	UP021
2713.659	12.619	1839700	PROB	12.619	n/a	n/a	n/a	15	[6 7 2]	15	pyFR	0	UP021
2726.278	1.19	1846162	STOP	n/a	n/a	n/a	n/a	15	[-999 -999 -999]	-999	pyFR	0	UP021
2727.468	5.004	1846771	REC_START	n/a	n/a	n/a	-999	-999	n/a	n/a	pyFR	0	UP021
2732.472	1.0	1849333	REC_WORD	5.004	n/a	<>	-999	15	n/a	n/a	pyFR	0	UP021
2733.472	1.0	1849845	REC_WORD	6.004	n/a	<>	-999	15	n/a	n/a	pyFR	0	UP021
2734.472	1.0	1850357	REC_WORD	7.004	n/a	<>	-999	15	n/a	n/a	pyFR	0	UP021
2735.472	1.0	1850869	REC_WORD	8.004	n/a	<>	-999	15	n/a	n/a	pyFR	0	UP021
2736.472	1.0	1851381	REC_WORD	9.004	n/a	<>	-999	15	n/a	n/a	pyFR	0	UP021
2737.472	3.541	1851893	REC_WORD	10.004	n/a	<>	-999	15	n/a	n/a	pyFR	0	UP021
2741.013	1.956	1853707	REC_WORD	13.545	n/a	SWORD	-999	15	n/a	n/a	pyFR	0	UP021
2742.969	3.768	1854708	REC_WORD	15.501	n/a	STAR	-999	15	n/a	n/a	pyFR	0	UP021
2746.737	8.677	1856637	REC_WORD	19.269	n/a	<>	-999	15	n/a	n/a	pyFR	0	UP021
2755.414	1.0	1861080	REC_WORD	27.946	n/a	<>	-999	15	n/a	n/a	pyFR	0	UP021
2756.414	1.0	1861592	REC_WORD	28.946	n/a	<>	-999	15	n/a	n/a	pyFR	0	UP021
2757.414	1.0	1862104	REC_WORD	29.946	n/a	<>	-999	15	n/a	n/a	pyFR	0	UP021
2758.414	0.325	1862616	REC_WORD	30.946	n/a	<>	-999	15	n/a	n/a	pyFR	0	UP021
2758.739	49.945	1862783	REC_WORD	31.271	n/a	TOW	-999	15	n/a	n/a	pyFR	0	UP021
2808.684	0.016	1888356	TRIAL	n/a	n/a	n/a	-999	-999	n/a	n/a	pyFR	0	UP021
2808.7	2.839	1888364	ORIENT	n/a	n/a	n/a	-999	-999	n/a	n/a	pyFR	0	UP021
2811.539	2.604	1889818	WORD	n/a	wordpools/wordpool_EN.txt	CAGE	1	16	n/a	n/a	pyFR	0	UP021
2814.143	2.722	1891151	WORD	n/a	wordpools/wordpool_EN.txt	DIME	2	16	n/a	n/a	pyFR	0	UP021
2816.865	2.605	1892545	WORD	n/a	wordpools/wordpool_EN.txt	SHELL	3	16	n/a	n/a	pyFR	0	UP021
2819.47	2.738	1893879	WORD	n/a	wordpools/wordpool_EN.txt	POOL	4	16	n/a	n/a	pyFR	0	UP021
2822.208	2.588	1895281	WORD	n/a	wordpools/wordpool_EN.txt	TENT	5	16	n/a	n/a	pyFR	0	UP021
2824.796	2.422	1896606	WORD	n/a	wordpools/wordpool_EN.txt	SALT	6	16	n/a	n/a	pyFR	0	UP021
2827.218	2.604	1897846	WORD	n/a	wordpools/wordpool_EN.txt	SINK	7	16	n/a	n/a	pyFR	0	UP021
2829.822	2.705	1899180	WORD	n/a	wordpools/wordpool_EN.txt	PEN	8	16	n/a	n/a	pyFR	0	UP021
2832.527	2.605	1900565	WORD	n/a	wordpools/wordpool_EN.txt	SOUP	9	16	n/a	n/a	pyFR	0	UP021
2835.132	2.521	1901898	WORD	n/a	wordpools/wordpool_EN.txt	ROOF	10	16	n/a	n/a	pyFR	0	UP021
2837.653	2.555	1903189	WORD	n/a	wordpools/wordpool_EN.txt	FROG	11	16	n/a	n/a	pyFR	0	UP021
2840.208	2.505	1904498	WORD	n/a	wordpools/wordpool_EN.txt	GEESE	12	16	n/a	n/a	pyFR	0	UP021
2842.713	2.788	1905780	WORD	n/a	wordpools/wordpool_EN.txt	BRIDGE	13	16	n/a	n/a	pyFR	0	UP021
2845.501	2.622	1907208	WORD	n/a	wordpools/wordpool_EN.txt	SEAT	14	16	n/a	n/a	pyFR	0	UP021
2848.123	1.621	1908550	WORD	n/a	wordpools/wordpool_EN.txt	AXE	15	16	n/a	n/a	pyFR	0	UP021
2849.744	0.883	1909380	START	n/a	n/a	n/a	n/a	16	[-999 -999 -999]	-999	pyFR	0	UP021
2850.627	13.775	1909832	PROB	13.723	n/a	n/a	n/a	16	[3 9 5]	17	pyFR	0	UP021
2864.402	10.58	1916886	PROB	10.58	n/a	n/a	n/a	16	[3 6 9]	18	pyFR	0	UP021
2874.982	1.143	1922303	STOP	n/a	n/a	n/a	n/a	16	[-999 -999 -999]	-999	pyFR	0	UP021
2876.125	3.337	1922888	REC_START	n/a	n/a	n/a	-999	-999	n/a	n/a	pyFR	0	UP021
2879.462	0.788	1924597	REC_WORD	3.337	n/a	CAGE	-999	16	n/a	n/a	pyFR	0	UP021
2880.25	1.283	1925000	REC_WORD	4.125	n/a	POOL	-999	16	n/a	n/a	pyFR	0	UP021
2881.533	1.0	1925657	REC_WORD	5.408	n/a	<>	-999	16	n/a	n/a	pyFR	0	UP021
2882.533	1.0	1926169	REC_WORD	6.408	n/a	<>	-999	16	n/a	n/a	pyFR	0	UP021
2883.533	0.447	1926681	REC_WORD	7.408	n/a	<>	-999	16	n/a	n/a	pyFR	0	UP021
2883.98	4.028	1926910	REC_WORD	7.855	n/a	SALT	-999	16	n/a	n/a	pyFR	0	UP021
2888.008	770.205	1928973	REC_WORD	11.883	n/a	<>	-999	16	n/a	n/a	pyFR	0	UP021
3658.213	0.105	2323343	SESS_END	n/a	n/a	n/a	-999	-999	n/a	n/a	pyFR	0	UP021
3658.318	0.0	2323396	E	n/a	n/a	n/a	-999	-999	n/a	n/a	pyFR	0	UP021
