onset	duration	sample	trial_type	response_time	stim_file	item_name	serialpos	list	test	answer	experiment	session	subject
0.0	0.0	209324	SESS_START	n/a	n/a	n/a	-999.0	-999	n/a	n/a	pyFR	1	TJ031
0.0	51.996	209324	B	n/a	n/a	n/a	-999.0	-999	n/a	n/a	pyFR	1	TJ031
51.996	0.01	261318	START	n/a	n/a	n/a	n/a	0	[-999 -999 -999]	-999.0	pyFR	1	TJ031
52.006	6.377	261328	PROB	6.34	n/a	n/a	n/a	0	[8 9 2]	19.0	pyFR	1	TJ031
58.383	3.339	267705	PROB	3.308	n/a	n/a	n/a	0	[1 5 5]	11.0	pyFR	1	TJ031
61.722	6.712	271043	PROB	6.681	n/a	n/a	n/a	0	[3 6 8]	17.0	pyFR	1	TJ031
68.434	6.778	277755	PROB	6.753	n/a	n/a	n/a	0	[4 7 4]	15.0	pyFR	1	TJ031
75.212	3.606	284533	PROB	3.575	n/a	n/a	n/a	0	[2 9 5]	16.0	pyFR	1	TJ031
78.818	4.697	288139	PROB	4.697	n/a	n/a	n/a	0	[1 3 6]	10.0	pyFR	1	TJ031
83.515	56.54	292835	STOP	n/a	n/a	n/a	n/a	0	[-999 -999 -999]	-999.0	pyFR	1	TJ031
140.055	0.016	349374	TRIAL	n/a	n/a	n/a	-999.0	-999	n/a	n/a	pyFR	1	TJ031
140.071	1.6	349390	ORIENT	n/a	n/a	n/a	-999.0	-999	n/a	n/a	pyFR	1	TJ031
143.01	1.6	352328	WORD	n/a	wordpools/wordpool_EN.txt	FAN	1.0	1	n/a	n/a	pyFR	1	TJ031
145.63	1.6	354948	WORD	n/a	wordpools/wordpool_EN.txt	STOVE	2.0	1	n/a	n/a	pyFR	1	TJ031
148.102	1.6	357420	WORD	n/a	wordpools/wordpool_EN.txt	BEAR	3.0	1	n/a	n/a	pyFR	1	TJ031
150.572	1.6	359890	WORD	n/a	wordpools/wordpool_EN.txt	JUDGE	4.0	1	n/a	n/a	pyFR	1	TJ031
153.31	1.6	362628	WORD	n/a	wordpools/wordpool_EN.txt	SPONGE	5.0	1	n/a	n/a	pyFR	1	TJ031
155.931	1.6	365249	WORD	n/a	wordpools/wordpool_EN.txt	KEY	6.0	1	n/a	n/a	pyFR	1	TJ031
158.402	1.6	367720	WORD	n/a	wordpools/wordpool_EN.txt	JUICE	7.0	1	n/a	n/a	pyFR	1	TJ031
160.94	1.6	370258	WORD	n/a	wordpools/wordpool_EN.txt	FUR	8.0	1	n/a	n/a	pyFR	1	TJ031
163.712	1.6	373030	WORD	n/a	wordpools/wordpool_EN.txt	SAIL	9.0	1	n/a	n/a	pyFR	1	TJ031
166.249	1.6	375567	WORD	n/a	wordpools/wordpool_EN.txt	CAKE	10.0	1	n/a	n/a	pyFR	1	TJ031
168.736	1.6	378053	WORD	n/a	wordpools/wordpool_EN.txt	SIGN	11.0	1	n/a	n/a	pyFR	1	TJ031
171.357	1.6	380674	WORD	n/a	wordpools/wordpool_EN.txt	CART	12.0	1	n/a	n/a	pyFR	1	TJ031
173.995	1.6	383312	WORD	n/a	wordpools/wordpool_EN.txt	PIE	13.0	1	n/a	n/a	pyFR	1	TJ031
176.716	1.6	386033	WORD	n/a	wordpools/wordpool_EN.txt	RAIN	14.0	1	n/a	n/a	pyFR	1	TJ031
179.271	1.6	388588	WORD	n/a	wordpools/wordpool_EN.txt	TOE	15.0	1	n/a	n/a	pyFR	1	TJ031
180.891	1.051	390206	START	n/a	n/a	n/a	n/a	1	[-999 -999 -999]	-999.0	pyFR	1	TJ031
181.942	4.707	391257	PROB	4.669	n/a	n/a	n/a	1	[9 8 2]	19.0	pyFR	1	TJ031
186.649	6.127	395964	PROB	6.09	n/a	n/a	n/a	1	[6 8 5]	19.0	pyFR	1	TJ031
192.776	5.81	402091	PROB	5.779	n/a	n/a	n/a	1	[4 4 9]	17.0	pyFR	1	TJ031
198.586	3.641	407901	PROB	3.641	n/a	n/a	n/a	1	[3 8 1]	12.0	pyFR	1	TJ031
202.227	1.212	411541	STOP	n/a	n/a	n/a	n/a	1	[-999 -999 -999]	-999.0	pyFR	1	TJ031
203.439	1.512	412755	REC_START	n/a	n/a	n/a	-999.0	-999	n/a	n/a	pyFR	1	TJ031
204.951	0.451	414267	REC_WORD	1.512	n/a	<>	-999.0	1	n/a	n/a	pyFR	1	TJ031
205.402	0.663	414718	REC_WORD	1.963	n/a	FAN	-999.0	1	n/a	n/a	pyFR	1	TJ031
206.065	0.873	415381	REC_WORD	2.626	n/a	STOVE	-999.0	1	n/a	n/a	pyFR	1	TJ031
206.938	0.575	416254	REC_WORD	3.499	n/a	BEAR	-999.0	1	n/a	n/a	pyFR	1	TJ031
207.513	1.474	416829	REC_WORD	4.074	n/a	JUDGE	-999.0	1	n/a	n/a	pyFR	1	TJ031
208.987	0.434	418303	REC_WORD	5.548	n/a	<>	-999.0	1	n/a	n/a	pyFR	1	TJ031
209.421	3.156	418737	REC_WORD	5.982	n/a	JUICE	-999.0	1	n/a	n/a	pyFR	1	TJ031
212.577	1.83	421893	REC_WORD	9.138	n/a	<>	-999.0	1	n/a	n/a	pyFR	1	TJ031
214.407	5.389	423723	REC_WORD	10.968	n/a	<>	-999.0	1	n/a	n/a	pyFR	1	TJ031
219.796	1.0	429111	REC_WORD	16.357	n/a	<>	-999.0	1	n/a	n/a	pyFR	1	TJ031
220.796	1.105	430111	REC_WORD	17.357	n/a	<>	-999.0	1	n/a	n/a	pyFR	1	TJ031
221.901	31.628	431216	REC_WORD	18.462	n/a	HILL	-999.0	1	n/a	n/a	pyFR	1	TJ031
253.529	0.017	462843	TRIAL	n/a	n/a	n/a	-999.0	-999	n/a	n/a	pyFR	1	TJ031
253.546	1.6	462860	ORIENT	n/a	n/a	n/a	-999.0	-999	n/a	n/a	pyFR	1	TJ031
256.534	1.6	465848	WORD	n/a	wordpools/wordpool_EN.txt	DRUM	1.0	2	n/a	n/a	pyFR	1	TJ031
259.072	1.6	468386	WORD	n/a	wordpools/wordpool_EN.txt	POND	2.0	2	n/a	n/a	pyFR	1	TJ031
261.642	1.6	470956	WORD	n/a	wordpools/wordpool_EN.txt	CROWN	3.0	2	n/a	n/a	pyFR	1	TJ031
264.364	1.6	473678	WORD	n/a	wordpools/wordpool_EN.txt	BELL	4.0	2	n/a	n/a	pyFR	1	TJ031
267.152	1.6	476466	WORD	n/a	wordpools/wordpool_EN.txt	STICK	5.0	2	n/a	n/a	pyFR	1	TJ031
269.589	1.6	478903	WORD	n/a	wordpools/wordpool_EN.txt	CAVE	6.0	2	n/a	n/a	pyFR	1	TJ031
272.244	1.6	481557	WORD	n/a	wordpools/wordpool_EN.txt	DAD	7.0	2	n/a	n/a	pyFR	1	TJ031
274.748	1.6	484061	WORD	n/a	wordpools/wordpool_EN.txt	SOCK	8.0	2	n/a	n/a	pyFR	1	TJ031
277.503	1.6	486816	WORD	n/a	wordpools/wordpool_EN.txt	SHRIMP	9.0	2	n/a	n/a	pyFR	1	TJ031
280.174	1.6	489487	WORD	n/a	wordpools/wordpool_EN.txt	COW	10.0	2	n/a	n/a	pyFR	1	TJ031
282.745	1.6	492058	WORD	n/a	wordpools/wordpool_EN.txt	THREAD	11.0	2	n/a	n/a	pyFR	1	TJ031
285.399	1.6	494712	WORD	n/a	wordpools/wordpool_EN.txt	WORLD	12.0	2	n/a	n/a	pyFR	1	TJ031
287.853	1.6	497166	WORD	n/a	wordpools/wordpool_EN.txt	KING	13.0	2	n/a	n/a	pyFR	1	TJ031
290.575	1.6	499888	WORD	n/a	wordpools/wordpool_EN.txt	MAT	14.0	2	n/a	n/a	pyFR	1	TJ031
293.279	1.6	502592	WORD	n/a	wordpools/wordpool_EN.txt	LEAF	15.0	2	n/a	n/a	pyFR	1	TJ031
294.9	0.9	504210	START	n/a	n/a	n/a	n/a	2	[-999 -999 -999]	-999.0	pyFR	1	TJ031
295.8	4.157	505110	PROB	4.131	n/a	n/a	n/a	2	[1 9 3]	13.0	pyFR	1	TJ031
299.957	3.923	509266	PROB	3.894	n/a	n/a	n/a	2	[7 7 4]	18.0	pyFR	1	TJ031
303.88	3.006	513189	PROB	2.97	n/a	n/a	n/a	2	[7 6 5]	18.0	pyFR	1	TJ031
306.886	7.395	516195	PROB	7.373	n/a	n/a	n/a	2	[3 4 6]	13.0	pyFR	1	TJ031
314.281	4.298	523590	PROB	4.298	n/a	n/a	n/a	2	[8 6 3]	17.0	pyFR	1	TJ031
318.579	1.095	527887	STOP	n/a	n/a	n/a	n/a	2	[-999 -999 -999]	-999.0	pyFR	1	TJ031
319.674	1.144	528986	REC_START	n/a	n/a	n/a	-999.0	-999	n/a	n/a	pyFR	1	TJ031
320.818	0.617	530130	REC_WORD	1.144	n/a	DAD	-999.0	2	n/a	n/a	pyFR	1	TJ031
321.435	1.278	530746	REC_WORD	1.761	n/a	KING	-999.0	2	n/a	n/a	pyFR	1	TJ031
322.713	0.648	532024	REC_WORD	3.039	n/a	COW	-999.0	2	n/a	n/a	pyFR	1	TJ031
323.361	0.452	532672	REC_WORD	3.687	n/a	POND	-999.0	2	n/a	n/a	pyFR	1	TJ031
323.813	1.493	533124	REC_WORD	4.139	n/a	STICK	-999.0	2	n/a	n/a	pyFR	1	TJ031
325.306	4.534	534617	REC_WORD	5.632	n/a	CROW	-999.0	2	n/a	n/a	pyFR	1	TJ031
329.84	0.517	539151	REC_WORD	10.166	n/a	<>	-999.0	2	n/a	n/a	pyFR	1	TJ031
330.357	6.747	539668	REC_WORD	10.683	n/a	SOCK	-999.0	2	n/a	n/a	pyFR	1	TJ031
337.104	4.169	546415	REC_WORD	17.43	n/a	FROG	-999.0	2	n/a	n/a	pyFR	1	TJ031
341.273	8.685	550584	REC_WORD	21.599	n/a	DRUM	-999.0	2	n/a	n/a	pyFR	1	TJ031
349.958	21.436	559268	REC_WORD	30.284	n/a	WORLD	-999.0	2	n/a	n/a	pyFR	1	TJ031
371.394	0.016	580704	TRIAL	n/a	n/a	n/a	-999.0	-999	n/a	n/a	pyFR	1	TJ031
371.41	1.6	580720	ORIENT	n/a	n/a	n/a	-999.0	-999	n/a	n/a	pyFR	1	TJ031
374.132	1.6	583441	WORD	n/a	wordpools/wordpool_EN.txt	DOOR	1.0	3	n/a	n/a	pyFR	1	TJ031
376.586	1.6	585895	WORD	n/a	wordpools/wordpool_EN.txt	CROW	2.0	3	n/a	n/a	pyFR	1	TJ031
379.091	1.6	588400	WORD	n/a	wordpools/wordpool_EN.txt	DITCH	3.0	3	n/a	n/a	pyFR	1	TJ031
381.678	1.6	590987	WORD	n/a	wordpools/wordpool_EN.txt	SWAMP	4.0	3	n/a	n/a	pyFR	1	TJ031
384.216	1.6	593525	WORD	n/a	wordpools/wordpool_EN.txt	TRAY	5.0	3	n/a	n/a	pyFR	1	TJ031
386.737	1.6	596046	WORD	n/a	wordpools/wordpool_EN.txt	STRING	6.0	3	n/a	n/a	pyFR	1	TJ031
389.474	1.6	598783	WORD	n/a	wordpools/wordpool_EN.txt	CAGE	7.0	3	n/a	n/a	pyFR	1	TJ031
391.995	1.6	601304	WORD	n/a	wordpools/wordpool_EN.txt	BALL	8.0	3	n/a	n/a	pyFR	1	TJ031
394.617	1.6	603926	WORD	n/a	wordpools/wordpool_EN.txt	BAT	9.0	3	n/a	n/a	pyFR	1	TJ031
397.087	1.6	606396	WORD	n/a	wordpools/wordpool_EN.txt	MAZE	10.0	3	n/a	n/a	pyFR	1	TJ031
399.592	1.6	608900	WORD	n/a	wordpools/wordpool_EN.txt	SHOE	11.0	3	n/a	n/a	pyFR	1	TJ031
402.33	1.6	611638	WORD	n/a	wordpools/wordpool_EN.txt	ICE	12.0	3	n/a	n/a	pyFR	1	TJ031
404.951	1.6	614259	WORD	n/a	wordpools/wordpool_EN.txt	SNAKE	13.0	3	n/a	n/a	pyFR	1	TJ031
407.488	1.6	616796	WORD	n/a	wordpools/wordpool_EN.txt	SEA	14.0	3	n/a	n/a	pyFR	1	TJ031
410.142	1.6	619450	WORD	n/a	wordpools/wordpool_EN.txt	PEN	15.0	3	n/a	n/a	pyFR	1	TJ031
411.763	0.834	621067	START	n/a	n/a	n/a	n/a	3	[-999 -999 -999]	-999.0	pyFR	1	TJ031
412.597	5.943	621901	PROB	5.918	n/a	n/a	n/a	3	[5 9 9]	23.0	pyFR	1	TJ031
418.54	3.906	627843	PROB	3.879	n/a	n/a	n/a	3	[4 2 2]	8.0	pyFR	1	TJ031
422.446	4.458	631749	PROB	4.429	n/a	n/a	n/a	3	[7 4 4]	15.0	pyFR	1	TJ031
426.904	4.224	636207	PROB	4.195	n/a	n/a	n/a	3	[7 1 8]	16.0	pyFR	1	TJ031
431.128	4.747	640431	PROB	4.747	n/a	n/a	n/a	3	[9 9 9]	27.0	pyFR	1	TJ031
435.875	1.097	645178	STOP	n/a	n/a	n/a	n/a	3	[-999 -999 -999]	-999.0	pyFR	1	TJ031
436.972	2.371	646279	REC_START	n/a	n/a	n/a	-999.0	-999	n/a	n/a	pyFR	1	TJ031
439.343	0.363	648650	REC_WORD	2.371	n/a	CROW	-999.0	3	n/a	n/a	pyFR	1	TJ031
439.706	0.92	649013	REC_WORD	2.734	n/a	SHOE	-999.0	3	n/a	n/a	pyFR	1	TJ031
440.626	0.641	649933	REC_WORD	3.654	n/a	DITCH	-999.0	3	n/a	n/a	pyFR	1	TJ031
441.267	2.87	650574	REC_WORD	4.295	n/a	DOOR	-999.0	3	n/a	n/a	pyFR	1	TJ031
444.137	4.951	653444	REC_WORD	7.165	n/a	FOG	-999.0	3	n/a	n/a	pyFR	1	TJ031
449.088	7.005	658395	REC_WORD	12.116	n/a	SWAMP	-999.0	3	n/a	n/a	pyFR	1	TJ031
456.093	0.385	665399	REC_WORD	19.121	n/a	<>	-999.0	3	n/a	n/a	pyFR	1	TJ031
456.478	2.029	665784	REC_WORD	19.506	n/a	DAD	-999.0	3	n/a	n/a	pyFR	1	TJ031
458.507	1.048	667813	REC_WORD	21.535	n/a	<>	-999.0	3	n/a	n/a	pyFR	1	TJ031
459.555	0.248	668861	REC_WORD	22.583	n/a	<>	-999.0	3	n/a	n/a	pyFR	1	TJ031
459.803	0.806	669109	REC_WORD	22.831	n/a	DAD	-999.0	3	n/a	n/a	pyFR	1	TJ031
460.609	19.511	669915	REC_WORD	23.637	n/a	<>	-999.0	3	n/a	n/a	pyFR	1	TJ031
480.12	1.055	689425	REC_WORD	43.148	n/a	<>	-999.0	3	n/a	n/a	pyFR	1	TJ031
481.175	18.402	690480	REC_WORD	44.203	n/a	<>	-999.0	3	n/a	n/a	pyFR	1	TJ031
499.577	0.016	708882	TRIAL	n/a	n/a	n/a	-999.0	-999	n/a	n/a	pyFR	1	TJ031
499.593	1.6	708898	ORIENT	n/a	n/a	n/a	-999.0	-999	n/a	n/a	pyFR	1	TJ031
502.248	1.6	711553	WORD	n/a	wordpools/wordpool_EN.txt	GIRL	1.0	4	n/a	n/a	pyFR	1	TJ031
504.869	1.6	714173	WORD	n/a	wordpools/wordpool_EN.txt	VINE	2.0	4	n/a	n/a	pyFR	1	TJ031
507.691	1.6	716995	WORD	n/a	wordpools/wordpool_EN.txt	MOLE	3.0	4	n/a	n/a	pyFR	1	TJ031
510.511	1.6	719815	WORD	n/a	wordpools/wordpool_EN.txt	WALL	4.0	4	n/a	n/a	pyFR	1	TJ031
513.3	1.6	722604	WORD	n/a	wordpools/wordpool_EN.txt	WHEEL	5.0	4	n/a	n/a	pyFR	1	TJ031
516.104	1.6	725408	WORD	n/a	wordpools/wordpool_EN.txt	PET	6.0	4	n/a	n/a	pyFR	1	TJ031
518.776	1.6	728080	WORD	n/a	wordpools/wordpool_EN.txt	ARM	7.0	4	n/a	n/a	pyFR	1	TJ031
521.447	1.6	730751	WORD	n/a	wordpools/wordpool_EN.txt	BOX	8.0	4	n/a	n/a	pyFR	1	TJ031
524.235	1.6	733539	WORD	n/a	wordpools/wordpool_EN.txt	DOCK	9.0	4	n/a	n/a	pyFR	1	TJ031
526.739	1.6	736043	WORD	n/a	wordpools/wordpool_EN.txt	RIB	10.0	4	n/a	n/a	pyFR	1	TJ031
529.293	1.6	738596	WORD	n/a	wordpools/wordpool_EN.txt	STREET	11.0	4	n/a	n/a	pyFR	1	TJ031
531.948	1.6	741251	WORD	n/a	wordpools/wordpool_EN.txt	SHEET	12.0	4	n/a	n/a	pyFR	1	TJ031
534.736	1.6	744039	WORD	n/a	wordpools/wordpool_EN.txt	BAND	13.0	4	n/a	n/a	pyFR	1	TJ031
537.273	1.6	746576	WORD	n/a	wordpools/wordpool_EN.txt	BROOM	14.0	4	n/a	n/a	pyFR	1	TJ031
539.761	1.6	749064	WORD	n/a	wordpools/wordpool_EN.txt	BUSH	15.0	4	n/a	n/a	pyFR	1	TJ031
541.381	1.018	750678	START	n/a	n/a	n/a	n/a	4	[-999 -999 -999]	-999.0	pyFR	1	TJ031
542.399	4.123	751696	PROB	4.1	n/a	n/a	n/a	4	[3 5 5]	13.0	pyFR	1	TJ031
546.522	3.172	755819	PROB	3.137	n/a	n/a	n/a	4	[1 4 8]	13.0	pyFR	1	TJ031
549.694	2.554	758991	PROB	2.533	n/a	n/a	n/a	4	[2 8 2]	12.0	pyFR	1	TJ031
552.248	5.893	761545	PROB	5.859	n/a	n/a	n/a	4	[4 9 3]	16.0	pyFR	1	TJ031
558.141	3.47	767437	PROB	3.47	n/a	n/a	n/a	4	[4 9 1]	14.0	pyFR	1	TJ031
561.611	1.206	770907	STOP	n/a	n/a	n/a	n/a	4	[-999 -999 -999]	-999.0	pyFR	1	TJ031
562.817	0.631	772119	REC_START	n/a	n/a	n/a	-999.0	-999	n/a	n/a	pyFR	1	TJ031
563.448	0.392	772750	REC_WORD	0.631	n/a	GIRL	-999.0	4	n/a	n/a	pyFR	1	TJ031
563.84	0.618	773142	REC_WORD	1.023	n/a	VINE	-999.0	4	n/a	n/a	pyFR	1	TJ031
564.458	1.186	773760	REC_WORD	1.641	n/a	MOLE	-999.0	4	n/a	n/a	pyFR	1	TJ031
565.644	2.365	774946	REC_WORD	2.827	n/a	<>	-999.0	4	n/a	n/a	pyFR	1	TJ031
568.009	3.804	777311	REC_WORD	5.192	n/a	<>	-999.0	4	n/a	n/a	pyFR	1	TJ031
571.813	7.271	781115	REC_WORD	8.996	n/a	TRUCK	-999.0	4	n/a	n/a	pyFR	1	TJ031
579.084	1.106	788386	REC_WORD	16.267	n/a	<>	-999.0	4	n/a	n/a	pyFR	1	TJ031
580.19	8.355	789491	REC_WORD	17.373	n/a	DOOR	-999.0	4	n/a	n/a	pyFR	1	TJ031
588.545	0.501	797846	REC_WORD	25.728	n/a	SHEET	-999.0	4	n/a	n/a	pyFR	1	TJ031
589.046	6.396	798347	REC_WORD	26.229	n/a	STREET	-999.0	4	n/a	n/a	pyFR	1	TJ031
595.442	32.434	804743	REC_WORD	32.625	n/a	RIB	-999.0	4	n/a	n/a	pyFR	1	TJ031
627.876	0.016	837176	TRIAL	n/a	n/a	n/a	-999.0	-999	n/a	n/a	pyFR	1	TJ031
627.892	1.6	837192	ORIENT	n/a	n/a	n/a	-999.0	-999	n/a	n/a	pyFR	1	TJ031
630.748	1.6	840048	WORD	n/a	wordpools/wordpool_EN.txt	DEER	1.0	5	n/a	n/a	pyFR	1	TJ031
633.268	1.6	842567	WORD	n/a	wordpools/wordpool_EN.txt	YARD	2.0	5	n/a	n/a	pyFR	1	TJ031
635.923	1.6	845222	WORD	n/a	wordpools/wordpool_EN.txt	ANT	3.0	5	n/a	n/a	pyFR	1	TJ031
638.595	1.6	847894	WORD	n/a	wordpools/wordpool_EN.txt	WAND	4.0	5	n/a	n/a	pyFR	1	TJ031
641.348	1.6	850647	WORD	n/a	wordpools/wordpool_EN.txt	LAND	5.0	5	n/a	n/a	pyFR	1	TJ031
643.97	1.6	853269	WORD	n/a	wordpools/wordpool_EN.txt	SEAL	6.0	5	n/a	n/a	pyFR	1	TJ031
646.557	1.6	855856	WORD	n/a	wordpools/wordpool_EN.txt	PIT	7.0	5	n/a	n/a	pyFR	1	TJ031
649.295	1.6	858594	WORD	n/a	wordpools/wordpool_EN.txt	CLOTH	8.0	5	n/a	n/a	pyFR	1	TJ031
651.85	1.6	861149	WORD	n/a	wordpools/wordpool_EN.txt	MUD	9.0	5	n/a	n/a	pyFR	1	TJ031
654.471	1.6	863770	WORD	n/a	wordpools/wordpool_EN.txt	BOWL	10.0	5	n/a	n/a	pyFR	1	TJ031
657.275	1.6	866574	WORD	n/a	wordpools/wordpool_EN.txt	WEB	11.0	5	n/a	n/a	pyFR	1	TJ031
659.713	1.6	869011	WORD	n/a	wordpools/wordpool_EN.txt	WOLF	12.0	5	n/a	n/a	pyFR	1	TJ031
662.467	1.6	871765	WORD	n/a	wordpools/wordpool_EN.txt	DOLL	13.0	5	n/a	n/a	pyFR	1	TJ031
665.222	1.6	874520	WORD	n/a	wordpools/wordpool_EN.txt	EEL	14.0	5	n/a	n/a	pyFR	1	TJ031
667.86	1.6	877158	WORD	n/a	wordpools/wordpool_EN.txt	RUG	15.0	5	n/a	n/a	pyFR	1	TJ031
669.48	0.934	878771	START	n/a	n/a	n/a	n/a	5	[-999 -999 -999]	-999.0	pyFR	1	TJ031
670.414	5.109	879705	PROB	5.085	n/a	n/a	n/a	5	[6 6 9]	21.0	pyFR	1	TJ031
675.523	4.474	884813	PROB	4.44	n/a	n/a	n/a	5	[3 6 1]	10.0	pyFR	1	TJ031
679.997	3.94	889287	PROB	3.91	n/a	n/a	n/a	5	[9 4 4]	17.0	pyFR	1	TJ031
683.937	3.773	893227	PROB	3.746	n/a	n/a	n/a	5	[3 6 7]	16.0	pyFR	1	TJ031
687.71	3.101	897000	PROB	3.101	n/a	n/a	n/a	5	[8 5 2]	15.0	pyFR	1	TJ031
690.811	1.207	900101	STOP	n/a	n/a	n/a	n/a	5	[-999 -999 -999]	-999.0	pyFR	1	TJ031
692.018	1.44	901315	REC_START	n/a	n/a	n/a	-999.0	-999	n/a	n/a	pyFR	1	TJ031
693.458	0.582	902755	REC_WORD	1.44	n/a	DEER	-999.0	5	n/a	n/a	pyFR	1	TJ031
694.04	0.663	903337	REC_WORD	2.022	n/a	YARD	-999.0	5	n/a	n/a	pyFR	1	TJ031
694.703	0.409	904000	REC_WORD	2.685	n/a	PIT	-999.0	5	n/a	n/a	pyFR	1	TJ031
695.112	0.524	904409	REC_WORD	3.094	n/a	MUD	-999.0	5	n/a	n/a	pyFR	1	TJ031
695.636	0.889	904933	REC_WORD	3.618	n/a	WEB	-999.0	5	n/a	n/a	pyFR	1	TJ031
696.525	0.996	905822	REC_WORD	4.507	n/a	ANT	-999.0	5	n/a	n/a	pyFR	1	TJ031
697.521	1.007	906818	REC_WORD	5.503	n/a	EEL	-999.0	5	n/a	n/a	pyFR	1	TJ031
698.528	3.035	907825	REC_WORD	6.51	n/a	<>	-999.0	5	n/a	n/a	pyFR	1	TJ031
701.563	1.0	910860	REC_WORD	9.545	n/a	SEA	-999.0	5	n/a	n/a	pyFR	1	TJ031
702.563	1.485	911860	REC_WORD	10.545	n/a	<>	-999.0	5	n/a	n/a	pyFR	1	TJ031
704.048	17.502	913345	REC_WORD	12.03	n/a	<>	-999.0	5	n/a	n/a	pyFR	1	TJ031
721.55	2.021	930846	REC_WORD	29.532	n/a	<>	-999.0	5	n/a	n/a	pyFR	1	TJ031
723.571	26.895	932867	REC_WORD	31.553	n/a	TRUCK	-999.0	5	n/a	n/a	pyFR	1	TJ031
750.466	0.016	959761	TRIAL	n/a	n/a	n/a	-999.0	-999	n/a	n/a	pyFR	1	TJ031
750.482	1.6	959777	ORIENT	n/a	n/a	n/a	-999.0	-999	n/a	n/a	pyFR	1	TJ031
753.487	1.6	962782	WORD	n/a	wordpools/wordpool_EN.txt	TENT	1.0	6	n/a	n/a	pyFR	1	TJ031
756.058	1.6	965353	WORD	n/a	wordpools/wordpool_EN.txt	GLASS	2.0	6	n/a	n/a	pyFR	1	TJ031
758.729	1.6	968024	WORD	n/a	wordpools/wordpool_EN.txt	FRUIT	3.0	6	n/a	n/a	pyFR	1	TJ031
761.484	1.6	970778	WORD	n/a	wordpools/wordpool_EN.txt	SPOON	4.0	6	n/a	n/a	pyFR	1	TJ031
764.155	1.6	973449	WORD	n/a	wordpools/wordpool_EN.txt	HORN	5.0	6	n/a	n/a	pyFR	1	TJ031
766.609	1.6	975903	WORD	n/a	wordpools/wordpool_EN.txt	BEAN	6.0	6	n/a	n/a	pyFR	1	TJ031
769.163	1.6	978457	WORD	n/a	wordpools/wordpool_EN.txt	CORD	7.0	6	n/a	n/a	pyFR	1	TJ031
771.802	1.6	981096	WORD	n/a	wordpools/wordpool_EN.txt	LAMB	8.0	6	n/a	n/a	pyFR	1	TJ031
774.59	1.6	983884	WORD	n/a	wordpools/wordpool_EN.txt	DIME	9.0	6	n/a	n/a	pyFR	1	TJ031
777.411	1.6	986705	WORD	n/a	wordpools/wordpool_EN.txt	TOAD	10.0	6	n/a	n/a	pyFR	1	TJ031
779.965	1.6	989259	WORD	n/a	wordpools/wordpool_EN.txt	FOG	11.0	6	n/a	n/a	pyFR	1	TJ031
782.469	1.6	991763	WORD	n/a	wordpools/wordpool_EN.txt	STORM	12.0	6	n/a	n/a	pyFR	1	TJ031
784.907	1.6	994201	WORD	n/a	wordpools/wordpool_EN.txt	BADGE	13.0	6	n/a	n/a	pyFR	1	TJ031
787.461	1.6	996754	WORD	n/a	wordpools/wordpool_EN.txt	VAN	14.0	6	n/a	n/a	pyFR	1	TJ031
790.149	1.6	999442	WORD	n/a	wordpools/wordpool_EN.txt	SQUARE	15.0	6	n/a	n/a	pyFR	1	TJ031
791.77	1.117	1001055	START	n/a	n/a	n/a	n/a	6	[-999 -999 -999]	-999.0	pyFR	1	TJ031
792.887	4.658	1002171	PROB	4.62	n/a	n/a	n/a	6	[7 4 6]	17.0	pyFR	1	TJ031
797.545	2.27	1006829	PROB	2.242	n/a	n/a	n/a	6	[9 1 3]	13.0	pyFR	1	TJ031
799.815	4.191	1009099	PROB	4.164	n/a	n/a	n/a	6	[4 8 5]	17.0	pyFR	1	TJ031
804.006	4.106	1013290	PROB	4.069	n/a	n/a	n/a	6	[3 1 7]	11.0	pyFR	1	TJ031
808.112	3.123	1017396	PROB	3.099	n/a	n/a	n/a	6	[9 1 6]	16.0	pyFR	1	TJ031
811.235	4.345	1020519	PROB	4.345	n/a	n/a	n/a	6	[1 3 2]	6.0	pyFR	1	TJ031
815.58	1.081	1024863	STOP	n/a	n/a	n/a	n/a	6	[-999 -999 -999]	-999.0	pyFR	1	TJ031
816.661	1.214	1025953	REC_START	n/a	n/a	n/a	-999.0	-999	n/a	n/a	pyFR	1	TJ031
817.875	0.651	1027167	REC_WORD	1.214	n/a	SQUARE	-999.0	6	n/a	n/a	pyFR	1	TJ031
818.526	4.458	1027818	REC_WORD	1.865	n/a	FOG	-999.0	6	n/a	n/a	pyFR	1	TJ031
822.984	1.712	1032276	REC_WORD	6.323	n/a	<>	-999.0	6	n/a	n/a	pyFR	1	TJ031
824.696	1.41	1033988	REC_WORD	8.035	n/a	VAN	-999.0	6	n/a	n/a	pyFR	1	TJ031
826.106	1.0	1035398	REC_WORD	9.445	n/a	<>	-999.0	6	n/a	n/a	pyFR	1	TJ031
827.106	1.0	1036398	REC_WORD	10.445	n/a	<>	-999.0	6	n/a	n/a	pyFR	1	TJ031
828.106	16.04	1037398	REC_WORD	11.445	n/a	<>	-999.0	6	n/a	n/a	pyFR	1	TJ031
844.146	3.261	1053437	REC_WORD	27.485	n/a	STORM	-999.0	6	n/a	n/a	pyFR	1	TJ031
847.407	8.132	1056698	REC_WORD	30.746	n/a	<>	-999.0	6	n/a	n/a	pyFR	1	TJ031
855.539	12.909	1064830	REC_WORD	38.878	n/a	<>	-999.0	6	n/a	n/a	pyFR	1	TJ031
868.448	0.016	1077738	TRIAL	n/a	n/a	n/a	-999.0	-999	n/a	n/a	pyFR	1	TJ031
868.464	1.6	1077754	ORIENT	n/a	n/a	n/a	-999.0	-999	n/a	n/a	pyFR	1	TJ031
871.152	1.6	1080442	WORD	n/a	wordpools/wordpool_EN.txt	HOOK	1.0	7	n/a	n/a	pyFR	1	TJ031
873.89	1.6	1083180	WORD	n/a	wordpools/wordpool_EN.txt	PURSE	2.0	7	n/a	n/a	pyFR	1	TJ031
876.495	1.6	1085785	WORD	n/a	wordpools/wordpool_EN.txt	LIP	3.0	7	n/a	n/a	pyFR	1	TJ031
878.982	1.6	1088272	WORD	n/a	wordpools/wordpool_EN.txt	LAMP	4.0	7	n/a	n/a	pyFR	1	TJ031
881.486	1.6	1090776	WORD	n/a	wordpools/wordpool_EN.txt	PEARL	5.0	7	n/a	n/a	pyFR	1	TJ031
884.074	1.6	1093364	WORD	n/a	wordpools/wordpool_EN.txt	NOSE	6.0	7	n/a	n/a	pyFR	1	TJ031
886.728	1.6	1096018	WORD	n/a	wordpools/wordpool_EN.txt	PARK	7.0	7	n/a	n/a	pyFR	1	TJ031
889.516	1.6	1098806	WORD	n/a	wordpools/wordpool_EN.txt	HORSE	8.0	7	n/a	n/a	pyFR	1	TJ031
892.037	1.6	1101326	WORD	n/a	wordpools/wordpool_EN.txt	CHIN	9.0	7	n/a	n/a	pyFR	1	TJ031
894.842	1.6	1104131	WORD	n/a	wordpools/wordpool_EN.txt	RAKE	10.0	7	n/a	n/a	pyFR	1	TJ031
897.663	1.6	1106952	WORD	n/a	wordpools/wordpool_EN.txt	MUG	11.0	7	n/a	n/a	pyFR	1	TJ031
900.451	1.6	1109740	WORD	n/a	wordpools/wordpool_EN.txt	QUEEN	12.0	7	n/a	n/a	pyFR	1	TJ031
903.239	1.6	1112528	WORD	n/a	wordpools/wordpool_EN.txt	LAKE	13.0	7	n/a	n/a	pyFR	1	TJ031
905.877	1.6	1115166	WORD	n/a	wordpools/wordpool_EN.txt	NAIL	14.0	7	n/a	n/a	pyFR	1	TJ031
908.632	1.6	1117921	WORD	n/a	wordpools/wordpool_EN.txt	PLATE	15.0	7	n/a	n/a	pyFR	1	TJ031
910.252	1.1	1119531	START	n/a	n/a	n/a	n/a	7	[-999 -999 -999]	-999.0	pyFR	1	TJ031
911.352	10.569	1120631	PROB	10.531	n/a	n/a	n/a	7	[7 9 9]	25.0	pyFR	1	TJ031
921.921	4.457	1131199	PROB	4.434	n/a	n/a	n/a	7	[5 7 3]	15.0	pyFR	1	TJ031
926.378	4.297	1135656	PROB	4.297	n/a	n/a	n/a	7	[7 8 2]	17.0	pyFR	1	TJ031
930.675	1.196	1139953	STOP	n/a	n/a	n/a	n/a	7	[-999 -999 -999]	-999.0	pyFR	1	TJ031
931.871	1.278	1141159	REC_START	n/a	n/a	n/a	-999.0	-999	n/a	n/a	pyFR	1	TJ031
933.149	0.63	1142437	REC_WORD	1.278	n/a	NOSE	-999.0	7	n/a	n/a	pyFR	1	TJ031
933.779	0.553	1143067	REC_WORD	1.908	n/a	PEARL	-999.0	7	n/a	n/a	pyFR	1	TJ031
934.332	1.0	1143620	REC_WORD	2.461	n/a	HOOK	-999.0	7	n/a	n/a	pyFR	1	TJ031
935.332	1.0	1144620	REC_WORD	3.461	n/a	<>	-999.0	7	n/a	n/a	pyFR	1	TJ031
936.332	4.186	1145620	REC_WORD	4.461	n/a	<>	-999.0	7	n/a	n/a	pyFR	1	TJ031
940.518	0.865	1149806	REC_WORD	8.647	n/a	SPARK	-999.0	7	n/a	n/a	pyFR	1	TJ031
941.383	0.598	1150671	REC_WORD	9.512	n/a	HORSE	-999.0	7	n/a	n/a	pyFR	1	TJ031
941.981	6.176	1151268	REC_WORD	10.11	n/a	CHIN	-999.0	7	n/a	n/a	pyFR	1	TJ031
948.157	10.099	1157444	REC_WORD	16.286	n/a	FOG	-999.0	7	n/a	n/a	pyFR	1	TJ031
958.256	28.491	1167543	REC_WORD	26.385	n/a	QUEEN	-999.0	7	n/a	n/a	pyFR	1	TJ031
986.747	0.016	1196033	TRIAL	n/a	n/a	n/a	-999.0	-999	n/a	n/a	pyFR	1	TJ031
986.763	1.6	1196049	ORIENT	n/a	n/a	n/a	-999.0	-999	n/a	n/a	pyFR	1	TJ031
989.435	1.6	1198721	WORD	n/a	wordpools/wordpool_EN.txt	SLIME	1.0	8	n/a	n/a	pyFR	1	TJ031
992.056	1.6	1201342	WORD	n/a	wordpools/wordpool_EN.txt	CALF	2.0	8	n/a	n/a	pyFR	1	TJ031
994.877	1.6	1204162	WORD	n/a	wordpools/wordpool_EN.txt	FLEA	3.0	8	n/a	n/a	pyFR	1	TJ031
997.365	1.6	1206650	WORD	n/a	wordpools/wordpool_EN.txt	SCHOOL	4.0	8	n/a	n/a	pyFR	1	TJ031
1000.119	1.6	1209404	WORD	n/a	wordpools/wordpool_EN.txt	OWL	5.0	8	n/a	n/a	pyFR	1	TJ031
1002.573	1.6	1211858	WORD	n/a	wordpools/wordpool_EN.txt	BARN	6.0	8	n/a	n/a	pyFR	1	TJ031
1005.344	1.6	1214629	WORD	n/a	wordpools/wordpool_EN.txt	CUP	7.0	8	n/a	n/a	pyFR	1	TJ031
1008.149	1.6	1217434	WORD	n/a	wordpools/wordpool_EN.txt	BENCH	8.0	8	n/a	n/a	pyFR	1	TJ031
1010.887	1.6	1220172	WORD	n/a	wordpools/wordpool_EN.txt	GRASS	9.0	8	n/a	n/a	pyFR	1	TJ031
1013.692	1.6	1222977	WORD	n/a	wordpools/wordpool_EN.txt	PHONE	10.0	8	n/a	n/a	pyFR	1	TJ031
1016.129	1.6	1225414	WORD	n/a	wordpools/wordpool_EN.txt	HAT	11.0	8	n/a	n/a	pyFR	1	TJ031
1018.617	1.6	1227902	WORD	n/a	wordpools/wordpool_EN.txt	RICE	12.0	8	n/a	n/a	pyFR	1	TJ031
1021.372	1.6	1230656	WORD	n/a	wordpools/wordpool_EN.txt	TREE	13.0	8	n/a	n/a	pyFR	1	TJ031
1024.043	1.6	1233327	WORD	n/a	wordpools/wordpool_EN.txt	KITE	14.0	8	n/a	n/a	pyFR	1	TJ031
1026.565	1.6	1235849	WORD	n/a	wordpools/wordpool_EN.txt	ROOT	15.0	8	n/a	n/a	pyFR	1	TJ031
1028.184	0.867	1237457	START	n/a	n/a	n/a	n/a	8	[-999 -999 -999]	-999.0	pyFR	1	TJ031
1029.051	10.985	1238324	PROB	10.96	n/a	n/a	n/a	8	[9 7 8]	24.0	pyFR	1	TJ031
1040.036	6.528	1249308	PROB	6.279	n/a	n/a	n/a	8	[1 7 9]	27.0	pyFR	1	TJ031
1046.564	6.759	1255836	PROB	6.759	n/a	n/a	n/a	8	[8 3 9]	20.0	pyFR	1	TJ031
1053.323	1.105	1262594	STOP	n/a	n/a	n/a	n/a	8	[-999 -999 -999]	-999.0	pyFR	1	TJ031
1054.428	0.783	1263711	REC_START	n/a	n/a	n/a	-999.0	-999	n/a	n/a	pyFR	1	TJ031
1055.211	0.59	1264494	REC_WORD	0.783	n/a	SLIME	-999.0	8	n/a	n/a	pyFR	1	TJ031
1055.801	1.484	1265084	REC_WORD	1.373	n/a	CALF	-999.0	8	n/a	n/a	pyFR	1	TJ031
1057.285	1.862	1266568	REC_WORD	2.857	n/a	BARN	-999.0	8	n/a	n/a	pyFR	1	TJ031
1059.147	1.201	1268430	REC_WORD	4.719	n/a	SCHOOL	-999.0	8	n/a	n/a	pyFR	1	TJ031
1060.348	6.82	1269631	REC_WORD	5.92	n/a	TREE	-999.0	8	n/a	n/a	pyFR	1	TJ031
1067.168	1.503	1276451	REC_WORD	12.74	n/a	ROOT	-999.0	8	n/a	n/a	pyFR	1	TJ031
1068.671	22.254	1277954	REC_WORD	14.243	n/a	WEED	-999.0	8	n/a	n/a	pyFR	1	TJ031
1090.925	16.475	1300207	REC_WORD	36.497	n/a	OWL	-999.0	8	n/a	n/a	pyFR	1	TJ031
1107.4	0.016	1316681	TRIAL	n/a	n/a	n/a	-999.0	-999	n/a	n/a	pyFR	1	TJ031
1107.416	1.6	1316697	ORIENT	n/a	n/a	n/a	-999.0	-999	n/a	n/a	pyFR	1	TJ031
1110.221	1.6	1319502	WORD	n/a	wordpools/wordpool_EN.txt	PIG	1.0	9	n/a	n/a	pyFR	1	TJ031
1112.959	1.6	1322240	WORD	n/a	wordpools/wordpool_EN.txt	TRAIN	2.0	9	n/a	n/a	pyFR	1	TJ031
1115.697	1.6	1324978	WORD	n/a	wordpools/wordpool_EN.txt	SUN	3.0	9	n/a	n/a	pyFR	1	TJ031
1118.168	1.6	1327449	WORD	n/a	wordpools/wordpool_EN.txt	POOL	4.0	9	n/a	n/a	pyFR	1	TJ031
1120.672	1.6	1329953	WORD	n/a	wordpools/wordpool_EN.txt	CRANE	5.0	9	n/a	n/a	pyFR	1	TJ031
1123.31	1.6	1332590	WORD	n/a	wordpools/wordpool_EN.txt	BAG	6.0	9	n/a	n/a	pyFR	1	TJ031
1125.797	1.6	1335077	WORD	n/a	wordpools/wordpool_EN.txt	SEAT	7.0	9	n/a	n/a	pyFR	1	TJ031
1128.585	1.6	1337865	WORD	n/a	wordpools/wordpool_EN.txt	SPEAR	8.0	9	n/a	n/a	pyFR	1	TJ031
1131.156	1.6	1340436	WORD	n/a	wordpools/wordpool_EN.txt	SINK	9.0	9	n/a	n/a	pyFR	1	TJ031
1133.677	1.6	1342957	WORD	n/a	wordpools/wordpool_EN.txt	SMILE	10.0	9	n/a	n/a	pyFR	1	TJ031
1136.132	1.6	1345412	WORD	n/a	wordpools/wordpool_EN.txt	TEA	11.0	9	n/a	n/a	pyFR	1	TJ031
1138.569	1.6	1347849	WORD	n/a	wordpools/wordpool_EN.txt	PLANE	12.0	9	n/a	n/a	pyFR	1	TJ031
1141.339	1.6	1350619	WORD	n/a	wordpools/wordpool_EN.txt	FENCE	13.0	9	n/a	n/a	pyFR	1	TJ031
1144.145	1.6	1353425	WORD	n/a	wordpools/wordpool_EN.txt	SLUSH	14.0	9	n/a	n/a	pyFR	1	TJ031
1146.85	1.6	1356130	WORD	n/a	wordpools/wordpool_EN.txt	CHEEK	15.0	9	n/a	n/a	pyFR	1	TJ031
1148.47	1.151	1357737	START	n/a	n/a	n/a	n/a	9	[-999 -999 -999]	-999.0	pyFR	1	TJ031
1149.621	3.772	1358887	PROB	3.742	n/a	n/a	n/a	9	[4 5 9]	18.0	pyFR	1	TJ031
1153.393	2.939	1362659	PROB	2.914	n/a	n/a	n/a	9	[7 1 9]	17.0	pyFR	1	TJ031
1156.332	4.925	1365598	PROB	4.887	n/a	n/a	n/a	9	[4 3 6]	13.0	pyFR	1	TJ031
1161.257	7.128	1370523	PROB	7.089	n/a	n/a	n/a	9	[1 3 2]	6.0	pyFR	1	TJ031
1168.385	11.338	1377651	PROB	11.338	n/a	n/a	n/a	9	[9 8 8]	25.0	pyFR	1	TJ031
1179.723	1.201	1388988	STOP	n/a	n/a	n/a	n/a	9	[-999 -999 -999]	-999.0	pyFR	1	TJ031
1180.924	1.451	1390202	REC_START	n/a	n/a	n/a	-999.0	-999	n/a	n/a	pyFR	1	TJ031
1182.375	0.398	1391653	REC_WORD	1.451	n/a	PIG	-999.0	9	n/a	n/a	pyFR	1	TJ031
1182.773	0.54	1392051	REC_WORD	1.849	n/a	TRAIN	-999.0	9	n/a	n/a	pyFR	1	TJ031
1183.313	2.181	1392591	REC_WORD	2.389	n/a	SUN	-999.0	9	n/a	n/a	pyFR	1	TJ031
1185.494	2.759	1394772	REC_WORD	4.57	n/a	<>	-999.0	9	n/a	n/a	pyFR	1	TJ031
1188.253	20.755	1397531	REC_WORD	7.329	n/a	CAR	-999.0	9	n/a	n/a	pyFR	1	TJ031
1209.008	4.59	1418285	REC_WORD	28.084	n/a	TRUCK	-999.0	9	n/a	n/a	pyFR	1	TJ031
1213.598	165.693	1422875	REC_WORD	32.674	n/a	FENCE	-999.0	9	n/a	n/a	pyFR	1	TJ031
1379.291	0.017	1588562	TRIAL	n/a	n/a	n/a	-999.0	-999	n/a	n/a	pyFR	1	TJ031
1379.308	1.6	1588579	ORIENT	n/a	n/a	n/a	-999.0	-999	n/a	n/a	pyFR	1	TJ031
1382.313	1.6	1591583	WORD	n/a	wordpools/wordpool_EN.txt	ROOM	1.0	10	n/a	n/a	pyFR	1	TJ031
1385.05	1.6	1594320	WORD	n/a	wordpools/wordpool_EN.txt	CORN	2.0	10	n/a	n/a	pyFR	1	TJ031
1387.571	1.6	1596841	WORD	n/a	wordpools/wordpool_EN.txt	HOOF	3.0	10	n/a	n/a	pyFR	1	TJ031
1390.009	1.6	1599279	WORD	n/a	wordpools/wordpool_EN.txt	HEART	4.0	10	n/a	n/a	pyFR	1	TJ031
1392.764	1.6	1602034	WORD	n/a	wordpools/wordpool_EN.txt	TANK	5.0	10	n/a	n/a	pyFR	1	TJ031
1395.485	1.6	1604755	WORD	n/a	wordpools/wordpool_EN.txt	SHIRT	6.0	10	n/a	n/a	pyFR	1	TJ031
1398.239	1.6	1607509	WORD	n/a	wordpools/wordpool_EN.txt	BOY	7.0	10	n/a	n/a	pyFR	1	TJ031
1400.81	1.6	1610080	WORD	n/a	wordpools/wordpool_EN.txt	MOTH	8.0	10	n/a	n/a	pyFR	1	TJ031
1403.632	1.6	1612902	WORD	n/a	wordpools/wordpool_EN.txt	EAR	9.0	10	n/a	n/a	pyFR	1	TJ031
1406.336	1.6	1615606	WORD	n/a	wordpools/wordpool_EN.txt	GLOVE	10.0	10	n/a	n/a	pyFR	1	TJ031
1409.124	1.6	1618393	WORD	n/a	wordpools/wordpool_EN.txt	SNOW	11.0	10	n/a	n/a	pyFR	1	TJ031
1411.946	1.6	1621215	WORD	n/a	wordpools/wordpool_EN.txt	CONE	12.0	10	n/a	n/a	pyFR	1	TJ031
1414.567	1.6	1623836	WORD	n/a	wordpools/wordpool_EN.txt	SWORD	13.0	10	n/a	n/a	pyFR	1	TJ031
1417.088	1.6	1626357	WORD	n/a	wordpools/wordpool_EN.txt	TAIL	14.0	10	n/a	n/a	pyFR	1	TJ031
1419.542	1.6	1628811	WORD	n/a	wordpools/wordpool_EN.txt	TAPE	15.0	10	n/a	n/a	pyFR	1	TJ031
1421.162	1.085	1630415	START	n/a	n/a	n/a	n/a	10	[-999 -999 -999]	-999.0	pyFR	1	TJ031
1422.247	10.868	1631500	PROB	10.844	n/a	n/a	n/a	10	[2 9 7]	18.0	pyFR	1	TJ031
1433.115	4.107	1642367	PROB	4.08	n/a	n/a	n/a	10	[7 4 7]	18.0	pyFR	1	TJ031
1437.222	3.839	1646474	PROB	3.805	n/a	n/a	n/a	10	[6 3 9]	18.0	pyFR	1	TJ031
1441.061	10.686	1650313	PROB	10.686	n/a	n/a	n/a	10	[4 4 7]	15.0	pyFR	1	TJ031
1451.747	1.101	1660998	STOP	n/a	n/a	n/a	n/a	10	[-999 -999 -999]	-999.0	pyFR	1	TJ031
1452.848	1.318	1662116	REC_START	n/a	n/a	n/a	-999.0	-999	n/a	n/a	pyFR	1	TJ031
1454.166	0.734	1663434	REC_WORD	1.318	n/a	SWORD	-999.0	10	n/a	n/a	pyFR	1	TJ031
1454.9	0.502	1664168	REC_WORD	2.052	n/a	SNOW	-999.0	10	n/a	n/a	pyFR	1	TJ031
1455.402	0.991	1664670	REC_WORD	2.554	n/a	CONE	-999.0	10	n/a	n/a	pyFR	1	TJ031
1456.393	0.625	1665661	REC_WORD	3.545	n/a	BOY	-999.0	10	n/a	n/a	pyFR	1	TJ031
1457.018	0.374	1666286	REC_WORD	4.17	n/a	TANK	-999.0	10	n/a	n/a	pyFR	1	TJ031
1457.392	1.178	1666660	REC_WORD	4.544	n/a	SHIRT	-999.0	10	n/a	n/a	pyFR	1	TJ031
1458.57	1.058	1667837	REC_WORD	5.722	n/a	<>	-999.0	10	n/a	n/a	pyFR	1	TJ031
1459.628	1.26	1668895	REC_WORD	6.78	n/a	CORN	-999.0	10	n/a	n/a	pyFR	1	TJ031
1460.888	0.946	1670155	REC_WORD	8.04	n/a	ROOM	-999.0	10	n/a	n/a	pyFR	1	TJ031
1461.834	0.594	1671101	REC_WORD	8.986	n/a	HOOF	-999.0	10	n/a	n/a	pyFR	1	TJ031
1462.428	2.367	1671695	REC_WORD	9.58	n/a	HEART	-999.0	10	n/a	n/a	pyFR	1	TJ031
1464.795	8.453	1674062	REC_WORD	11.947	n/a	<>	-999.0	10	n/a	n/a	pyFR	1	TJ031
1473.248	0.573	1682515	REC_WORD	20.4	n/a	MOTH	-999.0	10	n/a	n/a	pyFR	1	TJ031
1473.821	0.482	1683088	REC_WORD	20.973	n/a	EAR	-999.0	10	n/a	n/a	pyFR	1	TJ031
1474.303	20.78	1683570	REC_WORD	21.455	n/a	GLOVE	-999.0	10	n/a	n/a	pyFR	1	TJ031
1495.083	90.355	1704349	REC_WORD	42.235	n/a	<>	-999.0	10	n/a	n/a	pyFR	1	TJ031
1585.438	0.016	1794701	TRIAL	n/a	n/a	n/a	-999.0	-999	n/a	n/a	pyFR	1	TJ031
1585.454	1.6	1794717	ORIENT	n/a	n/a	n/a	-999.0	-999	n/a	n/a	pyFR	1	TJ031
1588.192	1.6	1797454	WORD	n/a	wordpools/wordpool_EN.txt	PIN	1.0	11	n/a	n/a	pyFR	1	TJ031
1590.63	1.6	1799892	WORD	n/a	wordpools/wordpool_EN.txt	FLOOR	2.0	11	n/a	n/a	pyFR	1	TJ031
1593.084	1.6	1802346	WORD	n/a	wordpools/wordpool_EN.txt	GUARD	3.0	11	n/a	n/a	pyFR	1	TJ031
1595.522	1.6	1804784	WORD	n/a	wordpools/wordpool_EN.txt	FACE	4.0	11	n/a	n/a	pyFR	1	TJ031
1598.009	1.6	1807271	WORD	n/a	wordpools/wordpool_EN.txt	LEG	5.0	11	n/a	n/a	pyFR	1	TJ031
1600.63	1.6	1809892	WORD	n/a	wordpools/wordpool_EN.txt	FLAG	6.0	11	n/a	n/a	pyFR	1	TJ031
1603.35	1.6	1812612	WORD	n/a	wordpools/wordpool_EN.txt	HILL	7.0	11	n/a	n/a	pyFR	1	TJ031
1606.023	1.6	1815285	WORD	n/a	wordpools/wordpool_EN.txt	CARD	8.0	11	n/a	n/a	pyFR	1	TJ031
1608.627	1.6	1817889	WORD	n/a	wordpools/wordpool_EN.txt	RAT	9.0	11	n/a	n/a	pyFR	1	TJ031
1611.198	1.6	1820460	WORD	n/a	wordpools/wordpool_EN.txt	MOOSE	10.0	11	n/a	n/a	pyFR	1	TJ031
1613.719	1.6	1822980	WORD	n/a	wordpools/wordpool_EN.txt	ZOO	11.0	11	n/a	n/a	pyFR	1	TJ031
1616.49	1.6	1825751	WORD	n/a	wordpools/wordpool_EN.txt	TRUCK	12.0	11	n/a	n/a	pyFR	1	TJ031
1619.211	1.6	1828472	WORD	n/a	wordpools/wordpool_EN.txt	POLE	13.0	11	n/a	n/a	pyFR	1	TJ031
1621.666	1.6	1830927	WORD	n/a	wordpools/wordpool_EN.txt	HAND	14.0	11	n/a	n/a	pyFR	1	TJ031
1624.32	1.6	1833581	WORD	n/a	wordpools/wordpool_EN.txt	PIPE	15.0	11	n/a	n/a	pyFR	1	TJ031
1625.94	1.051	1835182	START	n/a	n/a	n/a	n/a	11	[-999 -999 -999]	-999.0	pyFR	1	TJ031
1626.991	3.439	1836233	PROB	3.404	n/a	n/a	n/a	11	[2 1 8]	11.0	pyFR	1	TJ031
1630.43	5.225	1839672	PROB	5.189	n/a	n/a	n/a	11	[6 8 9]	23.0	pyFR	1	TJ031
1635.655	4.759	1844897	PROB	4.732	n/a	n/a	n/a	11	[7 2 4]	13.0	pyFR	1	TJ031
1640.414	3.856	1849656	PROB	3.821	n/a	n/a	n/a	11	[5 8 5]	18.0	pyFR	1	TJ031
1644.27	4.549	1853512	PROB	4.549	n/a	n/a	n/a	11	[7 5 6]	18.0	pyFR	1	TJ031
1648.819	1.145	1858060	STOP	n/a	n/a	n/a	n/a	11	[-999 -999 -999]	-999.0	pyFR	1	TJ031
1649.964	2.641	1859224	REC_START	n/a	n/a	n/a	-999.0	-999	n/a	n/a	pyFR	1	TJ031
1652.605	0.323	1861865	REC_WORD	2.641	n/a	PIN	-999.0	11	n/a	n/a	pyFR	1	TJ031
1652.928	0.741	1862188	REC_WORD	2.964	n/a	FACE	-999.0	11	n/a	n/a	pyFR	1	TJ031
1653.669	0.3	1862929	REC_WORD	3.705	n/a	LEG	-999.0	11	n/a	n/a	pyFR	1	TJ031
1653.969	1.175	1863229	REC_WORD	4.005	n/a	HILL	-999.0	11	n/a	n/a	pyFR	1	TJ031
1655.144	1.471	1864404	REC_WORD	5.18	n/a	FLOOR	-999.0	11	n/a	n/a	pyFR	1	TJ031
1656.615	0.441	1865875	REC_WORD	6.651	n/a	ZOO	-999.0	11	n/a	n/a	pyFR	1	TJ031
1657.056	0.681	1866316	REC_WORD	7.092	n/a	MOOSE	-999.0	11	n/a	n/a	pyFR	1	TJ031
1657.737	3.296	1866997	REC_WORD	7.773	n/a	RAT	-999.0	11	n/a	n/a	pyFR	1	TJ031
1661.033	10.204	1870293	REC_WORD	11.069	n/a	TRUCK	-999.0	11	n/a	n/a	pyFR	1	TJ031
1671.237	13.843	1880496	REC_WORD	21.273	n/a	FLAG	-999.0	11	n/a	n/a	pyFR	1	TJ031
1685.08	362.286	1894339	REC_WORD	35.116	n/a	<>	-999.0	11	n/a	n/a	pyFR	1	TJ031
2047.366	0.016	2256611	TRIAL	n/a	n/a	n/a	-999.0	-999	n/a	n/a	pyFR	1	TJ031
2047.382	1.6	2256627	ORIENT	n/a	n/a	n/a	-999.0	-999	n/a	n/a	pyFR	1	TJ031
2050.27	1.6	2259515	WORD	n/a	wordpools/wordpool_EN.txt	VEST	1.0	12	n/a	n/a	pyFR	1	TJ031
2053.008	1.6	2262252	WORD	n/a	wordpools/wordpool_EN.txt	MOUSE	2.0	12	n/a	n/a	pyFR	1	TJ031
2055.646	1.6	2264890	WORD	n/a	wordpools/wordpool_EN.txt	PLANT	3.0	12	n/a	n/a	pyFR	1	TJ031
2058.417	1.6	2267661	WORD	n/a	wordpools/wordpool_EN.txt	ROAD	4.0	12	n/a	n/a	pyFR	1	TJ031
2060.922	1.6	2270166	WORD	n/a	wordpools/wordpool_EN.txt	BOAT	5.0	12	n/a	n/a	pyFR	1	TJ031
2063.593	1.6	2272837	WORD	n/a	wordpools/wordpool_EN.txt	TEETH	6.0	12	n/a	n/a	pyFR	1	TJ031
2066.247	1.6	2275491	WORD	n/a	wordpools/wordpool_EN.txt	STEAK	7.0	12	n/a	n/a	pyFR	1	TJ031
2068.718	1.6	2277962	WORD	n/a	wordpools/wordpool_EN.txt	JET	8.0	12	n/a	n/a	pyFR	1	TJ031
2071.272	1.6	2280516	WORD	n/a	wordpools/wordpool_EN.txt	PRINCE	9.0	12	n/a	n/a	pyFR	1	TJ031
2073.843	1.6	2283087	WORD	n/a	wordpools/wordpool_EN.txt	FORK	10.0	12	n/a	n/a	pyFR	1	TJ031
2076.648	1.6	2285892	WORD	n/a	wordpools/wordpool_EN.txt	MOUTH	11.0	12	n/a	n/a	pyFR	1	TJ031
2079.403	1.6	2288646	WORD	n/a	wordpools/wordpool_EN.txt	MAP	12.0	12	n/a	n/a	pyFR	1	TJ031
2081.84	1.6	2291083	WORD	n/a	wordpools/wordpool_EN.txt	WING	13.0	12	n/a	n/a	pyFR	1	TJ031
2084.361	1.6	2293604	WORD	n/a	wordpools/wordpool_EN.txt	BOARD	14.0	12	n/a	n/a	pyFR	1	TJ031
2086.999	1.6	2296242	WORD	n/a	wordpools/wordpool_EN.txt	BRANCH	15.0	12	n/a	n/a	pyFR	1	TJ031
2088.619	0.984	2297838	START	n/a	n/a	n/a	n/a	12	[-999 -999 -999]	-999.0	pyFR	1	TJ031
2089.603	4.391	2298822	PROB	4.368	n/a	n/a	n/a	12	[8 7 9]	24.0	pyFR	1	TJ031
2093.994	4.958	2303213	PROB	4.921	n/a	n/a	n/a	12	[1 5 3]	9.0	pyFR	1	TJ031
2098.952	4.942	2308171	PROB	4.915	n/a	n/a	n/a	12	[7 1 8]	16.0	pyFR	1	TJ031
2103.894	4.44	2313112	PROB	4.413	n/a	n/a	n/a	12	[4 3 7]	14.0	pyFR	1	TJ031
2108.334	4.261	2317552	PROB	4.261	n/a	n/a	n/a	12	[4 7 3]	14.0	pyFR	1	TJ031
2112.595	1.066	2321813	STOP	n/a	n/a	n/a	n/a	12	[-999 -999 -999]	-999.0	pyFR	1	TJ031
2113.661	1.5	2322903	REC_START	n/a	n/a	n/a	-999.0	-999	n/a	n/a	pyFR	1	TJ031
2115.161	0.465	2324403	REC_WORD	1.5	n/a	VEST	-999.0	12	n/a	n/a	pyFR	1	TJ031
2115.626	1.801	2324868	REC_WORD	1.965	n/a	MOUSE	-999.0	12	n/a	n/a	pyFR	1	TJ031
2117.427	1.641	2326669	REC_WORD	3.766	n/a	PLANT	-999.0	12	n/a	n/a	pyFR	1	TJ031
2119.068	0.369	2328310	REC_WORD	5.407	n/a	JET	-999.0	12	n/a	n/a	pyFR	1	TJ031
2119.437	1.003	2328679	REC_WORD	5.776	n/a	WING	-999.0	12	n/a	n/a	pyFR	1	TJ031
2120.44	0.711	2329682	REC_WORD	6.779	n/a	STEAK	-999.0	12	n/a	n/a	pyFR	1	TJ031
2121.151	3.187	2330393	REC_WORD	7.49	n/a	MOUTH	-999.0	12	n/a	n/a	pyFR	1	TJ031
2124.338	20.31	2333580	REC_WORD	10.677	n/a	<>	-999.0	12	n/a	n/a	pyFR	1	TJ031
2144.648	13.757	2353889	REC_WORD	30.987	n/a	MAP	-999.0	12	n/a	n/a	pyFR	1	TJ031
2158.405	297.465	2367645	REC_WORD	44.744	n/a	<>	-999.0	12	n/a	n/a	pyFR	1	TJ031
2455.87	0.016	2665099	TRIAL	n/a	n/a	n/a	-999.0	-999	n/a	n/a	pyFR	1	TJ031
2455.886	1.6	2665115	ORIENT	n/a	n/a	n/a	-999.0	-999	n/a	n/a	pyFR	1	TJ031
2458.607	1.6	2667836	WORD	n/a	wordpools/wordpool_EN.txt	ROCK	1.0	13	n/a	n/a	pyFR	1	TJ031
2461.162	1.6	2670391	WORD	n/a	wordpools/wordpool_EN.txt	CHIEF	2.0	13	n/a	n/a	pyFR	1	TJ031
2463.75	1.6	2672979	WORD	n/a	wordpools/wordpool_EN.txt	SHIP	3.0	13	n/a	n/a	pyFR	1	TJ031
2466.287	1.6	2675515	WORD	n/a	wordpools/wordpool_EN.txt	WORM	4.0	13	n/a	n/a	pyFR	1	TJ031
2468.775	1.6	2678003	WORD	n/a	wordpools/wordpool_EN.txt	TOOL	5.0	13	n/a	n/a	pyFR	1	TJ031
2471.546	1.6	2680774	WORD	n/a	wordpools/wordpool_EN.txt	BIRD	6.0	13	n/a	n/a	pyFR	1	TJ031
2474.084	1.6	2683312	WORD	n/a	wordpools/wordpool_EN.txt	CAPE	7.0	13	n/a	n/a	pyFR	1	TJ031
2476.755	1.6	2685983	WORD	n/a	wordpools/wordpool_EN.txt	FOOT	8.0	13	n/a	n/a	pyFR	1	TJ031
2479.41	1.6	2688638	WORD	n/a	wordpools/wordpool_EN.txt	OAR	9.0	13	n/a	n/a	pyFR	1	TJ031
2481.864	1.6	2691092	WORD	n/a	wordpools/wordpool_EN.txt	TOOTH	10.0	13	n/a	n/a	pyFR	1	TJ031
2484.301	1.6	2693529	WORD	n/a	wordpools/wordpool_EN.txt	BEAK	11.0	13	n/a	n/a	pyFR	1	TJ031
2486.805	1.6	2696033	WORD	n/a	wordpools/wordpool_EN.txt	BRIDGE	12.0	13	n/a	n/a	pyFR	1	TJ031
2489.259	1.6	2698487	WORD	n/a	wordpools/wordpool_EN.txt	JAR	13.0	13	n/a	n/a	pyFR	1	TJ031
2492.064	1.6	2701291	WORD	n/a	wordpools/wordpool_EN.txt	BLOOM	14.0	13	n/a	n/a	pyFR	1	TJ031
2494.585	1.6	2703812	WORD	n/a	wordpools/wordpool_EN.txt	GOAT	15.0	13	n/a	n/a	pyFR	1	TJ031
2496.205	1.084	2705403	START	n/a	n/a	n/a	n/a	13	[-999 -999 -999]	-999.0	pyFR	1	TJ031
2497.289	5.092	2706487	PROB	5.066	n/a	n/a	n/a	13	[9 3 5]	17.0	pyFR	1	TJ031
2502.381	3.957	2711579	PROB	3.926	n/a	n/a	n/a	13	[7 3 4]	14.0	pyFR	1	TJ031
2506.338	5.559	2715536	PROB	5.521	n/a	n/a	n/a	13	[6 5 2]	13.0	pyFR	1	TJ031
2511.897	5.666	2721095	PROB	5.666	n/a	n/a	n/a	13	[4 7 7]	18.0	pyFR	1	TJ031
2517.563	1.113	2726760	STOP	n/a	n/a	n/a	n/a	13	[-999 -999 -999]	-999.0	pyFR	1	TJ031
2518.676	1.109	2727902	REC_START	n/a	n/a	n/a	-999.0	-999	n/a	n/a	pyFR	1	TJ031
2519.785	0.46	2729011	REC_WORD	1.109	n/a	BIRD	-999.0	13	n/a	n/a	pyFR	1	TJ031
2520.245	0.621	2729471	REC_WORD	1.569	n/a	BEAK	-999.0	13	n/a	n/a	pyFR	1	TJ031
2520.866	0.562	2730092	REC_WORD	2.19	n/a	BRIDGE	-999.0	13	n/a	n/a	pyFR	1	TJ031
2521.428	9.767	2730654	REC_WORD	2.752	n/a	JAR	-999.0	13	n/a	n/a	pyFR	1	TJ031
2531.195	0.931	2740421	REC_WORD	12.519	n/a	<>	-999.0	13	n/a	n/a	pyFR	1	TJ031
2532.126	0.91	2741352	REC_WORD	13.45	n/a	ROCK	-999.0	13	n/a	n/a	pyFR	1	TJ031
2533.036	1.741	2742262	REC_WORD	14.36	n/a	ROOT	-999.0	13	n/a	n/a	pyFR	1	TJ031
2534.777	4.563	2744003	REC_WORD	16.101	n/a	TRUCK	-999.0	13	n/a	n/a	pyFR	1	TJ031
2539.34	1.0	2748566	REC_WORD	20.664	n/a	<>	-999.0	13	n/a	n/a	pyFR	1	TJ031
2540.34	1.0	2749566	REC_WORD	21.664	n/a	<>	-999.0	13	n/a	n/a	pyFR	1	TJ031
2541.34	1.0	2750566	REC_WORD	22.664	n/a	<>	-999.0	13	n/a	n/a	pyFR	1	TJ031
2542.34	1.0	2751566	REC_WORD	23.664	n/a	<>	-999.0	13	n/a	n/a	pyFR	1	TJ031
2543.34	1.0	2752566	REC_WORD	24.664	n/a	<>	-999.0	13	n/a	n/a	pyFR	1	TJ031
2544.34	1.0	2753565	REC_WORD	25.664	n/a	<>	-999.0	13	n/a	n/a	pyFR	1	TJ031
2545.34	1.0	2754565	REC_WORD	26.664	n/a	<>	-999.0	13	n/a	n/a	pyFR	1	TJ031
2546.34	1.0	2755565	REC_WORD	27.664	n/a	<>	-999.0	13	n/a	n/a	pyFR	1	TJ031
2547.34	1.0	2756565	REC_WORD	28.664	n/a	<>	-999.0	13	n/a	n/a	pyFR	1	TJ031
2548.34	1.0	2757565	REC_WORD	29.664	n/a	<>	-999.0	13	n/a	n/a	pyFR	1	TJ031
2549.34	1.0	2758565	REC_WORD	30.664	n/a	<>	-999.0	13	n/a	n/a	pyFR	1	TJ031
2550.34	1.474	2759565	REC_WORD	31.664	n/a	<>	-999.0	13	n/a	n/a	pyFR	1	TJ031
2551.814	8.642	2761039	REC_WORD	33.138	n/a	<>	-999.0	13	n/a	n/a	pyFR	1	TJ031
2560.456	0.48	2769681	REC_WORD	41.78	n/a	OAR	-999.0	13	n/a	n/a	pyFR	1	TJ031
2560.936	1.655	2770161	REC_WORD	42.26	n/a	BOAT	-999.0	13	n/a	n/a	pyFR	1	TJ031
2562.591	34.918	2771816	REC_WORD	43.915	n/a	TOOTH	-999.0	13	n/a	n/a	pyFR	1	TJ031
2597.509	0.016	2806732	TRIAL	n/a	n/a	n/a	-999.0	-999	n/a	n/a	pyFR	1	TJ031
2597.525	1.6	2806748	ORIENT	n/a	n/a	n/a	-999.0	-999	n/a	n/a	pyFR	1	TJ031
2600.363	1.6	2809586	WORD	n/a	wordpools/wordpool_EN.txt	TRASH	1.0	14	n/a	n/a	pyFR	1	TJ031
2603.085	1.6	2812308	WORD	n/a	wordpools/wordpool_EN.txt	CAT	2.0	14	n/a	n/a	pyFR	1	TJ031
2605.889	1.6	2815112	WORD	n/a	wordpools/wordpool_EN.txt	SOAP	3.0	14	n/a	n/a	pyFR	1	TJ031
2608.393	1.6	2817616	WORD	n/a	wordpools/wordpool_EN.txt	PEAR	4.0	14	n/a	n/a	pyFR	1	TJ031
2610.981	1.6	2820204	WORD	n/a	wordpools/wordpool_EN.txt	GATE	5.0	14	n/a	n/a	pyFR	1	TJ031
2613.719	1.6	2822942	WORD	n/a	wordpools/wordpool_EN.txt	STOOL	6.0	14	n/a	n/a	pyFR	1	TJ031
2616.323	1.6	2825546	WORD	n/a	wordpools/wordpool_EN.txt	MULE	7.0	14	n/a	n/a	pyFR	1	TJ031
2618.928	1.6	2828151	WORD	n/a	wordpools/wordpool_EN.txt	NET	8.0	14	n/a	n/a	pyFR	1	TJ031
2621.582	1.6	2830804	WORD	n/a	wordpools/wordpool_EN.txt	FORT	9.0	14	n/a	n/a	pyFR	1	TJ031
2624.186	1.6	2833408	WORD	n/a	wordpools/wordpool_EN.txt	HEN	10.0	14	n/a	n/a	pyFR	1	TJ031
2626.974	1.6	2836196	WORD	n/a	wordpools/wordpool_EN.txt	LOCK	11.0	14	n/a	n/a	pyFR	1	TJ031
2629.579	1.6	2838801	WORD	n/a	wordpools/wordpool_EN.txt	STONE	12.0	14	n/a	n/a	pyFR	1	TJ031
2632.134	1.6	2841356	WORD	n/a	wordpools/wordpool_EN.txt	AXE	13.0	14	n/a	n/a	pyFR	1	TJ031
2634.687	1.6	2843909	WORD	n/a	wordpools/wordpool_EN.txt	PEACH	14.0	14	n/a	n/a	pyFR	1	TJ031
2637.175	1.6	2846397	WORD	n/a	wordpools/wordpool_EN.txt	INK	15.0	14	n/a	n/a	pyFR	1	TJ031
2638.796	0.883	2847987	START	n/a	n/a	n/a	n/a	14	[-999 -999 -999]	-999.0	pyFR	1	TJ031
2639.679	3.756	2848870	PROB	3.724	n/a	n/a	n/a	14	[4 3 3]	10.0	pyFR	1	TJ031
2643.435	3.857	2852626	PROB	3.824	n/a	n/a	n/a	14	[2 6 4]	12.0	pyFR	1	TJ031
2647.292	3.923	2856483	PROB	3.887	n/a	n/a	n/a	14	[6 5 2]	13.0	pyFR	1	TJ031
2651.215	4.474	2860406	PROB	4.444	n/a	n/a	n/a	14	[4 2 8]	14.0	pyFR	1	TJ031
2655.689	3.314	2864879	PROB	3.314	n/a	n/a	n/a	14	[7 6 3]	16.0	pyFR	1	TJ031
2659.003	1.078	2868193	STOP	n/a	n/a	n/a	n/a	14	[-999 -999 -999]	-999.0	pyFR	1	TJ031
2660.081	1.075	2869302	REC_START	n/a	n/a	n/a	-999.0	-999	n/a	n/a	pyFR	1	TJ031
2661.156	0.35	2870377	REC_WORD	1.075	n/a	CAT	-999.0	14	n/a	n/a	pyFR	1	TJ031
2661.506	0.602	2870727	REC_WORD	1.425	n/a	SOAP	-999.0	14	n/a	n/a	pyFR	1	TJ031
2662.108	0.942	2871329	REC_WORD	2.027	n/a	TRASH	-999.0	14	n/a	n/a	pyFR	1	TJ031
2663.05	0.611	2872271	REC_WORD	2.969	n/a	PEAR	-999.0	14	n/a	n/a	pyFR	1	TJ031
2663.661	7.285	2872882	REC_WORD	3.58	n/a	PEACH	-999.0	14	n/a	n/a	pyFR	1	TJ031
2670.946	1.158	2880167	REC_WORD	10.865	n/a	<>	-999.0	14	n/a	n/a	pyFR	1	TJ031
2672.104	0.721	2881325	REC_WORD	12.023	n/a	BRIDGE	-999.0	14	n/a	n/a	pyFR	1	TJ031
2672.825	0.388	2882045	REC_WORD	12.744	n/a	ROOT	-999.0	14	n/a	n/a	pyFR	1	TJ031
2673.213	14.35	2882433	REC_WORD	13.132	n/a	TREE	-999.0	14	n/a	n/a	pyFR	1	TJ031
2687.563	1.861	2896783	REC_WORD	27.482	n/a	HILL	-999.0	14	n/a	n/a	pyFR	1	TJ031
2689.424	4.779	2898644	REC_WORD	29.343	n/a	AXE	-999.0	14	n/a	n/a	pyFR	1	TJ031
2694.203	675.94	2903423	REC_WORD	34.122	n/a	SPEAR	-999.0	14	n/a	n/a	pyFR	1	TJ031
3370.143	0.016	3579337	TRIAL	n/a	n/a	n/a	-999.0	-999	n/a	n/a	pyFR	1	TJ031
3370.159	1.6	3579353	ORIENT	n/a	n/a	n/a	-999.0	-999	n/a	n/a	pyFR	1	TJ031
3372.796	1.6	3581989	WORD	n/a	wordpools/wordpool_EN.txt	CLIFF	1.0	15	n/a	n/a	pyFR	1	TJ031
3375.301	1.6	3584494	WORD	n/a	wordpools/wordpool_EN.txt	MILK	2.0	15	n/a	n/a	pyFR	1	TJ031
3378.122	1.6	3587315	WORD	n/a	wordpools/wordpool_EN.txt	PANTS	3.0	15	n/a	n/a	pyFR	1	TJ031
3380.593	1.6	3589786	WORD	n/a	wordpools/wordpool_EN.txt	ROSE	4.0	15	n/a	n/a	pyFR	1	TJ031
3383.415	1.6	3592608	WORD	n/a	wordpools/wordpool_EN.txt	FLUTE	5.0	15	n/a	n/a	pyFR	1	TJ031
3386.019	1.6	3595212	WORD	n/a	wordpools/wordpool_EN.txt	STRAW	6.0	15	n/a	n/a	pyFR	1	TJ031
3388.824	1.6	3598017	WORD	n/a	wordpools/wordpool_EN.txt	SHEEP	7.0	15	n/a	n/a	pyFR	1	TJ031
3391.628	1.6	3600821	WORD	n/a	wordpools/wordpool_EN.txt	SALT	8.0	15	n/a	n/a	pyFR	1	TJ031
3394.116	1.6	3603309	WORD	n/a	wordpools/wordpool_EN.txt	GOLD	9.0	15	n/a	n/a	pyFR	1	TJ031
3396.553	1.6	3605745	WORD	n/a	wordpools/wordpool_EN.txt	BOOK	10.0	15	n/a	n/a	pyFR	1	TJ031
3399.024	1.6	3608216	WORD	n/a	wordpools/wordpool_EN.txt	BRICK	11.0	15	n/a	n/a	pyFR	1	TJ031
3401.662	1.6	3610854	WORD	n/a	wordpools/wordpool_EN.txt	SHARK	12.0	15	n/a	n/a	pyFR	1	TJ031
3404.417	1.6	3613609	WORD	n/a	wordpools/wordpool_EN.txt	FOAM	13.0	15	n/a	n/a	pyFR	1	TJ031
3406.904	1.6	3616096	WORD	n/a	wordpools/wordpool_EN.txt	GRAPE	14.0	15	n/a	n/a	pyFR	1	TJ031
3409.592	1.6	3618784	WORD	n/a	wordpools/wordpool_EN.txt	COIN	15.0	15	n/a	n/a	pyFR	1	TJ031
3411.213	1.05	3620365	START	n/a	n/a	n/a	n/a	15	[-999 -999 -999]	-999.0	pyFR	1	TJ031
3412.263	4.408	3621415	PROB	4.38	n/a	n/a	n/a	15	[4 8 1]	13.0	pyFR	1	TJ031
3416.671	4.357	3625823	PROB	4.332	n/a	n/a	n/a	15	[7 2 8]	17.0	pyFR	1	TJ031
3421.028	4.273	3630180	PROB	4.239	n/a	n/a	n/a	15	[8 4 4]	16.0	pyFR	1	TJ031
3425.301	5.982	3634453	PROB	5.982	n/a	n/a	n/a	15	[5 9 2]	16.0	pyFR	1	TJ031
3431.283	1.048	3640434	STOP	n/a	n/a	n/a	n/a	15	[-999 -999 -999]	-999.0	pyFR	1	TJ031
3432.331	1.295	3641522	REC_START	n/a	n/a	n/a	-999.0	-999	n/a	n/a	pyFR	1	TJ031
3433.626	1.073	3642817	REC_WORD	1.295	n/a	<>	-999.0	15	n/a	n/a	pyFR	1	TJ031
3434.699	0.64	3643890	REC_WORD	2.368	n/a	CLIFF	-999.0	15	n/a	n/a	pyFR	1	TJ031
3435.339	0.754	3644530	REC_WORD	3.008	n/a	MILK	-999.0	15	n/a	n/a	pyFR	1	TJ031
3436.093	1.673	3645284	REC_WORD	3.762	n/a	PANTS	-999.0	15	n/a	n/a	pyFR	1	TJ031
3437.766	0.667	3646957	REC_WORD	5.435	n/a	<>	-999.0	15	n/a	n/a	pyFR	1	TJ031
3438.433	1.068	3647624	REC_WORD	6.102	n/a	SALT	-999.0	15	n/a	n/a	pyFR	1	TJ031
3439.501	2.007	3648692	REC_WORD	7.17	n/a	GOLD	-999.0	15	n/a	n/a	pyFR	1	TJ031
3441.508	1.42	3650699	REC_WORD	9.177	n/a	SHARK	-999.0	15	n/a	n/a	pyFR	1	TJ031
3442.928	30.953	3652119	REC_WORD	10.597	n/a	TEETH	-999.0	15	n/a	n/a	pyFR	1	TJ031
3473.881	0.171	3683070	REC_WORD	41.55	n/a	<>	-999.0	15	n/a	n/a	pyFR	1	TJ031
3474.052	410.807	3683241	REC_WORD	41.721	n/a	FOAM	-999.0	15	n/a	n/a	pyFR	1	TJ031
3884.859	0.016	4094033	TRIAL	n/a	n/a	n/a	-999.0	-999	n/a	n/a	pyFR	1	TJ031
3884.875	1.6	4094049	ORIENT	n/a	n/a	n/a	-999.0	-999	n/a	n/a	pyFR	1	TJ031
3887.697	1.6	4096870	WORD	n/a	wordpools/wordpool_EN.txt	HOUSE	1.0	16	n/a	n/a	pyFR	1	TJ031
3890.469	1.6	4099642	WORD	n/a	wordpools/wordpool_EN.txt	ARK	2.0	16	n/a	n/a	pyFR	1	TJ031
3893.223	1.6	4102396	WORD	n/a	wordpools/wordpool_EN.txt	HAWK	3.0	16	n/a	n/a	pyFR	1	TJ031
3896.011	1.6	4105184	WORD	n/a	wordpools/wordpool_EN.txt	WOOD	4.0	16	n/a	n/a	pyFR	1	TJ031
3898.799	1.6	4107972	WORD	n/a	wordpools/wordpool_EN.txt	SUIT	5.0	16	n/a	n/a	pyFR	1	TJ031
3901.487	1.6	4110660	WORD	n/a	wordpools/wordpool_EN.txt	FISH	6.0	16	n/a	n/a	pyFR	1	TJ031
3904.241	1.6	4113414	WORD	n/a	wordpools/wordpool_EN.txt	ELF	7.0	16	n/a	n/a	pyFR	1	TJ031
3906.695	1.6	4115868	WORD	n/a	wordpools/wordpool_EN.txt	FOOD	8.0	16	n/a	n/a	pyFR	1	TJ031
3909.416	1.6	4118589	WORD	n/a	wordpools/wordpool_EN.txt	CHAIR	9.0	16	n/a	n/a	pyFR	1	TJ031
3911.888	1.6	4121061	WORD	n/a	wordpools/wordpool_EN.txt	FARM	10.0	16	n/a	n/a	pyFR	1	TJ031
3914.375	1.6	4123547	WORD	n/a	wordpools/wordpool_EN.txt	CLOCK	11.0	16	n/a	n/a	pyFR	1	TJ031
3917.163	1.6	4126335	WORD	n/a	wordpools/wordpool_EN.txt	THUMB	12.0	16	n/a	n/a	pyFR	1	TJ031
3919.817	1.6	4128989	WORD	n/a	wordpools/wordpool_EN.txt	BOMB	13.0	16	n/a	n/a	pyFR	1	TJ031
3922.439	1.6	4131611	WORD	n/a	wordpools/wordpool_EN.txt	STEAM	14.0	16	n/a	n/a	pyFR	1	TJ031
3925.243	1.6	4134415	WORD	n/a	wordpools/wordpool_EN.txt	APE	15.0	16	n/a	n/a	pyFR	1	TJ031
3926.864	1.201	4135990	START	n/a	n/a	n/a	n/a	16	[-999 -999 -999]	-999.0	pyFR	1	TJ031
3928.065	5.125	4137191	PROB	5.09	n/a	n/a	n/a	16	[1 1 2]	4.0	pyFR	1	TJ031
3933.19	7.195	4142316	PROB	7.165	n/a	n/a	n/a	16	[5 9 7]	21.0	pyFR	1	TJ031
3940.385	5.56	4149511	PROB	5.522	n/a	n/a	n/a	16	[9 5 6]	20.0	pyFR	1	TJ031
3945.945	4.642	4155070	PROB	4.642	n/a	n/a	n/a	16	[4 5 3]	12.0	pyFR	1	TJ031
3950.587	1.184	4159712	STOP	n/a	n/a	n/a	n/a	16	[-999 -999 -999]	-999.0	pyFR	1	TJ031
3951.771	1.012	4160942	REC_START	n/a	n/a	n/a	-999.0	-999	n/a	n/a	pyFR	1	TJ031
3952.783	0.681	4161954	REC_WORD	1.012	n/a	HOUSE	-999.0	16	n/a	n/a	pyFR	1	TJ031
3953.464	3.815	4162635	REC_WORD	1.693	n/a	ARK	-999.0	16	n/a	n/a	pyFR	1	TJ031
3957.279	5.849	4166450	REC_WORD	5.508	n/a	OAR	-999.0	16	n/a	n/a	pyFR	1	TJ031
3963.128	7.762	4172299	REC_WORD	11.357	n/a	HAWK	-999.0	16	n/a	n/a	pyFR	1	TJ031
3970.89	3.155	4180060	REC_WORD	19.119	n/a	FISH	-999.0	16	n/a	n/a	pyFR	1	TJ031
3974.045	480.608	4183215	REC_WORD	22.274	n/a	HOUSE	-999.0	16	n/a	n/a	pyFR	1	TJ031
4454.653	0.069	4663805	SESS_END	n/a	n/a	n/a	-999.0	-999	n/a	n/a	pyFR	1	TJ031
4454.722	0.0	4663874	E	n/a	n/a	n/a	-999.0	-999	n/a	n/a	pyFR	1	TJ031
