onset	duration	sample	trial_type	response_time	stim_file	item_name	serialpos	list	test	answer	experiment	session	subject
0.0	0.001	77347	B	n/a	n/a	n/a	-999	-999	n/a	n/a	pyFR	3	TJ013
0.001	29.651	77347	SESS_START	n/a	n/a	n/a	-999	-999	n/a	n/a	pyFR	3	TJ013
29.652	0.025	89207	START	n/a	n/a	n/a	n/a	0	[-999 -999 -999]	-999	pyFR	3	TJ013
29.677	3.523	89217	PROB	n/a	n/a	n/a	n/a	0	[7 6 3]	16	pyFR	3	TJ013
33.2	2.755	90626	PROB	n/a	n/a	n/a	n/a	0	[9 1 9]	19	pyFR	3	TJ013
35.955	3.039	91728	PROB	n/a	n/a	n/a	n/a	0	[6 5 6]	17	pyFR	3	TJ013
38.994	2.521	92944	PROB	n/a	n/a	n/a	n/a	0	[8 6 6]	20	pyFR	3	TJ013
41.515	2.872	93952	PROB	n/a	n/a	n/a	n/a	0	[3 1 5]	9	pyFR	3	TJ013
44.387	2.972	95101	PROB	n/a	n/a	n/a	n/a	0	[7 9 1]	17	pyFR	3	TJ013
47.359	2.939	96290	PROB	n/a	n/a	n/a	n/a	0	[5 6 4]	15	pyFR	3	TJ013
50.298	5.526	97465	PROB	n/a	n/a	n/a	n/a	0	[3 9 5]	117	pyFR	3	TJ013
55.824	4.571	99676	PROB	n/a	n/a	n/a	n/a	0	[4 6 6]	16	pyFR	3	TJ013
60.395	25.152	101504	STOP	n/a	n/a	n/a	n/a	0	[-999 -999 -999]	-999	pyFR	3	TJ013
85.547	0.015	111564	TRIAL	n/a	n/a	n/a	-999	-999	n/a	n/a	pyFR	3	TJ013
85.562	2.939	111570	ORIENT	n/a	n/a	n/a	-999	-999	n/a	n/a	pyFR	3	TJ013
88.501	2.755	112746	WORD	n/a	wordpools/wordpool_EN.txt	WOLF	1	1	n/a	n/a	pyFR	3	TJ013
91.256	2.722	113848	WORD	n/a	wordpools/wordpool_EN.txt	MOOSE	2	1	n/a	n/a	pyFR	3	TJ013
93.978	2.655	114937	WORD	n/a	wordpools/wordpool_EN.txt	CUBE	3	1	n/a	n/a	pyFR	3	TJ013
96.633	2.838	115999	WORD	n/a	wordpools/wordpool_EN.txt	FOG	4	1	n/a	n/a	pyFR	3	TJ013
99.471	2.705	117134	WORD	n/a	wordpools/wordpool_EN.txt	GLOVE	5	1	n/a	n/a	pyFR	3	TJ013
102.176	2.805	118216	WORD	n/a	wordpools/wordpool_EN.txt	WHALE	6	1	n/a	n/a	pyFR	3	TJ013
104.981	2.589	119338	WORD	n/a	wordpools/wordpool_EN.txt	PANTS	7	1	n/a	n/a	pyFR	3	TJ013
107.57	2.705	120373	WORD	n/a	wordpools/wordpool_EN.txt	ROOT	8	1	n/a	n/a	pyFR	3	TJ013
110.275	2.755	121455	WORD	n/a	wordpools/wordpool_EN.txt	FARM	9	1	n/a	n/a	pyFR	3	TJ013
113.03	2.538	122557	WORD	n/a	wordpools/wordpool_EN.txt	THREAD	10	1	n/a	n/a	pyFR	3	TJ013
115.568	2.721	123572	WORD	n/a	wordpools/wordpool_EN.txt	GATE	11	1	n/a	n/a	pyFR	3	TJ013
118.289	2.805	124661	WORD	n/a	wordpools/wordpool_EN.txt	BOOK	12	1	n/a	n/a	pyFR	3	TJ013
121.094	2.472	125783	WORD	n/a	wordpools/wordpool_EN.txt	CALF	13	1	n/a	n/a	pyFR	3	TJ013
123.566	2.538	126771	WORD	n/a	wordpools/wordpool_EN.txt	MAP	14	1	n/a	n/a	pyFR	3	TJ013
126.104	1.605	127787	WORD	n/a	wordpools/wordpool_EN.txt	STREET	15	1	n/a	n/a	pyFR	3	TJ013
127.709	0.866	128429	START	n/a	n/a	n/a	n/a	1	[-999 -999 -999]	-999	pyFR	3	TJ013
128.575	4.225	128775	PROB	n/a	n/a	n/a	n/a	1	[5 6 1]	12	pyFR	3	TJ013
132.8	3.856	130465	PROB	n/a	n/a	n/a	n/a	1	[2 1 7]	10	pyFR	3	TJ013
136.656	2.672	132007	PROB	n/a	n/a	n/a	n/a	1	[8 4 6]	18	pyFR	3	TJ013
139.328	3.005	133076	PROB	n/a	n/a	n/a	n/a	1	[4 9 5]	18	pyFR	3	TJ013
142.333	2.439	134278	PROB	n/a	n/a	n/a	n/a	1	[1 8 1]	10	pyFR	3	TJ013
144.772	2.654	135254	PROB	n/a	n/a	n/a	n/a	1	[2 4 8]	14	pyFR	3	TJ013
147.426	2.121	136315	PROB	n/a	n/a	n/a	n/a	1	[1 3 9]	13	pyFR	3	TJ013
149.547	1.251	137164	STOP	n/a	n/a	n/a	n/a	1	[-999 -999 -999]	-999	pyFR	3	TJ013
150.798	3.132	137664	REC_START	n/a	n/a	n/a	-999	-999	n/a	n/a	pyFR	3	TJ013
153.93	0.57	138917	REC_WORD	0.57	n/a	WOLF	-999	1	n/a	n/a	pyFR	3	TJ013
154.5	2.142	139145	REC_WORD	2.142	n/a	MOOSE	-999	1	n/a	n/a	pyFR	3	TJ013
156.642	4.803	140001	REC_WORD	4.803	n/a	FARM	-999	1	n/a	n/a	pyFR	3	TJ013
161.445	0.368	141923	REC_WORD	0.368	n/a	WOLF	-999	1	n/a	n/a	pyFR	3	TJ013
161.813	1.635	142070	REC_WORD_VV	1.635	n/a	VV	-999	1	n/a	n/a	pyFR	3	TJ013
163.448	0.589	142724	REC_WORD	0.589	n/a	MOOSE	-999	1	n/a	n/a	pyFR	3	TJ013
164.037	2.775	142959	REC_WORD	2.775	n/a	FARM	-999	1	n/a	n/a	pyFR	3	TJ013
166.812	4.308	144069	REC_WORD	4.308	n/a	THREAD	-999	1	n/a	n/a	pyFR	3	TJ013
171.12	1.457	145792	REC_WORD_VV	1.457	n/a	VV	-999	1	n/a	n/a	pyFR	3	TJ013
172.577	6.856	146375	REC_WORD	6.856	n/a	BOOK	-999	1	n/a	n/a	pyFR	3	TJ013
179.433	4.99	149118	REC_WORD	4.99	n/a	BOOK	-999	1	n/a	n/a	pyFR	3	TJ013
184.423	0.23	151113	REC_WORD	0.23	n/a	MOOSE	-999	1	n/a	n/a	pyFR	3	TJ013
184.653	0.473	151205	REC_WORD	0.473	n/a	THREAD	-999	1	n/a	n/a	pyFR	3	TJ013
185.126	18.387	151395	REC_WORD	18.387	n/a	FARM	-999	1	n/a	n/a	pyFR	3	TJ013
203.513	0.016	158749	TRIAL	n/a	n/a	n/a	-999	-999	n/a	n/a	pyFR	3	TJ013
203.529	2.889	158756	ORIENT	n/a	n/a	n/a	-999	-999	n/a	n/a	pyFR	3	TJ013
206.418	2.822	159911	WORD	n/a	wordpools/wordpool_EN.txt	CAT	1	2	n/a	n/a	pyFR	3	TJ013
209.24	2.805	161040	WORD	n/a	wordpools/wordpool_EN.txt	KEY	2	2	n/a	n/a	pyFR	3	TJ013
212.045	2.438	162162	WORD	n/a	wordpools/wordpool_EN.txt	BEACH	3	2	n/a	n/a	pyFR	3	TJ013
214.483	2.488	163137	WORD	n/a	wordpools/wordpool_EN.txt	FENCE	4	2	n/a	n/a	pyFR	3	TJ013
216.971	2.488	164132	WORD	n/a	wordpools/wordpool_EN.txt	STAR	5	2	n/a	n/a	pyFR	3	TJ013
219.459	2.671	165127	WORD	n/a	wordpools/wordpool_EN.txt	STEAM	6	2	n/a	n/a	pyFR	3	TJ013
222.13	2.572	166196	WORD	n/a	wordpools/wordpool_EN.txt	MOON	7	2	n/a	n/a	pyFR	3	TJ013
224.702	2.688	167225	WORD	n/a	wordpools/wordpool_EN.txt	PEARL	8	2	n/a	n/a	pyFR	3	TJ013
227.39	2.471	168300	WORD	n/a	wordpools/wordpool_EN.txt	SPONGE	9	2	n/a	n/a	pyFR	3	TJ013
229.861	2.555	169288	WORD	n/a	wordpools/wordpool_EN.txt	PURSE	10	2	n/a	n/a	pyFR	3	TJ013
232.416	2.738	170310	WORD	n/a	wordpools/wordpool_EN.txt	BOWL	11	2	n/a	n/a	pyFR	3	TJ013
235.154	2.505	171405	WORD	n/a	wordpools/wordpool_EN.txt	SEA	12	2	n/a	n/a	pyFR	3	TJ013
237.659	2.554	172407	WORD	n/a	wordpools/wordpool_EN.txt	MOLE	13	2	n/a	n/a	pyFR	3	TJ013
240.213	2.655	173429	WORD	n/a	wordpools/wordpool_EN.txt	WOOD	14	2	n/a	n/a	pyFR	3	TJ013
242.868	1.605	174491	WORD	n/a	wordpools/wordpool_EN.txt	JAIL	15	2	n/a	n/a	pyFR	3	TJ013
244.473	1.117	175133	START	n/a	n/a	n/a	n/a	2	[-999 -999 -999]	-999	pyFR	3	TJ013
245.59	4.324	175579	PROB	n/a	n/a	n/a	n/a	2	[1 2 9]	12	pyFR	3	TJ013
249.914	3.023	177309	PROB	n/a	n/a	n/a	n/a	2	[6 9 1]	16	pyFR	3	TJ013
252.937	2.354	178518	PROB	n/a	n/a	n/a	n/a	2	[5 6 6]	17	pyFR	3	TJ013
255.291	2.788	179460	PROB	n/a	n/a	n/a	n/a	2	[6 2 4]	12	pyFR	3	TJ013
258.079	2.071	180575	PROB	n/a	n/a	n/a	n/a	2	[9 9 4]	22	pyFR	3	TJ013
260.15	3.039	181403	PROB	n/a	n/a	n/a	n/a	2	[4 7 7]	18	pyFR	3	TJ013
263.189	3.438	182619	PROB	n/a	n/a	n/a	n/a	2	[2 7 9]	18	pyFR	3	TJ013
266.627	1.172	183994	STOP	n/a	n/a	n/a	n/a	2	[-999 -999 -999]	-999	pyFR	3	TJ013
267.799	3.432	184463	REC_START	n/a	n/a	n/a	-999	-999	n/a	n/a	pyFR	3	TJ013
271.231	0.582	185836	REC_WORD	0.582	n/a	CAT	-999	2	n/a	n/a	pyFR	3	TJ013
271.813	5.272	186068	REC_WORD	5.272	n/a	KEY	-999	2	n/a	n/a	pyFR	3	TJ013
277.085	0.413	188177	REC_WORD	0.413	n/a	CAT	-999	2	n/a	n/a	pyFR	3	TJ013
277.498	0.58	188342	REC_WORD	0.58	n/a	KEY	-999	2	n/a	n/a	pyFR	3	TJ013
278.078	3.454	188574	REC_WORD	3.454	n/a	PEARL	-999	2	n/a	n/a	pyFR	3	TJ013
281.532	7.285	189956	REC_WORD_VV	7.285	n/a	VV	-999	2	n/a	n/a	pyFR	3	TJ013
288.817	1.93	192870	REC_WORD	1.93	n/a	PEARL	-999	2	n/a	n/a	pyFR	3	TJ013
290.747	0.575	193642	REC_WORD	0.575	n/a	MOON	-999	2	n/a	n/a	pyFR	3	TJ013
291.322	3.803	193872	REC_WORD	3.803	n/a	STAR	-999	2	n/a	n/a	pyFR	3	TJ013
295.125	1.795	195393	REC_WORD	1.795	n/a	MOLE	-999	2	n/a	n/a	pyFR	3	TJ013
296.92	2.651	196111	REC_WORD	2.651	n/a	BOWL	-999	2	n/a	n/a	pyFR	3	TJ013
299.571	2.871	197171	REC_WORD_VV	2.871	n/a	VV	-999	2	n/a	n/a	pyFR	3	TJ013
302.442	13.879	198320	REC_WORD	13.879	n/a	FENCE	-999	2	n/a	n/a	pyFR	3	TJ013
316.321	0.015	203871	TRIAL	n/a	n/a	n/a	-999	-999	n/a	n/a	pyFR	3	TJ013
316.336	2.772	203877	ORIENT	n/a	n/a	n/a	-999	-999	n/a	n/a	pyFR	3	TJ013
319.108	2.438	204986	WORD	n/a	wordpools/wordpool_EN.txt	SLIME	1	3	n/a	n/a	pyFR	3	TJ013
321.546	2.655	205961	WORD	n/a	wordpools/wordpool_EN.txt	OAR	2	3	n/a	n/a	pyFR	3	TJ013
324.201	2.572	207023	WORD	n/a	wordpools/wordpool_EN.txt	PLANT	3	3	n/a	n/a	pyFR	3	TJ013
326.773	2.621	208052	WORD	n/a	wordpools/wordpool_EN.txt	NAIL	4	3	n/a	n/a	pyFR	3	TJ013
329.394	2.454	209100	WORD	n/a	wordpools/wordpool_EN.txt	LOCK	5	3	n/a	n/a	pyFR	3	TJ013
331.848	2.488	210082	WORD	n/a	wordpools/wordpool_EN.txt	DIME	6	3	n/a	n/a	pyFR	3	TJ013
334.336	2.772	211077	WORD	n/a	wordpools/wordpool_EN.txt	BANK	7	3	n/a	n/a	pyFR	3	TJ013
337.108	2.589	212185	WORD	n/a	wordpools/wordpool_EN.txt	GRASS	8	3	n/a	n/a	pyFR	3	TJ013
339.697	2.754	213221	WORD	n/a	wordpools/wordpool_EN.txt	SMILE	9	3	n/a	n/a	pyFR	3	TJ013
342.451	2.572	214323	WORD	n/a	wordpools/wordpool_EN.txt	PEN	10	3	n/a	n/a	pyFR	3	TJ013
345.023	2.772	215351	WORD	n/a	wordpools/wordpool_EN.txt	SHRIMP	11	3	n/a	n/a	pyFR	3	TJ013
347.795	2.504	216460	WORD	n/a	wordpools/wordpool_EN.txt	BRICK	12	3	n/a	n/a	pyFR	3	TJ013
350.299	2.621	217462	WORD	n/a	wordpools/wordpool_EN.txt	QUEEN	13	3	n/a	n/a	pyFR	3	TJ013
352.92	2.638	218510	WORD	n/a	wordpools/wordpool_EN.txt	STRAW	14	3	n/a	n/a	pyFR	3	TJ013
355.558	1.622	219565	WORD	n/a	wordpools/wordpool_EN.txt	ROCK	15	3	n/a	n/a	pyFR	3	TJ013
357.18	0.85	220214	START	n/a	n/a	n/a	n/a	3	[-999 -999 -999]	-999	pyFR	3	TJ013
358.03	3.489	220554	PROB	n/a	n/a	n/a	n/a	3	[8 5 2]	15	pyFR	3	TJ013
361.519	2.806	221950	PROB	n/a	n/a	n/a	n/a	3	[7 3 6]	16	pyFR	3	TJ013
364.325	2.438	223072	PROB	n/a	n/a	n/a	n/a	3	[6 3 3]	12	pyFR	3	TJ013
366.763	3.556	224047	PROB	n/a	n/a	n/a	n/a	3	[7 5 4]	16	pyFR	3	TJ013
370.319	4.392	225469	PROB	n/a	n/a	n/a	n/a	3	[4 2 2]	8	pyFR	3	TJ013
374.711	2.74	227226	PROB	n/a	n/a	n/a	n/a	3	[6 2 7]	15	pyFR	3	TJ013
377.451	1.134	228322	STOP	n/a	n/a	n/a	n/a	3	[-999 -999 -999]	-999	pyFR	3	TJ013
378.585	2.669	228776	REC_START	n/a	n/a	n/a	-999	-999	n/a	n/a	pyFR	3	TJ013
381.254	0.509	229843	REC_WORD	0.509	n/a	SLIME	-999	3	n/a	n/a	pyFR	3	TJ013
381.763	0.624	230047	REC_WORD	0.624	n/a	SMILE	-999	3	n/a	n/a	pyFR	3	TJ013
382.387	1.943	230296	REC_WORD	1.943	n/a	SNAIL	-999	3	n/a	n/a	pyFR	3	TJ013
384.33	4.124	231074	REC_WORD_VV	4.124	n/a	VV	-999	3	n/a	n/a	pyFR	3	TJ013
388.454	5.093	232723	REC_WORD	5.093	n/a	DIME	-999	3	n/a	n/a	pyFR	3	TJ013
393.547	3.651	234760	REC_WORD_VV	3.651	n/a	VV	-999	3	n/a	n/a	pyFR	3	TJ013
397.198	4.2	236221	REC_WORD	4.2	n/a	OAR	-999	3	n/a	n/a	pyFR	3	TJ013
401.398	8.261	237901	REC_WORD_VV	8.261	n/a	VV	-999	3	n/a	n/a	pyFR	3	TJ013
409.659	15.963	241205	REC_WORD	15.963	n/a	OAR	-999	3	n/a	n/a	pyFR	3	TJ013
425.622	0.015	247590	TRIAL	n/a	n/a	n/a	-999	-999	n/a	n/a	pyFR	3	TJ013
425.637	2.755	247596	ORIENT	n/a	n/a	n/a	-999	-999	n/a	n/a	pyFR	3	TJ013
428.392	2.605	248698	WORD	n/a	wordpools/wordpool_EN.txt	VAN	1	4	n/a	n/a	pyFR	3	TJ013
430.997	2.605	249740	WORD	n/a	wordpools/wordpool_EN.txt	BIRD	2	4	n/a	n/a	pyFR	3	TJ013
433.602	2.705	250782	WORD	n/a	wordpools/wordpool_EN.txt	SPOON	3	4	n/a	n/a	pyFR	3	TJ013
436.307	2.822	251864	WORD	n/a	wordpools/wordpool_EN.txt	INK	4	4	n/a	n/a	pyFR	3	TJ013
439.129	2.504	252993	WORD	n/a	wordpools/wordpool_EN.txt	SHIELD	5	4	n/a	n/a	pyFR	3	TJ013
441.633	2.722	253994	WORD	n/a	wordpools/wordpool_EN.txt	WEED	6	4	n/a	n/a	pyFR	3	TJ013
444.355	2.471	255083	WORD	n/a	wordpools/wordpool_EN.txt	ICE	7	4	n/a	n/a	pyFR	3	TJ013
446.826	2.505	256071	WORD	n/a	wordpools/wordpool_EN.txt	PET	8	4	n/a	n/a	pyFR	3	TJ013
449.331	2.705	257073	WORD	n/a	wordpools/wordpool_EN.txt	BAG	9	4	n/a	n/a	pyFR	3	TJ013
452.036	2.471	258155	WORD	n/a	wordpools/wordpool_EN.txt	FLOOR	10	4	n/a	n/a	pyFR	3	TJ013
454.507	2.705	259144	WORD	n/a	wordpools/wordpool_EN.txt	RAIN	11	4	n/a	n/a	pyFR	3	TJ013
457.212	2.454	260225	WORD	n/a	wordpools/wordpool_EN.txt	SUN	12	4	n/a	n/a	pyFR	3	TJ013
459.666	2.756	261207	WORD	n/a	wordpools/wordpool_EN.txt	COAT	13	4	n/a	n/a	pyFR	3	TJ013
462.422	2.554	262309	WORD	n/a	wordpools/wordpool_EN.txt	MAIL	14	4	n/a	n/a	pyFR	3	TJ013
464.976	1.605	263331	WORD	n/a	wordpools/wordpool_EN.txt	SLEEVE	15	4	n/a	n/a	pyFR	3	TJ013
466.581	1.0	263973	START	n/a	n/a	n/a	n/a	4	[-999 -999 -999]	-999	pyFR	3	TJ013
467.581	2.254	264373	PROB	n/a	n/a	n/a	n/a	4	[6 4 1]	11	pyFR	3	TJ013
469.835	2.638	265275	PROB	n/a	n/a	n/a	n/a	4	[5 9 9]	23	pyFR	3	TJ013
472.473	1.82	266330	PROB	n/a	n/a	n/a	n/a	4	[2 4 5]	11	pyFR	3	TJ013
474.293	3.74	267058	PROB	n/a	n/a	n/a	n/a	4	[6 3 6]	15	pyFR	3	TJ013
478.033	1.854	268554	PROB	n/a	n/a	n/a	n/a	4	[2 5 4]	11	pyFR	3	TJ013
479.887	3.089	269295	PROB	n/a	n/a	n/a	n/a	4	[7 9 3]	19	pyFR	3	TJ013
482.976	3.005	270531	PROB	n/a	n/a	n/a	n/a	4	[7 9 1]	17	pyFR	3	TJ013
485.981	3.39	271733	PROB	n/a	n/a	n/a	n/a	4	[6 7 8]	21	pyFR	3	TJ013
489.371	1.203	273089	STOP	n/a	n/a	n/a	n/a	4	[-999 -999 -999]	-999	pyFR	3	TJ013
490.574	2.745	273570	REC_START	n/a	n/a	n/a	-999	-999	n/a	n/a	pyFR	3	TJ013
493.319	0.549	274668	REC_WORD_VV	0.549	n/a	VV	-999	4	n/a	n/a	pyFR	3	TJ013
493.868	0.53	274887	REC_WORD	0.53	n/a	BIRD	-999	4	n/a	n/a	pyFR	3	TJ013
494.398	2.668	275099	REC_WORD	2.668	n/a	INK	-999	4	n/a	n/a	pyFR	3	TJ013
497.066	4.039	276167	REC_WORD_VV	4.039	n/a	VV	-999	4	n/a	n/a	pyFR	3	TJ013
501.105	0.339	277782	REC_WORD	0.339	n/a	BIRD	-999	4	n/a	n/a	pyFR	3	TJ013
501.444	0.569	277918	REC_WORD	0.569	n/a	INK	-999	4	n/a	n/a	pyFR	3	TJ013
502.013	1.413	278145	REC_WORD	1.413	n/a	SMILE	-999	4	n/a	n/a	pyFR	3	TJ013
503.426	2.725	278710	REC_WORD_VV	2.725	n/a	VV	-999	4	n/a	n/a	pyFR	3	TJ013
506.151	3.658	279800	REC_WORD_VV	3.658	n/a	VV	-999	4	n/a	n/a	pyFR	3	TJ013
509.809	2.979	281264	REC_WORD	2.979	n/a	PEN	-999	4	n/a	n/a	pyFR	3	TJ013
512.788	4.055	282455	REC_WORD_VV	4.055	n/a	VV	-999	4	n/a	n/a	pyFR	3	TJ013
516.843	4.272	284077	REC_WORD	4.272	n/a	PET	-999	4	n/a	n/a	pyFR	3	TJ013
521.115	25.729	285786	REC_WORD_VV	25.729	n/a	VV	-999	4	n/a	n/a	pyFR	3	TJ013
546.844	0.016	296077	TRIAL	n/a	n/a	n/a	-999	-999	n/a	n/a	pyFR	3	TJ013
546.86	2.94	296083	ORIENT	n/a	n/a	n/a	-999	-999	n/a	n/a	pyFR	3	TJ013
549.8	2.487	297259	WORD	n/a	wordpools/wordpool_EN.txt	VASE	1	5	n/a	n/a	pyFR	3	TJ013
552.287	2.472	298254	WORD	n/a	wordpools/wordpool_EN.txt	POLE	2	5	n/a	n/a	pyFR	3	TJ013
554.759	2.587	299243	WORD	n/a	wordpools/wordpool_EN.txt	CART	3	5	n/a	n/a	pyFR	3	TJ013
557.346	2.422	300278	WORD	n/a	wordpools/wordpool_EN.txt	WALL	4	5	n/a	n/a	pyFR	3	TJ013
559.768	2.554	301247	WORD	n/a	wordpools/wordpool_EN.txt	LAKE	5	5	n/a	n/a	pyFR	3	TJ013
562.322	2.472	302268	WORD	n/a	wordpools/wordpool_EN.txt	STONE	6	5	n/a	n/a	pyFR	3	TJ013
564.794	2.687	303257	WORD	n/a	wordpools/wordpool_EN.txt	ROOF	7	5	n/a	n/a	pyFR	3	TJ013
567.481	2.605	304332	WORD	n/a	wordpools/wordpool_EN.txt	SHARK	8	5	n/a	n/a	pyFR	3	TJ013
570.086	2.722	305374	WORD	n/a	wordpools/wordpool_EN.txt	PIN	9	5	n/a	n/a	pyFR	3	TJ013
572.808	2.504	306462	WORD	n/a	wordpools/wordpool_EN.txt	SIGN	10	5	n/a	n/a	pyFR	3	TJ013
575.312	2.522	307464	WORD	n/a	wordpools/wordpool_EN.txt	COW	11	5	n/a	n/a	pyFR	3	TJ013
577.834	2.721	308473	WORD	n/a	wordpools/wordpool_EN.txt	MOUTH	12	5	n/a	n/a	pyFR	3	TJ013
580.555	2.622	309561	WORD	n/a	wordpools/wordpool_EN.txt	SEED	13	5	n/a	n/a	pyFR	3	TJ013
583.177	2.622	310610	WORD	n/a	wordpools/wordpool_EN.txt	DART	14	5	n/a	n/a	pyFR	3	TJ013
585.799	1.62	311659	WORD	n/a	wordpools/wordpool_EN.txt	BOOT	15	5	n/a	n/a	pyFR	3	TJ013
587.419	1.051	312307	START	n/a	n/a	n/a	n/a	5	[-999 -999 -999]	-999	pyFR	3	TJ013
588.47	3.072	312727	PROB	n/a	n/a	n/a	n/a	5	[7 5 9]	21	pyFR	3	TJ013
591.542	2.688	313956	PROB	n/a	n/a	n/a	n/a	5	[8 5 5]	18	pyFR	3	TJ013
594.23	2.939	315031	PROB	n/a	n/a	n/a	n/a	5	[7 8 4]	19	pyFR	3	TJ013
597.169	3.49	316206	PROB	n/a	n/a	n/a	n/a	5	[9 6 2]	17	pyFR	3	TJ013
600.659	2.972	317602	PROB	n/a	n/a	n/a	n/a	5	[8 6 1]	15	pyFR	3	TJ013
603.631	2.838	318791	PROB	n/a	n/a	n/a	n/a	5	[6 9 2]	17	pyFR	3	TJ013
606.469	3.231	319926	PROB	n/a	n/a	n/a	n/a	5	[5 2 8]	15	pyFR	3	TJ013
609.7	1.145	321219	STOP	n/a	n/a	n/a	n/a	5	[-999 -999 -999]	-999	pyFR	3	TJ013
610.845	1.827	321677	REC_START	n/a	n/a	n/a	-999	-999	n/a	n/a	pyFR	3	TJ013
612.672	0.58	322407	REC_WORD	0.58	n/a	POLE	-999	5	n/a	n/a	pyFR	3	TJ013
613.252	1.099	322639	REC_WORD	1.099	n/a	BOOT	-999	5	n/a	n/a	pyFR	3	TJ013
614.351	1.705	323079	REC_WORD_VV	1.705	n/a	VV	-999	5	n/a	n/a	pyFR	3	TJ013
616.056	2.391	323761	REC_WORD	2.391	n/a	COW	-999	5	n/a	n/a	pyFR	3	TJ013
618.447	3.155	324717	REC_WORD_VV	3.155	n/a	VV	-999	5	n/a	n/a	pyFR	3	TJ013
621.602	0.493	325979	REC_WORD	0.493	n/a	POLE	-999	5	n/a	n/a	pyFR	3	TJ013
622.095	0.393	326176	REC_WORD	0.393	n/a	BOOT	-999	5	n/a	n/a	pyFR	3	TJ013
622.488	2.577	326334	REC_WORD	2.577	n/a	COW	-999	5	n/a	n/a	pyFR	3	TJ013
625.065	1.674	327364	REC_WORD_VV	1.674	n/a	VV	-999	5	n/a	n/a	pyFR	3	TJ013
626.739	2.127	328034	REC_WORD	2.127	n/a	STONE	-999	5	n/a	n/a	pyFR	3	TJ013
628.866	1.123	328885	REC_WORD	1.123	n/a	FARM	-999	5	n/a	n/a	pyFR	3	TJ013
629.989	2.856	329334	REC_WORD	2.856	n/a	ROOF	-999	5	n/a	n/a	pyFR	3	TJ013
632.845	8.361	330476	REC_WORD_VV	8.361	n/a	VV	-999	5	n/a	n/a	pyFR	3	TJ013
641.206	1.088	333821	REC_WORD_VV	1.088	n/a	VV	-999	5	n/a	n/a	pyFR	3	TJ013
642.294	0.658	334256	REC_WORD	0.658	n/a	ROOF	-999	5	n/a	n/a	pyFR	3	TJ013
642.952	0.861	334519	REC_WORD	0.861	n/a	BIRD	-999	5	n/a	n/a	pyFR	3	TJ013
643.813	1.0	334863	REC_WORD_VV	1.0	n/a	VV	-999	5	n/a	n/a	pyFR	3	TJ013
644.813	15.523	335263	REC_WORD_VV	15.523	n/a	VV	-999	5	n/a	n/a	pyFR	3	TJ013
660.336	0.016	341472	TRIAL	n/a	n/a	n/a	-999	-999	n/a	n/a	pyFR	3	TJ013
660.352	3.005	341479	ORIENT	n/a	n/a	n/a	-999	-999	n/a	n/a	pyFR	3	TJ013
663.357	2.472	342681	WORD	n/a	wordpools/wordpool_EN.txt	ANT	1	6	n/a	n/a	pyFR	3	TJ013
665.829	2.822	343670	WORD	n/a	wordpools/wordpool_EN.txt	WORLD	2	6	n/a	n/a	pyFR	3	TJ013
668.651	2.688	344798	WORD	n/a	wordpools/wordpool_EN.txt	FLAG	3	6	n/a	n/a	pyFR	3	TJ013
671.339	2.805	345873	WORD	n/a	wordpools/wordpool_EN.txt	CROWN	4	6	n/a	n/a	pyFR	3	TJ013
674.144	2.772	346995	WORD	n/a	wordpools/wordpool_EN.txt	FLEA	5	6	n/a	n/a	pyFR	3	TJ013
676.916	2.521	348104	WORD	n/a	wordpools/wordpool_EN.txt	TOE	6	6	n/a	n/a	pyFR	3	TJ013
679.437	2.505	349113	WORD	n/a	wordpools/wordpool_EN.txt	FRUIT	7	6	n/a	n/a	pyFR	3	TJ013
681.942	2.621	350115	WORD	n/a	wordpools/wordpool_EN.txt	WAVE	8	6	n/a	n/a	pyFR	3	TJ013
684.563	2.655	351163	WORD	n/a	wordpools/wordpool_EN.txt	PEACH	9	6	n/a	n/a	pyFR	3	TJ013
687.218	2.588	352225	WORD	n/a	wordpools/wordpool_EN.txt	COIN	10	6	n/a	n/a	pyFR	3	TJ013
689.806	2.722	353260	WORD	n/a	wordpools/wordpool_EN.txt	BAND	11	6	n/a	n/a	pyFR	3	TJ013
692.528	2.655	354349	WORD	n/a	wordpools/wordpool_EN.txt	HILL	12	6	n/a	n/a	pyFR	3	TJ013
695.183	2.454	355411	WORD	n/a	wordpools/wordpool_EN.txt	BADGE	13	6	n/a	n/a	pyFR	3	TJ013
697.637	2.738	356392	WORD	n/a	wordpools/wordpool_EN.txt	ROSE	14	6	n/a	n/a	pyFR	3	TJ013
700.375	1.605	357487	WORD	n/a	wordpools/wordpool_EN.txt	GIRL	15	6	n/a	n/a	pyFR	3	TJ013
701.98	0.85	358129	START	n/a	n/a	n/a	n/a	6	[-999 -999 -999]	-999	pyFR	3	TJ013
702.83	4.224	358469	PROB	n/a	n/a	n/a	n/a	6	[1 2 9]	12	pyFR	3	TJ013
707.054	2.889	360159	PROB	n/a	n/a	n/a	n/a	6	[2 5 2]	9	pyFR	3	TJ013
709.943	3.273	361315	PROB	n/a	n/a	n/a	n/a	6	[1 9 6]	16	pyFR	3	TJ013
713.216	3.172	362624	PROB	n/a	n/a	n/a	n/a	6	[6 4 9]	19	pyFR	3	TJ013
716.388	3.156	363892	PROB	n/a	n/a	n/a	n/a	6	[4 2 1]	7	pyFR	3	TJ013
719.544	3.931	365155	PROB	n/a	n/a	n/a	n/a	6	[3 9 5]	17	pyFR	3	TJ013
723.475	1.146	366727	STOP	n/a	n/a	n/a	n/a	6	[-999 -999 -999]	-999	pyFR	3	TJ013
724.621	6.796	367186	REC_START	n/a	n/a	n/a	-999	-999	n/a	n/a	pyFR	3	TJ013
731.417	22.16	369904	REC_WORD_VV	22.16	n/a	VV	-999	6	n/a	n/a	pyFR	3	TJ013
753.577	0.551	378768	REC_WORD	0.551	n/a	VASE	-999	6	n/a	n/a	pyFR	3	TJ013
754.128	168.841	378988	REC_WORD	168.841	n/a	GIRL	-999	6	n/a	n/a	pyFR	3	TJ013
922.969	0.016	446522	TRIAL	n/a	n/a	n/a	-999	-999	n/a	n/a	pyFR	3	TJ013
922.985	2.955	446529	ORIENT	n/a	n/a	n/a	-999	-999	n/a	n/a	pyFR	3	TJ013
925.94	2.739	447710	WORD	n/a	wordpools/wordpool_EN.txt	CASH	1	7	n/a	n/a	pyFR	3	TJ013
928.679	2.687	448806	WORD	n/a	wordpools/wordpool_EN.txt	BEAR	2	7	n/a	n/a	pyFR	3	TJ013
931.366	2.722	449881	WORD	n/a	wordpools/wordpool_EN.txt	AXE	3	7	n/a	n/a	pyFR	3	TJ013
934.088	2.438	450970	WORD	n/a	wordpools/wordpool_EN.txt	DOCK	4	7	n/a	n/a	pyFR	3	TJ013
936.526	2.738	451945	WORD	n/a	wordpools/wordpool_EN.txt	SHIP	5	7	n/a	n/a	pyFR	3	TJ013
939.264	2.789	453040	WORD	n/a	wordpools/wordpool_EN.txt	SALT	6	7	n/a	n/a	pyFR	3	TJ013
942.053	2.454	454155	WORD	n/a	wordpools/wordpool_EN.txt	TIE	7	7	n/a	n/a	pyFR	3	TJ013
944.507	2.722	455137	WORD	n/a	wordpools/wordpool_EN.txt	CRANE	8	7	n/a	n/a	pyFR	3	TJ013
947.229	2.489	456226	WORD	n/a	wordpools/wordpool_EN.txt	JEEP	9	7	n/a	n/a	pyFR	3	TJ013
949.718	2.62	457221	WORD	n/a	wordpools/wordpool_EN.txt	CLOCK	10	7	n/a	n/a	pyFR	3	TJ013
952.338	2.622	458269	WORD	n/a	wordpools/wordpool_EN.txt	FILM	11	7	n/a	n/a	pyFR	3	TJ013
954.96	2.739	459318	WORD	n/a	wordpools/wordpool_EN.txt	TOAD	12	7	n/a	n/a	pyFR	3	TJ013
957.699	2.688	460414	WORD	n/a	wordpools/wordpool_EN.txt	ROPE	13	7	n/a	n/a	pyFR	3	TJ013
960.387	2.538	461489	WORD	n/a	wordpools/wordpool_EN.txt	TEETH	14	7	n/a	n/a	pyFR	3	TJ013
962.925	1.621	462504	WORD	n/a	wordpools/wordpool_EN.txt	CLOUD	15	7	n/a	n/a	pyFR	3	TJ013
964.546	0.85	463152	START	n/a	n/a	n/a	n/a	7	[-999 -999 -999]	-999	pyFR	3	TJ013
965.396	2.554	463492	PROB	n/a	n/a	n/a	n/a	7	[1 1 2]	4	pyFR	3	TJ013
967.95	3.44	464514	PROB	n/a	n/a	n/a	n/a	7	[7 7 5]	19	pyFR	3	TJ013
971.39	2.271	465890	PROB	n/a	n/a	n/a	n/a	7	[4 6 1]	11	pyFR	3	TJ013
973.661	6.029	466798	PROB	n/a	n/a	n/a	n/a	7	[9 7 5]	21	pyFR	3	TJ013
979.69	3.022	469210	PROB	n/a	n/a	n/a	n/a	7	[1 8 3]	12	pyFR	3	TJ013
982.712	5.307	470419	PROB	n/a	n/a	n/a	n/a	7	[7 5 9]	21	pyFR	3	TJ013
988.019	1.204	472541	STOP	n/a	n/a	n/a	n/a	7	[-999 -999 -999]	-999	pyFR	3	TJ013
989.223	2.644	473023	REC_START	n/a	n/a	n/a	-999	-999	n/a	n/a	pyFR	3	TJ013
991.867	0.518	474080	REC_WORD	0.518	n/a	ROPE	-999	7	n/a	n/a	pyFR	3	TJ013
992.385	0.544	474288	REC_WORD	0.544	n/a	BEAR	-999	7	n/a	n/a	pyFR	3	TJ013
992.929	3.113	474505	REC_WORD	3.113	n/a	AXE	-999	7	n/a	n/a	pyFR	3	TJ013
996.042	0.675	475750	REC_WORD	0.675	n/a	ROPE	-999	7	n/a	n/a	pyFR	3	TJ013
996.717	0.943	476020	REC_WORD	0.943	n/a	BEAR	-999	7	n/a	n/a	pyFR	3	TJ013
997.66	0.557	476398	REC_WORD	0.557	n/a	AXE	-999	7	n/a	n/a	pyFR	3	TJ013
998.217	2.393	476620	REC_WORD	2.393	n/a	CASH	-999	7	n/a	n/a	pyFR	3	TJ013
1000.61	6.954	477578	REC_WORD_VV	6.954	n/a	VV	-999	7	n/a	n/a	pyFR	3	TJ013
1007.564	29.297	480359	REC_WORD	29.297	n/a	COIN	-999	7	n/a	n/a	pyFR	3	TJ013
1036.861	0.016	492077	TRIAL	n/a	n/a	n/a	-999	-999	n/a	n/a	pyFR	3	TJ013
1036.877	2.989	492084	ORIENT	n/a	n/a	n/a	-999	-999	n/a	n/a	pyFR	3	TJ013
1039.866	2.638	493279	WORD	n/a	wordpools/wordpool_EN.txt	PIG	1	8	n/a	n/a	pyFR	3	TJ013
1042.504	2.738	494335	WORD	n/a	wordpools/wordpool_EN.txt	TOY	2	8	n/a	n/a	pyFR	3	TJ013
1045.242	2.789	495430	WORD	n/a	wordpools/wordpool_EN.txt	FAN	3	8	n/a	n/a	pyFR	3	TJ013
1048.031	2.588	496545	WORD	n/a	wordpools/wordpool_EN.txt	TOAST	4	8	n/a	n/a	pyFR	3	TJ013
1050.619	2.605	497580	WORD	n/a	wordpools/wordpool_EN.txt	CAKE	5	8	n/a	n/a	pyFR	3	TJ013
1053.224	2.755	498622	WORD	n/a	wordpools/wordpool_EN.txt	BRUSH	6	8	n/a	n/a	pyFR	3	TJ013
1055.979	2.655	499724	WORD	n/a	wordpools/wordpool_EN.txt	FLUTE	7	8	n/a	n/a	pyFR	3	TJ013
1058.634	2.705	500786	WORD	n/a	wordpools/wordpool_EN.txt	MILK	8	8	n/a	n/a	pyFR	3	TJ013
1061.339	2.455	501868	WORD	n/a	wordpools/wordpool_EN.txt	SKUNK	9	8	n/a	n/a	pyFR	3	TJ013
1063.794	2.788	502850	WORD	n/a	wordpools/wordpool_EN.txt	SHELL	10	8	n/a	n/a	pyFR	3	TJ013
1066.582	2.638	503965	WORD	n/a	wordpools/wordpool_EN.txt	STRING	11	8	n/a	n/a	pyFR	3	TJ013
1069.22	2.455	505021	WORD	n/a	wordpools/wordpool_EN.txt	SHIRT	12	8	n/a	n/a	pyFR	3	TJ013
1071.675	2.621	506003	WORD	n/a	wordpools/wordpool_EN.txt	FROG	13	8	n/a	n/a	pyFR	3	TJ013
1074.296	2.605	507051	WORD	n/a	wordpools/wordpool_EN.txt	SOCK	14	8	n/a	n/a	pyFR	3	TJ013
1076.901	1.621	508093	WORD	n/a	wordpools/wordpool_EN.txt	NEST	15	8	n/a	n/a	pyFR	3	TJ013
1078.522	0.9	508741	START	n/a	n/a	n/a	n/a	8	[-999 -999 -999]	-999	pyFR	3	TJ013
1079.422	4.842	509101	PROB	n/a	n/a	n/a	n/a	8	[2 9 8]	19	pyFR	3	TJ013
1084.264	2.872	511038	PROB	n/a	n/a	n/a	n/a	8	[5 2 1]	8	pyFR	3	TJ013
1087.136	2.705	512187	PROB	n/a	n/a	n/a	n/a	8	[1 1 5]	7	pyFR	3	TJ013
1089.841	4.692	513269	PROB	n/a	n/a	n/a	n/a	8	[9 3 6]	18	pyFR	3	TJ013
1094.533	3.122	515145	PROB	n/a	n/a	n/a	n/a	8	[5 8 1]	14	pyFR	3	TJ013
1097.655	2.204	516394	PROB	n/a	n/a	n/a	n/a	8	[2 7 3]	12	pyFR	3	TJ013
1099.859	1.17	517276	STOP	n/a	n/a	n/a	n/a	8	[-999 -999 -999]	-999	pyFR	3	TJ013
1101.029	2.979	517744	REC_START	n/a	n/a	n/a	-999	-999	n/a	n/a	pyFR	3	TJ013
1104.008	1.196	518935	REC_WORD_VV	1.196	n/a	VV	-999	8	n/a	n/a	pyFR	3	TJ013
1105.204	0.526	519414	REC_WORD	0.526	n/a	FROG	-999	8	n/a	n/a	pyFR	3	TJ013
1105.73	0.439	519624	REC_WORD	0.439	n/a	PIG	-999	8	n/a	n/a	pyFR	3	TJ013
1106.169	2.494	519800	REC_WORD	2.494	n/a	NEST	-999	8	n/a	n/a	pyFR	3	TJ013
1108.663	7.77	520797	REC_WORD_VV	7.77	n/a	VV	-999	8	n/a	n/a	pyFR	3	TJ013
1116.433	0.485	523905	REC_WORD	0.485	n/a	FROG	-999	8	n/a	n/a	pyFR	3	TJ013
1116.918	0.49	524099	REC_WORD	0.49	n/a	PIG	-999	8	n/a	n/a	pyFR	3	TJ013
1117.408	30.607	524295	REC_WORD	30.607	n/a	NEST	-999	8	n/a	n/a	pyFR	3	TJ013
1148.015	0.016	536538	TRIAL	n/a	n/a	n/a	-999	-999	n/a	n/a	pyFR	3	TJ013
1148.031	2.939	536544	ORIENT	n/a	n/a	n/a	-999	-999	n/a	n/a	pyFR	3	TJ013
1150.97	2.655	537720	WORD	n/a	wordpools/wordpool_EN.txt	DOLL	1	9	n/a	n/a	pyFR	3	TJ013
1153.625	2.621	538781	WORD	n/a	wordpools/wordpool_EN.txt	LAMB	2	9	n/a	n/a	pyFR	3	TJ013
1156.246	2.789	539830	WORD	n/a	wordpools/wordpool_EN.txt	RICE	3	9	n/a	n/a	pyFR	3	TJ013
1159.035	2.521	540945	WORD	n/a	wordpools/wordpool_EN.txt	TOOL	4	9	n/a	n/a	pyFR	3	TJ013
1161.556	2.555	541954	WORD	n/a	wordpools/wordpool_EN.txt	HAWK	5	9	n/a	n/a	pyFR	3	TJ013
1164.111	2.622	542976	WORD	n/a	wordpools/wordpool_EN.txt	STORE	6	9	n/a	n/a	pyFR	3	TJ013
1166.733	2.688	544025	WORD	n/a	wordpools/wordpool_EN.txt	CAR	7	9	n/a	n/a	pyFR	3	TJ013
1169.421	2.705	545100	WORD	n/a	wordpools/wordpool_EN.txt	BENCH	8	9	n/a	n/a	pyFR	3	TJ013
1172.126	2.521	546182	WORD	n/a	wordpools/wordpool_EN.txt	JAR	9	9	n/a	n/a	pyFR	3	TJ013
1174.647	2.688	547190	WORD	n/a	wordpools/wordpool_EN.txt	SAIL	10	9	n/a	n/a	pyFR	3	TJ013
1177.335	2.622	548265	WORD	n/a	wordpools/wordpool_EN.txt	DITCH	11	9	n/a	n/a	pyFR	3	TJ013
1179.957	2.772	549314	WORD	n/a	wordpools/wordpool_EN.txt	VINE	12	9	n/a	n/a	pyFR	3	TJ013
1182.729	2.671	550423	WORD	n/a	wordpools/wordpool_EN.txt	THUMB	13	9	n/a	n/a	pyFR	3	TJ013
1185.4	2.538	551491	WORD	n/a	wordpools/wordpool_EN.txt	SOUP	14	9	n/a	n/a	pyFR	3	TJ013
1187.938	1.621	552506	WORD	n/a	wordpools/wordpool_EN.txt	FORT	15	9	n/a	n/a	pyFR	3	TJ013
1189.559	1.034	553155	START	n/a	n/a	n/a	n/a	9	[-999 -999 -999]	-999	pyFR	3	TJ013
1190.593	3.824	553568	PROB	n/a	n/a	n/a	n/a	9	[6 5 9]	20	pyFR	3	TJ013
1194.417	2.972	555098	PROB	n/a	n/a	n/a	n/a	9	[6 5 9]	20	pyFR	3	TJ013
1197.389	2.688	556287	PROB	n/a	n/a	n/a	n/a	9	[5 7 9]	21	pyFR	3	TJ013
1200.077	2.304	557362	PROB	n/a	n/a	n/a	n/a	9	[4 7 1]	12	pyFR	3	TJ013
1202.381	2.538	558283	PROB	n/a	n/a	n/a	n/a	9	[8 1 4]	13	pyFR	3	TJ013
1204.919	2.939	559298	PROB	n/a	n/a	n/a	n/a	9	[5 6 5]	16	pyFR	3	TJ013
1207.858	2.409	560474	PROB	n/a	n/a	n/a	n/a	9	[8 7 8]	23	pyFR	3	TJ013
1210.267	1.131	561438	STOP	n/a	n/a	n/a	n/a	9	[-999 -999 -999]	-999	pyFR	3	TJ013
1211.398	3.075	561890	REC_START	n/a	n/a	n/a	-999	-999	n/a	n/a	pyFR	3	TJ013
1214.473	2.049	563120	REC_WORD_VV	2.049	n/a	VV	-999	9	n/a	n/a	pyFR	3	TJ013
1216.522	0.468	563939	REC_WORD	0.468	n/a	DOLL	-999	9	n/a	n/a	pyFR	3	TJ013
1216.99	0.458	564127	REC_WORD	0.458	n/a	LAMB	-999	9	n/a	n/a	pyFR	3	TJ013
1217.448	0.548	564310	REC_WORD	0.548	n/a	RICE	-999	9	n/a	n/a	pyFR	3	TJ013
1217.996	2.992	564529	REC_WORD	2.992	n/a	SOUP	-999	9	n/a	n/a	pyFR	3	TJ013
1220.988	4.375	565726	REC_WORD_VV	4.375	n/a	VV	-999	9	n/a	n/a	pyFR	3	TJ013
1225.363	0.332	567476	REC_WORD	0.332	n/a	DOLL	-999	9	n/a	n/a	pyFR	3	TJ013
1225.695	0.291	567609	REC_WORD	0.291	n/a	LAMB	-999	9	n/a	n/a	pyFR	3	TJ013
1225.986	0.291	567725	REC_WORD	0.291	n/a	RICE	-999	9	n/a	n/a	pyFR	3	TJ013
1226.277	3.704	567841	REC_WORD	3.704	n/a	SOUP	-999	9	n/a	n/a	pyFR	3	TJ013
1229.981	12.54	569323	REC_WORD	12.54	n/a	STEW	-999	9	n/a	n/a	pyFR	3	TJ013
1242.521	4.89	574339	REC_WORD_VV	4.89	n/a	VV	-999	9	n/a	n/a	pyFR	3	TJ013
1247.411	12.243	576295	REC_WORD	12.243	n/a	STEW	-999	9	n/a	n/a	pyFR	3	TJ013
1259.654	0.017	581192	TRIAL	n/a	n/a	n/a	-999	-999	n/a	n/a	pyFR	3	TJ013
1259.671	2.988	581198	ORIENT	n/a	n/a	n/a	-999	-999	n/a	n/a	pyFR	3	TJ013
1262.659	2.805	582394	WORD	n/a	wordpools/wordpool_EN.txt	HEART	1	10	n/a	n/a	pyFR	3	TJ013
1265.464	2.721	583516	WORD	n/a	wordpools/wordpool_EN.txt	CAPE	2	10	n/a	n/a	pyFR	3	TJ013
1268.185	2.722	584604	WORD	n/a	wordpools/wordpool_EN.txt	DAD	3	10	n/a	n/a	pyFR	3	TJ013
1270.907	2.655	585693	WORD	n/a	wordpools/wordpool_EN.txt	GOAT	4	10	n/a	n/a	pyFR	3	TJ013
1273.562	2.505	586755	WORD	n/a	wordpools/wordpool_EN.txt	SUIT	5	10	n/a	n/a	pyFR	3	TJ013
1276.067	2.454	587757	WORD	n/a	wordpools/wordpool_EN.txt	TRAIN	6	10	n/a	n/a	pyFR	3	TJ013
1278.521	2.772	588738	WORD	n/a	wordpools/wordpool_EN.txt	POND	7	10	n/a	n/a	pyFR	3	TJ013
1281.293	2.655	589847	WORD	n/a	wordpools/wordpool_EN.txt	WAND	8	10	n/a	n/a	pyFR	3	TJ013
1283.948	2.705	590909	WORD	n/a	wordpools/wordpool_EN.txt	BUSH	9	10	n/a	n/a	pyFR	3	TJ013
1286.653	2.671	591991	WORD	n/a	wordpools/wordpool_EN.txt	KING	10	10	n/a	n/a	pyFR	3	TJ013
1289.324	2.705	593059	WORD	n/a	wordpools/wordpool_EN.txt	OWL	11	10	n/a	n/a	pyFR	3	TJ013
1292.029	2.673	594141	WORD	n/a	wordpools/wordpool_EN.txt	BEAN	12	10	n/a	n/a	pyFR	3	TJ013
1294.702	2.453	595210	WORD	n/a	wordpools/wordpool_EN.txt	WING	13	10	n/a	n/a	pyFR	3	TJ013
1297.155	2.755	596192	WORD	n/a	wordpools/wordpool_EN.txt	STICK	14	10	n/a	n/a	pyFR	3	TJ013
1299.91	1.605	597294	WORD	n/a	wordpools/wordpool_EN.txt	TEA	15	10	n/a	n/a	pyFR	3	TJ013
1301.515	0.983	597936	START	n/a	n/a	n/a	n/a	10	[-999 -999 -999]	-999	pyFR	3	TJ013
1302.498	3.774	598329	PROB	n/a	n/a	n/a	n/a	10	[3 5 7]	15	pyFR	3	TJ013
1306.272	2.121	599838	PROB	n/a	n/a	n/a	n/a	10	[3 3 3]	9	pyFR	3	TJ013
1308.393	3.039	600687	PROB	n/a	n/a	n/a	n/a	10	[6 4 6]	16	pyFR	3	TJ013
1311.432	2.788	601902	PROB	n/a	n/a	n/a	n/a	10	[7 9 1]	17	pyFR	3	TJ013
1314.22	3.69	603017	PROB	n/a	n/a	n/a	n/a	10	[9 1 8]	18	pyFR	3	TJ013
1317.91	3.862	604493	PROB	n/a	n/a	n/a	n/a	10	[5 2 7]	14	pyFR	3	TJ013
1321.772	1.199	606038	STOP	n/a	n/a	n/a	n/a	10	[-999 -999 -999]	-999	pyFR	3	TJ013
1322.971	3.171	606518	REC_START	n/a	n/a	n/a	-999	-999	n/a	n/a	pyFR	3	TJ013
1326.142	0.34	607786	REC_WORD	0.34	n/a	BEAN	-999	10	n/a	n/a	pyFR	3	TJ013
1326.482	0.692	607922	REC_WORD	0.692	n/a	HEART	-999	10	n/a	n/a	pyFR	3	TJ013
1327.174	1.73	608199	REC_WORD	1.73	n/a	CAPE	-999	10	n/a	n/a	pyFR	3	TJ013
1328.904	5.506	608891	REC_WORD_VV	5.506	n/a	VV	-999	10	n/a	n/a	pyFR	3	TJ013
1334.41	0.301	611093	REC_WORD	0.301	n/a	BEAN	-999	10	n/a	n/a	pyFR	3	TJ013
1334.711	0.436	611213	REC_WORD	0.436	n/a	HEART	-999	10	n/a	n/a	pyFR	3	TJ013
1335.147	6.664	611388	REC_WORD	6.664	n/a	CAPE	-999	10	n/a	n/a	pyFR	3	TJ013
1341.811	3.54	614053	REC_WORD	3.54	n/a	QUEEN	-999	10	n/a	n/a	pyFR	3	TJ013
1345.351	6.79	615469	REC_WORD_VV	6.79	n/a	VV	-999	10	n/a	n/a	pyFR	3	TJ013
1352.141	37.636	618185	REC_WORD	37.636	n/a	QUEEN	-999	10	n/a	n/a	pyFR	3	TJ013
1389.777	0.016	633239	TRIAL	n/a	n/a	n/a	-999	-999	n/a	n/a	pyFR	3	TJ013
1389.793	2.955	633246	ORIENT	n/a	n/a	n/a	-999	-999	n/a	n/a	pyFR	3	TJ013
1392.748	2.487	634428	WORD	n/a	wordpools/wordpool_EN.txt	MUG	1	11	n/a	n/a	pyFR	3	TJ013
1395.235	2.789	635422	WORD	n/a	wordpools/wordpool_EN.txt	CARD	2	11	n/a	n/a	pyFR	3	TJ013
1398.024	2.723	636538	WORD	n/a	wordpools/wordpool_EN.txt	MUD	3	11	n/a	n/a	pyFR	3	TJ013
1400.747	2.737	637627	WORD	n/a	wordpools/wordpool_EN.txt	FOOT	4	11	n/a	n/a	pyFR	3	TJ013
1403.484	2.772	638722	WORD	n/a	wordpools/wordpool_EN.txt	APE	5	11	n/a	n/a	pyFR	3	TJ013
1406.256	2.771	639831	WORD	n/a	wordpools/wordpool_EN.txt	TRAY	6	11	n/a	n/a	pyFR	3	TJ013
1409.027	2.69	640939	WORD	n/a	wordpools/wordpool_EN.txt	GOLD	7	11	n/a	n/a	pyFR	3	TJ013
1411.717	2.553	642015	WORD	n/a	wordpools/wordpool_EN.txt	SEAT	8	11	n/a	n/a	pyFR	3	TJ013
1414.27	2.572	643036	WORD	n/a	wordpools/wordpool_EN.txt	FOX	9	11	n/a	n/a	pyFR	3	TJ013
1416.842	2.605	644065	WORD	n/a	wordpools/wordpool_EN.txt	BLUSH	10	11	n/a	n/a	pyFR	3	TJ013
1419.447	2.654	645107	WORD	n/a	wordpools/wordpool_EN.txt	ROAD	11	11	n/a	n/a	pyFR	3	TJ013
1422.101	2.422	646168	WORD	n/a	wordpools/wordpool_EN.txt	SINK	12	11	n/a	n/a	pyFR	3	TJ013
1424.523	2.571	647137	WORD	n/a	wordpools/wordpool_EN.txt	HORN	13	11	n/a	n/a	pyFR	3	TJ013
1427.094	2.571	648165	WORD	n/a	wordpools/wordpool_EN.txt	DEER	14	11	n/a	n/a	pyFR	3	TJ013
1429.665	1.621	649194	WORD	n/a	wordpools/wordpool_EN.txt	PEAR	15	11	n/a	n/a	pyFR	3	TJ013
1431.286	1.201	649842	START	n/a	n/a	n/a	n/a	11	[-999 -999 -999]	-999	pyFR	3	TJ013
1432.487	4.074	650323	PROB	n/a	n/a	n/a	n/a	11	[2 9 7]	18	pyFR	3	TJ013
1436.561	3.073	651952	PROB	n/a	n/a	n/a	n/a	11	[7 5 3]	15	pyFR	3	TJ013
1439.634	4.742	653181	PROB	n/a	n/a	n/a	n/a	11	[2 9 4]	15	pyFR	3	TJ013
1444.376	2.388	655078	PROB	n/a	n/a	n/a	n/a	11	[3 8 2]	13	pyFR	3	TJ013
1446.764	3.456	656033	PROB	n/a	n/a	n/a	n/a	11	[6 7 8]	21	pyFR	3	TJ013
1450.22	2.943	657416	PROB	n/a	n/a	n/a	n/a	11	[7 3 1]	11	pyFR	3	TJ013
1453.163	1.215	658593	STOP	n/a	n/a	n/a	n/a	11	[-999 -999 -999]	-999	pyFR	3	TJ013
1454.378	1.765	659079	REC_START	n/a	n/a	n/a	-999	-999	n/a	n/a	pyFR	3	TJ013
1456.143	0.499	659785	REC_WORD_VV	0.499	n/a	VV	-999	11	n/a	n/a	pyFR	3	TJ013
1456.642	0.383	659984	REC_WORD	0.383	n/a	MUG	-999	11	n/a	n/a	pyFR	3	TJ013
1457.025	1.369	660137	REC_WORD	1.369	n/a	MUD	-999	11	n/a	n/a	pyFR	3	TJ013
1458.394	2.853	660685	REC_WORD	2.853	n/a	PEAR	-999	11	n/a	n/a	pyFR	3	TJ013
1461.247	1.227	661826	REC_WORD	1.227	n/a	SLIDE	-999	11	n/a	n/a	pyFR	3	TJ013
1462.474	5.732	662317	REC_WORD_VV	5.732	n/a	VV	-999	11	n/a	n/a	pyFR	3	TJ013
1468.206	0.203	664610	REC_WORD	0.203	n/a	MUG	-999	11	n/a	n/a	pyFR	3	TJ013
1468.409	0.192	664691	REC_WORD	0.192	n/a	MUD	-999	11	n/a	n/a	pyFR	3	TJ013
1468.601	0.175	664768	REC_WORD	0.175	n/a	PEAR	-999	11	n/a	n/a	pyFR	3	TJ013
1468.776	2.655	664838	REC_WORD	2.655	n/a	SLIDE	-999	11	n/a	n/a	pyFR	3	TJ013
1471.431	43.175	665900	REC_WORD_VV	43.175	n/a	VV	-999	11	n/a	n/a	pyFR	3	TJ013
1514.606	0.016	683169	TRIAL	n/a	n/a	n/a	-999	-999	n/a	n/a	pyFR	3	TJ013
1514.622	2.855	683176	ORIENT	n/a	n/a	n/a	-999	-999	n/a	n/a	pyFR	3	TJ013
1517.477	2.571	684317	WORD	n/a	wordpools/wordpool_EN.txt	TAPE	1	12	n/a	n/a	pyFR	3	TJ013
1520.048	2.656	685346	WORD	n/a	wordpools/wordpool_EN.txt	HORSE	2	12	n/a	n/a	pyFR	3	TJ013
1522.704	2.687	686408	WORD	n/a	wordpools/wordpool_EN.txt	FOAM	3	12	n/a	n/a	pyFR	3	TJ013
1525.391	2.805	687483	WORD	n/a	wordpools/wordpool_EN.txt	CORD	4	12	n/a	n/a	pyFR	3	TJ013
1528.196	2.605	688605	WORD	n/a	wordpools/wordpool_EN.txt	PARK	5	12	n/a	n/a	pyFR	3	TJ013
1530.801	2.755	689647	WORD	n/a	wordpools/wordpool_EN.txt	SWORD	6	12	n/a	n/a	pyFR	3	TJ013
1533.556	2.772	690749	WORD	n/a	wordpools/wordpool_EN.txt	DRESS	7	12	n/a	n/a	pyFR	3	TJ013
1536.328	2.505	691858	WORD	n/a	wordpools/wordpool_EN.txt	CANE	8	12	n/a	n/a	pyFR	3	TJ013
1538.833	2.604	692860	WORD	n/a	wordpools/wordpool_EN.txt	STOOL	9	12	n/a	n/a	pyFR	3	TJ013
1541.437	2.755	693901	WORD	n/a	wordpools/wordpool_EN.txt	SHOE	10	12	n/a	n/a	pyFR	3	TJ013
1544.192	2.523	695003	WORD	n/a	wordpools/wordpool_EN.txt	SLUSH	11	12	n/a	n/a	pyFR	3	TJ013
1546.715	2.737	696012	WORD	n/a	wordpools/wordpool_EN.txt	MOTH	12	12	n/a	n/a	pyFR	3	TJ013
1549.452	2.739	697107	WORD	n/a	wordpools/wordpool_EN.txt	BELL	13	12	n/a	n/a	pyFR	3	TJ013
1552.191	2.538	698203	WORD	n/a	wordpools/wordpool_EN.txt	HEN	14	12	n/a	n/a	pyFR	3	TJ013
1554.729	1.621	699218	WORD	n/a	wordpools/wordpool_EN.txt	MOUSE	15	12	n/a	n/a	pyFR	3	TJ013
1556.35	1.117	699866	START	n/a	n/a	n/a	n/a	12	[-999 -999 -999]	-999	pyFR	3	TJ013
1557.467	3.606	700313	PROB	n/a	n/a	n/a	n/a	12	[2 1 1]	4	pyFR	3	TJ013
1561.073	3.407	701755	PROB	n/a	n/a	n/a	n/a	12	[5 2 4]	11	pyFR	3	TJ013
1564.48	3.573	703118	PROB	n/a	n/a	n/a	n/a	12	[9 2 7]	18	pyFR	3	TJ013
1568.053	3.239	704547	PROB	n/a	n/a	n/a	n/a	12	[2 2 5]	9	pyFR	3	TJ013
1571.292	2.739	705843	PROB	n/a	n/a	n/a	n/a	12	[1 4 6]	11	pyFR	3	TJ013
1574.031	4.476	706938	PROB	n/a	n/a	n/a	n/a	12	[2 1 6]	9	pyFR	3	TJ013
1578.507	1.186	708729	STOP	n/a	n/a	n/a	n/a	12	[-999 -999 -999]	-999	pyFR	3	TJ013
1579.693	3.145	709203	REC_START	n/a	n/a	n/a	-999	-999	n/a	n/a	pyFR	3	TJ013
1582.838	0.288	710461	REC_WORD	0.288	n/a	TAPE	-999	12	n/a	n/a	pyFR	3	TJ013
1583.126	0.489	710576	REC_WORD	0.489	n/a	HORSE	-999	12	n/a	n/a	pyFR	3	TJ013
1583.615	2.732	710772	REC_WORD	2.732	n/a	FOAM	-999	12	n/a	n/a	pyFR	3	TJ013
1586.347	0.576	711865	REC_WORD	0.576	n/a	TAPE	-999	12	n/a	n/a	pyFR	3	TJ013
1586.923	0.433	712095	REC_WORD	0.433	n/a	HORSE	-999	12	n/a	n/a	pyFR	3	TJ013
1587.356	4.817	712268	REC_WORD	4.817	n/a	FOAM	-999	12	n/a	n/a	pyFR	3	TJ013
1592.173	5.749	714195	REC_WORD	5.749	n/a	HEN	-999	12	n/a	n/a	pyFR	3	TJ013
1597.922	4.221	716494	REC_WORD	4.221	n/a	MOUSE	-999	12	n/a	n/a	pyFR	3	TJ013
1602.143	3.916	718183	REC_WORD_VV	3.916	n/a	VV	-999	12	n/a	n/a	pyFR	3	TJ013
1606.059	0.397	719749	REC_WORD	0.397	n/a	TAPE	-999	12	n/a	n/a	pyFR	3	TJ013
1606.456	0.179	719908	REC_WORD	0.179	n/a	HORSE	-999	12	n/a	n/a	pyFR	3	TJ013
1606.635	1.32	719980	REC_WORD	1.32	n/a	FOAM	-999	12	n/a	n/a	pyFR	3	TJ013
1607.955	15.206	720507	REC_WORD	15.206	n/a	PEN	-999	12	n/a	n/a	pyFR	3	TJ013
1623.161	5.371	726590	REC_WORD	5.371	n/a	PEN	-999	12	n/a	n/a	pyFR	3	TJ013
1628.532	0.016	728738	TRIAL	n/a	n/a	n/a	-999	-999	n/a	n/a	pyFR	3	TJ013
1628.548	2.855	728744	ORIENT	n/a	n/a	n/a	-999	-999	n/a	n/a	pyFR	3	TJ013
1631.403	2.638	729886	WORD	n/a	wordpools/wordpool_EN.txt	EAR	1	13	n/a	n/a	pyFR	3	TJ013
1634.041	2.656	730942	WORD	n/a	wordpools/wordpool_EN.txt	CLAY	2	13	n/a	n/a	pyFR	3	TJ013
1636.697	2.62	732004	WORD	n/a	wordpools/wordpool_EN.txt	SWAMP	3	13	n/a	n/a	pyFR	3	TJ013
1639.317	2.439	733052	WORD	n/a	wordpools/wordpool_EN.txt	BOARD	4	13	n/a	n/a	pyFR	3	TJ013
1641.756	2.771	734027	WORD	n/a	wordpools/wordpool_EN.txt	MAZE	5	13	n/a	n/a	pyFR	3	TJ013
1644.527	2.772	735136	WORD	n/a	wordpools/wordpool_EN.txt	CONE	6	13	n/a	n/a	pyFR	3	TJ013
1647.299	2.671	736245	WORD	n/a	wordpools/wordpool_EN.txt	CHIN	7	13	n/a	n/a	pyFR	3	TJ013
1649.97	2.756	737313	WORD	n/a	wordpools/wordpool_EN.txt	TRASH	8	13	n/a	n/a	pyFR	3	TJ013
1652.726	2.537	738415	WORD	n/a	wordpools/wordpool_EN.txt	SPEAR	9	13	n/a	n/a	pyFR	3	TJ013
1655.263	2.472	739430	WORD	n/a	wordpools/wordpool_EN.txt	CHEEK	10	13	n/a	n/a	pyFR	3	TJ013
1657.735	2.621	740419	WORD	n/a	wordpools/wordpool_EN.txt	BOAT	11	13	n/a	n/a	pyFR	3	TJ013
1660.356	2.588	741467	WORD	n/a	wordpools/wordpool_EN.txt	MULE	12	13	n/a	n/a	pyFR	3	TJ013
1662.944	2.655	742502	WORD	n/a	wordpools/wordpool_EN.txt	SKY	13	13	n/a	n/a	pyFR	3	TJ013
1665.599	2.521	743564	WORD	n/a	wordpools/wordpool_EN.txt	ARK	14	13	n/a	n/a	pyFR	3	TJ013
1668.12	1.606	744573	WORD	n/a	wordpools/wordpool_EN.txt	CHAIR	15	13	n/a	n/a	pyFR	3	TJ013
1669.726	1.017	745215	START	n/a	n/a	n/a	n/a	13	[-999 -999 -999]	-999	pyFR	3	TJ013
1670.743	3.022	745622	PROB	n/a	n/a	n/a	n/a	13	[1 1 3]	5	pyFR	3	TJ013
1673.765	3.088	746831	PROB	n/a	n/a	n/a	n/a	13	[5 6 2]	13	pyFR	3	TJ013
1676.853	3.623	748066	PROB	n/a	n/a	n/a	n/a	13	[6 3 8]	17	pyFR	3	TJ013
1680.476	2.805	749515	PROB	n/a	n/a	n/a	n/a	13	[2 5 3]	10	pyFR	3	TJ013
1683.281	3.774	750637	PROB	n/a	n/a	n/a	n/a	13	[6 7 5]	18	pyFR	3	TJ013
1687.055	2.455	752146	PROB	n/a	n/a	n/a	n/a	13	[7 1 9]	17	pyFR	3	TJ013
1689.51	3.333	753128	PROB	n/a	n/a	n/a	n/a	13	[2 9 8]	19	pyFR	3	TJ013
1692.843	1.242	754462	STOP	n/a	n/a	n/a	n/a	13	[-999 -999 -999]	-999	pyFR	3	TJ013
1694.085	4.229	754958	REC_START	n/a	n/a	n/a	-999	-999	n/a	n/a	pyFR	3	TJ013
1698.314	0.419	756650	REC_WORD	0.419	n/a	CLAY	-999	13	n/a	n/a	pyFR	3	TJ013
1698.733	0.385	756817	REC_WORD	0.385	n/a	EAR	-999	13	n/a	n/a	pyFR	3	TJ013
1699.118	1.058	756971	REC_WORD	1.058	n/a	ART	-999	13	n/a	n/a	pyFR	3	TJ013
1700.176	4.168	757395	REC_WORD_VV	4.168	n/a	VV	-999	13	n/a	n/a	pyFR	3	TJ013
1704.344	0.364	759062	REC_WORD	0.364	n/a	CLAY	-999	13	n/a	n/a	pyFR	3	TJ013
1704.708	0.221	759207	REC_WORD	0.221	n/a	EAR	-999	13	n/a	n/a	pyFR	3	TJ013
1704.929	13.982	759296	REC_WORD	13.982	n/a	ART	-999	13	n/a	n/a	pyFR	3	TJ013
1718.911	22.929	764888	REC_WORD_VV	22.929	n/a	VV	-999	13	n/a	n/a	pyFR	3	TJ013
1741.84	0.016	774060	TRIAL	n/a	n/a	n/a	-999	-999	n/a	n/a	pyFR	3	TJ013
1741.856	2.889	774066	ORIENT	n/a	n/a	n/a	-999	-999	n/a	n/a	pyFR	3	TJ013
1744.745	2.721	775222	WORD	n/a	wordpools/wordpool_EN.txt	FISH	1	14	n/a	n/a	pyFR	3	TJ013
1747.466	2.538	776310	WORD	n/a	wordpools/wordpool_EN.txt	TAIL	2	14	n/a	n/a	pyFR	3	TJ013
1750.004	2.723	777325	WORD	n/a	wordpools/wordpool_EN.txt	LAND	3	14	n/a	n/a	pyFR	3	TJ013
1752.727	2.704	778414	WORD	n/a	wordpools/wordpool_EN.txt	SMOKE	4	14	n/a	n/a	pyFR	3	TJ013
1755.431	2.638	779496	WORD	n/a	wordpools/wordpool_EN.txt	PASTE	5	14	n/a	n/a	pyFR	3	TJ013
1758.069	2.438	780551	WORD	n/a	wordpools/wordpool_EN.txt	RAT	6	14	n/a	n/a	pyFR	3	TJ013
1760.507	2.621	781526	WORD	n/a	wordpools/wordpool_EN.txt	SOAP	7	14	n/a	n/a	pyFR	3	TJ013
1763.128	2.805	782575	WORD	n/a	wordpools/wordpool_EN.txt	SPARK	8	14	n/a	n/a	pyFR	3	TJ013
1765.933	2.655	783697	WORD	n/a	wordpools/wordpool_EN.txt	RIB	9	14	n/a	n/a	pyFR	3	TJ013
1768.588	2.822	784759	WORD	n/a	wordpools/wordpool_EN.txt	HOOF	10	14	n/a	n/a	pyFR	3	TJ013
1771.41	2.755	785887	WORD	n/a	wordpools/wordpool_EN.txt	LAMP	11	14	n/a	n/a	pyFR	3	TJ013
1774.165	2.688	786989	WORD	n/a	wordpools/wordpool_EN.txt	KITE	12	14	n/a	n/a	pyFR	3	TJ013
1776.853	2.789	788064	WORD	n/a	wordpools/wordpool_EN.txt	JUDGE	13	14	n/a	n/a	pyFR	3	TJ013
1779.642	2.705	789180	WORD	n/a	wordpools/wordpool_EN.txt	STOVE	14	14	n/a	n/a	pyFR	3	TJ013
1782.347	1.621	790262	WORD	n/a	wordpools/wordpool_EN.txt	FORK	15	14	n/a	n/a	pyFR	3	TJ013
1783.968	1.0	790910	START	n/a	n/a	n/a	n/a	14	[-999 -999 -999]	-999	pyFR	3	TJ013
1784.968	5.56	791310	PROB	n/a	n/a	n/a	n/a	14	[4 1 7]	12	pyFR	3	TJ013
1790.528	3.757	793534	PROB	n/a	n/a	n/a	n/a	14	[4 1 1]	6	pyFR	3	TJ013
1794.285	2.555	795037	PROB	n/a	n/a	n/a	n/a	14	[4 6 3]	13	pyFR	3	TJ013
1796.84	4.091	796059	PROB	n/a	n/a	n/a	n/a	14	[4 8 2]	14	pyFR	3	TJ013
1800.931	2.555	797695	PROB	n/a	n/a	n/a	n/a	14	[2 1 8]	11	pyFR	3	TJ013
1803.486	5.741	798717	PROB	n/a	n/a	n/a	n/a	14	[6 3 6]	15	pyFR	3	TJ013
1809.227	1.222	801014	STOP	n/a	n/a	n/a	n/a	14	[-999 -999 -999]	-999	pyFR	3	TJ013
1810.449	2.594	801502	REC_START	n/a	n/a	n/a	-999	-999	n/a	n/a	pyFR	3	TJ013
1813.043	0.39	802540	REC_WORD	0.39	n/a	FISH	-999	14	n/a	n/a	pyFR	3	TJ013
1813.433	0.466	802696	REC_WORD	0.466	n/a	TAIL	-999	14	n/a	n/a	pyFR	3	TJ013
1813.899	0.395	802882	REC_WORD	0.395	n/a	LAND	-999	14	n/a	n/a	pyFR	3	TJ013
1814.294	1.622	803040	REC_WORD	1.622	n/a	SOAP	-999	14	n/a	n/a	pyFR	3	TJ013
1815.916	1.437	803689	REC_WORD_VV	1.437	n/a	VV	-999	14	n/a	n/a	pyFR	3	TJ013
1817.353	0.728	804264	REC_WORD	0.728	n/a	PASTE	-999	14	n/a	n/a	pyFR	3	TJ013
1818.081	16.664	804555	REC_WORD_VV	16.664	n/a	VV	-999	14	n/a	n/a	pyFR	3	TJ013
1834.745	24.577	811220	REC_WORD_VV	24.577	n/a	VV	-999	14	n/a	n/a	pyFR	3	TJ013
1859.322	0.016	821051	TRIAL	n/a	n/a	n/a	-999	-999	n/a	n/a	pyFR	3	TJ013
1859.338	2.972	821057	ORIENT	n/a	n/a	n/a	-999	-999	n/a	n/a	pyFR	3	TJ013
1862.31	2.805	822246	WORD	n/a	wordpools/wordpool_EN.txt	LIP	1	15	n/a	n/a	pyFR	3	TJ013
1865.115	2.538	823368	WORD	n/a	wordpools/wordpool_EN.txt	BREAD	2	15	n/a	n/a	pyFR	3	TJ013
1867.653	2.522	824383	WORD	n/a	wordpools/wordpool_EN.txt	SKI	3	15	n/a	n/a	pyFR	3	TJ013
1870.175	2.805	825392	WORD	n/a	wordpools/wordpool_EN.txt	FOOD	4	15	n/a	n/a	pyFR	3	TJ013
1872.98	2.822	826514	WORD	n/a	wordpools/wordpool_EN.txt	DOOR	5	15	n/a	n/a	pyFR	3	TJ013
1875.802	2.638	827643	WORD	n/a	wordpools/wordpool_EN.txt	HAT	6	15	n/a	n/a	pyFR	3	TJ013
1878.44	2.805	828698	WORD	n/a	wordpools/wordpool_EN.txt	CROW	7	15	n/a	n/a	pyFR	3	TJ013
1881.245	2.672	829820	WORD	n/a	wordpools/wordpool_EN.txt	VEST	8	15	n/a	n/a	pyFR	3	TJ013
1883.917	2.738	830889	WORD	n/a	wordpools/wordpool_EN.txt	LEG	9	15	n/a	n/a	pyFR	3	TJ013
1886.655	2.805	831984	WORD	n/a	wordpools/wordpool_EN.txt	LAWN	10	15	n/a	n/a	pyFR	3	TJ013
1889.46	2.672	833106	WORD	n/a	wordpools/wordpool_EN.txt	TENT	11	15	n/a	n/a	pyFR	3	TJ013
1892.132	2.671	834175	WORD	n/a	wordpools/wordpool_EN.txt	SCHOOL	12	15	n/a	n/a	pyFR	3	TJ013
1894.803	2.672	835243	WORD	n/a	wordpools/wordpool_EN.txt	CLIFF	13	15	n/a	n/a	pyFR	3	TJ013
1897.475	2.504	836312	WORD	n/a	wordpools/wordpool_EN.txt	RAKE	14	15	n/a	n/a	pyFR	3	TJ013
1899.979	1.605	837313	WORD	n/a	wordpools/wordpool_EN.txt	POOL	15	15	n/a	n/a	pyFR	3	TJ013
1901.584	1.118	837955	START	n/a	n/a	n/a	n/a	15	[-999 -999 -999]	-999	pyFR	3	TJ013
1902.702	4.541	838402	PROB	n/a	n/a	n/a	n/a	15	[6 4 7]	17	pyFR	3	TJ013
1907.243	5.894	840219	PROB	n/a	n/a	n/a	n/a	15	[9 5 9]	23	pyFR	3	TJ013
1913.137	3.039	842576	PROB	n/a	n/a	n/a	n/a	15	[3 6 1]	10	pyFR	3	TJ013
1916.176	3.423	843792	PROB	n/a	n/a	n/a	n/a	15	[1 8 3]	12	pyFR	3	TJ013
1919.599	5.036	845161	PROB	n/a	n/a	n/a	n/a	15	[2 2 5]	9	pyFR	3	TJ013
1924.635	1.11	847175	STOP	n/a	n/a	n/a	n/a	15	[-999 -999 -999]	-999	pyFR	3	TJ013
1925.745	4.029	847619	REC_START	n/a	n/a	n/a	-999	-999	n/a	n/a	pyFR	3	TJ013
1929.774	0.255	849231	REC_WORD	0.255	n/a	BREAD	-999	15	n/a	n/a	pyFR	3	TJ013
1930.029	0.292	849333	REC_WORD	0.292	n/a	LIP	-999	15	n/a	n/a	pyFR	3	TJ013
1930.321	0.46	849450	REC_WORD	0.46	n/a	FOOD	-999	15	n/a	n/a	pyFR	3	TJ013
1930.781	1.423	849634	REC_WORD	1.423	n/a	SERVE	-999	15	n/a	n/a	pyFR	3	TJ013
1932.204	2.901	850203	REC_WORD_VV	2.901	n/a	VV	-999	15	n/a	n/a	pyFR	3	TJ013
1935.105	1.0	851363	REC_WORD_VV	1.0	n/a	VV	-999	15	n/a	n/a	pyFR	3	TJ013
1936.105	39.231	851763	REC_WORD_VV	39.231	n/a	VV	-999	15	n/a	n/a	pyFR	3	TJ013
1975.336	0.015	867455	TRIAL	n/a	n/a	n/a	-999	-999	n/a	n/a	pyFR	3	TJ013
1975.351	2.789	867461	ORIENT	n/a	n/a	n/a	-999	-999	n/a	n/a	pyFR	3	TJ013
1978.14	2.622	868577	WORD	n/a	wordpools/wordpool_EN.txt	SHEET	1	16	n/a	n/a	pyFR	3	TJ013
1980.762	2.504	869625	WORD	n/a	wordpools/wordpool_EN.txt	GUARD	2	16	n/a	n/a	pyFR	3	TJ013
1983.266	2.571	870627	WORD	n/a	wordpools/wordpool_EN.txt	BEE	3	16	n/a	n/a	pyFR	3	TJ013
1985.837	2.722	871655	WORD	n/a	wordpools/wordpool_EN.txt	SNAIL	4	16	n/a	n/a	pyFR	3	TJ013
1988.559	2.488	872744	WORD	n/a	wordpools/wordpool_EN.txt	BAT	5	16	n/a	n/a	pyFR	3	TJ013
1991.047	2.706	873739	WORD	n/a	wordpools/wordpool_EN.txt	SQUARE	6	16	n/a	n/a	pyFR	3	TJ013
1993.753	2.604	874822	WORD	n/a	wordpools/wordpool_EN.txt	STAIR	7	16	n/a	n/a	pyFR	3	TJ013
1996.357	2.454	875863	WORD	n/a	wordpools/wordpool_EN.txt	BRANCH	8	16	n/a	n/a	pyFR	3	TJ013
1998.811	2.655	876845	WORD	n/a	wordpools/wordpool_EN.txt	HOSE	9	16	n/a	n/a	pyFR	3	TJ013
2001.466	2.521	877907	WORD	n/a	wordpools/wordpool_EN.txt	STORM	10	16	n/a	n/a	pyFR	3	TJ013
2003.987	2.538	878915	WORD	n/a	wordpools/wordpool_EN.txt	GEESE	11	16	n/a	n/a	pyFR	3	TJ013
2006.525	2.638	879930	WORD	n/a	wordpools/wordpool_EN.txt	DOG	12	16	n/a	n/a	pyFR	3	TJ013
2009.163	2.689	880985	WORD	n/a	wordpools/wordpool_EN.txt	SNOW	13	16	n/a	n/a	pyFR	3	TJ013
2011.852	2.604	882061	WORD	n/a	wordpools/wordpool_EN.txt	BOX	14	16	n/a	n/a	pyFR	3	TJ013
2014.456	1.605	883103	WORD	n/a	wordpools/wordpool_EN.txt	CLOWN	15	16	n/a	n/a	pyFR	3	TJ013
2016.061	1.1	883745	START	n/a	n/a	n/a	n/a	16	[-999 -999 -999]	-999	pyFR	3	TJ013
2017.161	3.457	884184	PROB	n/a	n/a	n/a	n/a	16	[3 5 2]	10	pyFR	3	TJ013
2020.618	3.74	885567	PROB	n/a	n/a	n/a	n/a	16	[8 5 5]	18	pyFR	3	TJ013
2024.358	3.039	887063	PROB	n/a	n/a	n/a	n/a	16	[4 1 2]	7	pyFR	3	TJ013
2027.397	2.922	888279	PROB	n/a	n/a	n/a	n/a	16	[6 5 5]	16	pyFR	3	TJ013
2030.319	3.022	889448	PROB	n/a	n/a	n/a	n/a	16	[7 2 2]	11	pyFR	3	TJ013
2033.341	3.03	890656	PROB	n/a	n/a	n/a	n/a	16	[1 8 5]	14	pyFR	3	TJ013
2036.371	1.145	891868	STOP	n/a	n/a	n/a	n/a	16	[-999 -999 -999]	-999	pyFR	3	TJ013
2037.516	3.762	892326	REC_START	n/a	n/a	n/a	-999	-999	n/a	n/a	pyFR	3	TJ013
2041.278	0.393	893831	REC_WORD	0.393	n/a	SHEET	-999	16	n/a	n/a	pyFR	3	TJ013
2041.671	1.991	893988	REC_WORD	1.991	n/a	SQUARE	-999	16	n/a	n/a	pyFR	3	TJ013
2043.662	2.534	894785	REC_WORD	2.534	n/a	FLOOR	-999	16	n/a	n/a	pyFR	3	TJ013
2046.196	5.712	895798	REC_WORD_VV	5.712	n/a	VV	-999	16	n/a	n/a	pyFR	3	TJ013
2051.908	0.193	898083	REC_WORD	0.193	n/a	SHEET	-999	16	n/a	n/a	pyFR	3	TJ013
2052.101	0.331	898160	REC_WORD	0.331	n/a	SQUARE	-999	16	n/a	n/a	pyFR	3	TJ013
2052.432	613.523	898292	REC_WORD	613.523	n/a	FLOOR	-999	16	n/a	n/a	pyFR	3	TJ013
2665.955	0.1	1143694	SESS_END	n/a	n/a	n/a	-999	-999	n/a	n/a	pyFR	3	TJ013
2666.055	0.0	1143734	E	n/a	n/a	n/a	-999	-999	n/a	n/a	pyFR	3	TJ013
