onset	duration	sample	trial_type	response_time	stim_file	item_name	serialpos	list	test	answer	experiment	session	subject
0.0	0.001	1593246	B	n/a	n/a	n/a	-999	-999	n/a	n/a	pyFR	1	TJ060
0.001	53.404	1593248	SESS_START	n/a	n/a	n/a	-999	-999	n/a	n/a	pyFR	1	TJ060
53.405	0.02	1700055	START	n/a	n/a	n/a	n/a	0	[-999 -999 -999]	-999	pyFR	1	TJ060
53.425	3.474	1700095	PROB	n/a	n/a	n/a	n/a	0	[1 6 7]	14	pyFR	1	TJ060
56.899	3.707	1707043	PROB	n/a	n/a	n/a	n/a	0	[6 3 2]	11	pyFR	1	TJ060
60.606	2.606	1714457	PROB	n/a	n/a	n/a	n/a	0	[9 3 1]	13	pyFR	1	TJ060
63.212	2.354	1719669	PROB	n/a	n/a	n/a	n/a	0	[1 4 2]	7	pyFR	1	TJ060
65.566	3.858	1724377	PROB	n/a	n/a	n/a	n/a	0	[9 5 3]	17	pyFR	1	TJ060
69.424	2.455	1732093	PROB	n/a	n/a	n/a	n/a	0	[2 4 4]	10	pyFR	1	TJ060
71.879	2.371	1737003	PROB	n/a	n/a	n/a	n/a	0	[1 2 7]	10	pyFR	1	TJ060
74.25	1.737	1741745	PROB	n/a	n/a	n/a	n/a	0	[1 1 7]	9	pyFR	1	TJ060
75.987	2.472	1745218	PROB	n/a	n/a	n/a	n/a	0	[1 6 3]	10	pyFR	1	TJ060
78.459	5.296	1750162	PROB	n/a	n/a	n/a	n/a	0	[6 5 9]	20	pyFR	1	TJ060
83.755	43.87	1760754	STOP	n/a	n/a	n/a	n/a	0	[-999 -999 -999]	-999	pyFR	1	TJ060
127.625	0.016	1848493	TRIAL	n/a	n/a	n/a	-999	1	n/a	n/a	pyFR	1	TJ060
127.641	3.022	1848525	ORIENT	n/a	n/a	n/a	-999	1	n/a	n/a	pyFR	1	TJ060
130.663	2.756	1854569	WORD	n/a	wordpools/wordpool_EN.txt	SIGN	1	1	n/a	n/a	pyFR	1	TJ060
133.419	2.672	1860081	WORD	n/a	wordpools/wordpool_EN.txt	DART	2	1	n/a	n/a	pyFR	1	TJ060
136.091	2.622	1865425	WORD	n/a	wordpools/wordpool_EN.txt	DRUM	3	1	n/a	n/a	pyFR	1	TJ060
138.713	2.555	1870669	WORD	n/a	wordpools/wordpool_EN.txt	PEA	4	1	n/a	n/a	pyFR	1	TJ060
141.268	2.722	1875779	WORD	n/a	wordpools/wordpool_EN.txt	BOX	5	1	n/a	n/a	pyFR	1	TJ060
143.99	2.488	1881223	WORD	n/a	wordpools/wordpool_EN.txt	GRAPE	6	1	n/a	n/a	pyFR	1	TJ060
146.478	2.505	1886199	WORD	n/a	wordpools/wordpool_EN.txt	SHELL	7	1	n/a	n/a	pyFR	1	TJ060
148.983	2.589	1891209	WORD	n/a	wordpools/wordpool_EN.txt	PIN	8	1	n/a	n/a	pyFR	1	TJ060
151.572	2.471	1896387	WORD	n/a	wordpools/wordpool_EN.txt	HOSE	9	1	n/a	n/a	pyFR	1	TJ060
154.043	2.606	1901329	WORD	n/a	wordpools/wordpool_EN.txt	SUIT	10	1	n/a	n/a	pyFR	1	TJ060
156.649	2.772	1906540	WORD	n/a	wordpools/wordpool_EN.txt	LEAF	11	1	n/a	n/a	pyFR	1	TJ060
159.421	2.739	1912084	WORD	n/a	wordpools/wordpool_EN.txt	TOOL	12	1	n/a	n/a	pyFR	1	TJ060
162.16	2.455	1917562	WORD	n/a	wordpools/wordpool_EN.txt	SLIME	13	1	n/a	n/a	pyFR	1	TJ060
164.615	2.605	1922472	WORD	n/a	wordpools/wordpool_EN.txt	LIP	14	1	n/a	n/a	pyFR	1	TJ060
167.22	1.621	1927682	WORD	n/a	wordpools/wordpool_EN.txt	BOAT	15	1	n/a	n/a	pyFR	1	TJ060
168.841	1.017	1930924	START	n/a	n/a	n/a	n/a	1	[-999 -999 -999]	-999	pyFR	1	TJ060
169.858	3.39	1932958	PROB	n/a	n/a	n/a	n/a	1	[4 2 9]	15	pyFR	1	TJ060
173.248	3.708	1939738	PROB	n/a	n/a	n/a	n/a	1	[4 9 7]	20	pyFR	1	TJ060
176.956	2.689	1947154	PROB	n/a	n/a	n/a	n/a	1	[2 8 4]	14	pyFR	1	TJ060
179.645	3.456	1952532	PROB	n/a	n/a	n/a	n/a	1	[2 8 6]	16	pyFR	1	TJ060
183.101	2.906	1959444	PROB	n/a	n/a	n/a	n/a	1	[2 6 8]	16	pyFR	1	TJ060
186.007	3.992	1965256	PROB	n/a	n/a	n/a	n/a	1	[1 7 5]	13	pyFR	1	TJ060
189.999	1.119	1973240	STOP	n/a	n/a	n/a	n/a	1	[-999 -999 -999]	-999	pyFR	1	TJ060
191.118	1.54	1975478	REC_START	n/a	n/a	n/a	-999	1	n/a	n/a	pyFR	1	TJ060
192.658	3.465	1978558	REC_WORD	3.465	n/a	SLIME	-999	1	n/a	n/a	pyFR	1	TJ060
196.123	3.709	1985488	REC_WORD	3.709	n/a	LIP	-999	1	n/a	n/a	pyFR	1	TJ060
199.832	2.557	1992905	REC_WORD	2.557	n/a	GRAPE	-999	1	n/a	n/a	pyFR	1	TJ060
202.389	2.115	1998019	REC_WORD	2.115	n/a	LEAF	-999	1	n/a	n/a	pyFR	1	TJ060
204.504	1.817	2002249	REC_WORD	1.817	n/a	TOOL	-999	1	n/a	n/a	pyFR	1	TJ060
206.321	1.931	2005883	REC_WORD	1.931	n/a	SHELL	-999	1	n/a	n/a	pyFR	1	TJ060
208.252	3.985	2009745	REC_WORD	3.985	n/a	PEA	-999	1	n/a	n/a	pyFR	1	TJ060
212.237	29.549	2017715	REC_WORD	29.549	n/a	DRUM	-999	1	n/a	n/a	pyFR	1	TJ060
241.786	0.016	2076812	TRIAL	n/a	n/a	n/a	-999	2	n/a	n/a	pyFR	1	TJ060
241.802	2.688	2076844	ORIENT	n/a	n/a	n/a	-999	2	n/a	n/a	pyFR	1	TJ060
244.49	2.439	2082220	WORD	n/a	wordpools/wordpool_EN.txt	JUDGE	1	2	n/a	n/a	pyFR	1	TJ060
246.929	2.438	2087098	WORD	n/a	wordpools/wordpool_EN.txt	BRICK	2	2	n/a	n/a	pyFR	1	TJ060
249.367	2.489	2091974	WORD	n/a	wordpools/wordpool_EN.txt	WORLD	3	2	n/a	n/a	pyFR	1	TJ060
251.856	2.505	2096952	WORD	n/a	wordpools/wordpool_EN.txt	WOOD	4	2	n/a	n/a	pyFR	1	TJ060
254.361	2.739	2101962	WORD	n/a	wordpools/wordpool_EN.txt	SHIP	5	2	n/a	n/a	pyFR	1	TJ060
257.1	2.555	2107440	WORD	n/a	wordpools/wordpool_EN.txt	COAT	6	2	n/a	n/a	pyFR	1	TJ060
259.655	2.655	2112550	WORD	n/a	wordpools/wordpool_EN.txt	VAN	7	2	n/a	n/a	pyFR	1	TJ060
262.31	2.488	2117860	WORD	n/a	wordpools/wordpool_EN.txt	TOOTH	8	2	n/a	n/a	pyFR	1	TJ060
264.798	2.589	2122836	WORD	n/a	wordpools/wordpool_EN.txt	SKI	9	2	n/a	n/a	pyFR	1	TJ060
267.387	2.689	2128014	WORD	n/a	wordpools/wordpool_EN.txt	CHEEK	10	2	n/a	n/a	pyFR	1	TJ060
270.076	2.772	2133392	WORD	n/a	wordpools/wordpool_EN.txt	PEACH	11	2	n/a	n/a	pyFR	1	TJ060
272.848	2.704	2138936	WORD	n/a	wordpools/wordpool_EN.txt	SMOKE	12	2	n/a	n/a	pyFR	1	TJ060
275.552	2.456	2144344	WORD	n/a	wordpools/wordpool_EN.txt	FLUTE	13	2	n/a	n/a	pyFR	1	TJ060
278.008	2.504	2149256	WORD	n/a	wordpools/wordpool_EN.txt	SOCK	14	2	n/a	n/a	pyFR	1	TJ060
280.512	1.622	2154263	WORD	n/a	wordpools/wordpool_EN.txt	THREAD	15	2	n/a	n/a	pyFR	1	TJ060
282.134	1.051	2157507	START	n/a	n/a	n/a	n/a	2	[-999 -999 -999]	-999	pyFR	1	TJ060
283.185	4.542	2159609	PROB	n/a	n/a	n/a	n/a	2	[6 6 7]	19	pyFR	1	TJ060
287.727	6.063	2168693	PROB	n/a	n/a	n/a	n/a	2	[3 3 4]	10	pyFR	1	TJ060
293.79	4.342	2180819	PROB	n/a	n/a	n/a	n/a	2	[9 8 4]	21	pyFR	1	TJ060
298.132	2.705	2189503	PROB	n/a	n/a	n/a	n/a	2	[3 9 1]	13	pyFR	1	TJ060
300.837	4.174	2194913	PROB	n/a	n/a	n/a	n/a	2	[3 7 7]	17	pyFR	1	TJ060
305.011	1.121	2203261	STOP	n/a	n/a	n/a	n/a	2	[-999 -999 -999]	-999	pyFR	1	TJ060
306.132	2.37	2205503	REC_START	n/a	n/a	n/a	-999	2	n/a	n/a	pyFR	1	TJ060
308.502	2.98	2210243	REC_WORD	2.98	n/a	FLUTE	-999	2	n/a	n/a	pyFR	1	TJ060
311.482	1.713	2216203	REC_WORD	1.713	n/a	TOOTH	-999	2	n/a	n/a	pyFR	1	TJ060
313.195	2.474	2219629	REC_WORD	2.474	n/a	THREAD	-999	2	n/a	n/a	pyFR	1	TJ060
315.669	10.188	2224577	REC_WORD	10.188	n/a	SHIP	-999	2	n/a	n/a	pyFR	1	TJ060
325.857	2.067	2244952	REC_WORD	2.067	n/a	JUDGE	-999	2	n/a	n/a	pyFR	1	TJ060
327.924	2.175	2249086	REC_WORD	2.175	n/a	WORLD	-999	2	n/a	n/a	pyFR	1	TJ060
330.099	5.204	2253436	REC_WORD	5.204	n/a	BRICK	-999	2	n/a	n/a	pyFR	1	TJ060
335.303	27.326	2263844	REC_WORD	27.326	n/a	WOOD	-999	2	n/a	n/a	pyFR	1	TJ060
362.629	0.015	2318495	TRIAL	n/a	n/a	n/a	-999	3	n/a	n/a	pyFR	1	TJ060
362.644	2.705	2318525	ORIENT	n/a	n/a	n/a	-999	3	n/a	n/a	pyFR	1	TJ060
365.349	2.572	2323935	WORD	n/a	wordpools/wordpool_EN.txt	HAND	1	3	n/a	n/a	pyFR	1	TJ060
367.921	2.823	2329079	WORD	n/a	wordpools/wordpool_EN.txt	PANTS	2	3	n/a	n/a	pyFR	1	TJ060
370.744	2.655	2334725	WORD	n/a	wordpools/wordpool_EN.txt	SHEEP	3	3	n/a	n/a	pyFR	1	TJ060
373.399	2.555	2340035	WORD	n/a	wordpools/wordpool_EN.txt	DEER	4	3	n/a	n/a	pyFR	1	TJ060
375.954	2.522	2345145	WORD	n/a	wordpools/wordpool_EN.txt	TANK	5	3	n/a	n/a	pyFR	1	TJ060
378.476	2.488	2350189	WORD	n/a	wordpools/wordpool_EN.txt	PASTE	6	3	n/a	n/a	pyFR	1	TJ060
380.964	2.806	2355165	WORD	n/a	wordpools/wordpool_EN.txt	BEACH	7	3	n/a	n/a	pyFR	1	TJ060
383.77	2.672	2360777	WORD	n/a	wordpools/wordpool_EN.txt	VEST	8	3	n/a	n/a	pyFR	1	TJ060
386.442	2.822	2366121	WORD	n/a	wordpools/wordpool_EN.txt	COW	9	3	n/a	n/a	pyFR	1	TJ060
389.264	2.723	2371765	WORD	n/a	wordpools/wordpool_EN.txt	FLOOR	10	3	n/a	n/a	pyFR	1	TJ060
391.987	2.805	2377211	WORD	n/a	wordpools/wordpool_EN.txt	STRAW	11	3	n/a	n/a	pyFR	1	TJ060
394.792	2.721	2382821	WORD	n/a	wordpools/wordpool_EN.txt	FUDGE	12	3	n/a	n/a	pyFR	1	TJ060
397.513	2.557	2388263	WORD	n/a	wordpools/wordpool_EN.txt	WAVE	13	3	n/a	n/a	pyFR	1	TJ060
400.07	2.722	2393377	WORD	n/a	wordpools/wordpool_EN.txt	TAPE	14	3	n/a	n/a	pyFR	1	TJ060
402.792	1.621	2398820	WORD	n/a	wordpools/wordpool_EN.txt	PEN	15	3	n/a	n/a	pyFR	1	TJ060
404.413	1.15	2402062	START	n/a	n/a	n/a	n/a	3	[-999 -999 -999]	-999	pyFR	1	TJ060
405.563	5.245	2404362	PROB	n/a	n/a	n/a	n/a	3	[9 6 9]	24	pyFR	1	TJ060
410.808	7.098	2414852	PROB	n/a	n/a	n/a	n/a	3	[5 4 8]	17	pyFR	1	TJ060
417.906	3.524	2429048	PROB	n/a	n/a	n/a	n/a	3	[4 3 5]	12	pyFR	1	TJ060
421.43	5.547	2436096	PROB	n/a	n/a	n/a	n/a	3	[7 8 3]	18	pyFR	1	TJ060
426.977	1.134	2447190	STOP	n/a	n/a	n/a	n/a	3	[-999 -999 -999]	-999	pyFR	1	TJ060
428.111	1.503	2449458	REC_START	n/a	n/a	n/a	-999	3	n/a	n/a	pyFR	1	TJ060
429.614	1.423	2452464	REC_WORD	1.423	n/a	BEACH	-999	3	n/a	n/a	pyFR	1	TJ060
431.037	2.885	2455310	REC_WORD	2.885	n/a	WAVE	-999	3	n/a	n/a	pyFR	1	TJ060
433.922	2.413	2461080	REC_WORD	2.413	n/a	STRAW	-999	3	n/a	n/a	pyFR	1	TJ060
436.335	1.801	2465906	REC_WORD	1.801	n/a	FLOOR	-999	3	n/a	n/a	pyFR	1	TJ060
438.136	8.224	2469508	REC_WORD	8.224	n/a	TAPE	-999	3	n/a	n/a	pyFR	1	TJ060
446.36	81.387	2485955	REC_WORD	81.387	n/a	FUDGE	-999	3	n/a	n/a	pyFR	1	TJ060
527.747	0.016	2648727	TRIAL	n/a	n/a	n/a	-999	4	n/a	n/a	pyFR	1	TJ060
527.763	2.922	2648759	ORIENT	n/a	n/a	n/a	-999	4	n/a	n/a	pyFR	1	TJ060
530.685	2.455	2654603	WORD	n/a	wordpools/wordpool_EN.txt	MOTH	1	4	n/a	n/a	pyFR	1	TJ060
533.14	2.672	2659513	WORD	n/a	wordpools/wordpool_EN.txt	STEAM	2	4	n/a	n/a	pyFR	1	TJ060
535.812	2.522	2664857	WORD	n/a	wordpools/wordpool_EN.txt	SHARK	3	4	n/a	n/a	pyFR	1	TJ060
538.334	2.472	2669901	WORD	n/a	wordpools/wordpool_EN.txt	WOLF	4	4	n/a	n/a	pyFR	1	TJ060
540.806	2.721	2674845	WORD	n/a	wordpools/wordpool_EN.txt	BOOT	5	4	n/a	n/a	pyFR	1	TJ060
543.527	2.723	2680287	WORD	n/a	wordpools/wordpool_EN.txt	FORK	6	4	n/a	n/a	pyFR	1	TJ060
546.25	2.488	2685733	WORD	n/a	wordpools/wordpool_EN.txt	VINE	7	4	n/a	n/a	pyFR	1	TJ060
548.738	2.506	2690709	WORD	n/a	wordpools/wordpool_EN.txt	HORSE	8	4	n/a	n/a	pyFR	1	TJ060
551.244	2.471	2695721	WORD	n/a	wordpools/wordpool_EN.txt	MAP	9	4	n/a	n/a	pyFR	1	TJ060
553.715	2.572	2700663	WORD	n/a	wordpools/wordpool_EN.txt	STAR	10	4	n/a	n/a	pyFR	1	TJ060
556.287	2.455	2705807	WORD	n/a	wordpools/wordpool_EN.txt	QUEEN	11	4	n/a	n/a	pyFR	1	TJ060
558.742	2.455	2710717	WORD	n/a	wordpools/wordpool_EN.txt	STRING	12	4	n/a	n/a	pyFR	1	TJ060
561.197	2.438	2715627	WORD	n/a	wordpools/wordpool_EN.txt	SHOE	13	4	n/a	n/a	pyFR	1	TJ060
563.635	2.639	2720503	WORD	n/a	wordpools/wordpool_EN.txt	TRASH	14	4	n/a	n/a	pyFR	1	TJ060
566.274	1.621	2725780	WORD	n/a	wordpools/wordpool_EN.txt	ARK	15	4	n/a	n/a	pyFR	1	TJ060
567.895	1.051	2729022	START	n/a	n/a	n/a	n/a	4	[-999 -999 -999]	-999	pyFR	1	TJ060
568.946	4.225	2731124	PROB	n/a	n/a	n/a	n/a	4	[9 2 4]	15	pyFR	1	TJ060
573.171	2.354	2739574	PROB	n/a	n/a	n/a	n/a	4	[1 2 5]	8	pyFR	1	TJ060
575.525	2.339	2744282	PROB	n/a	n/a	n/a	n/a	4	[2 6 1]	9	pyFR	1	TJ060
577.864	5.929	2748960	PROB	n/a	n/a	n/a	n/a	4	[8 5 4]	17	pyFR	1	TJ060
583.793	2.754	2760818	PROB	n/a	n/a	n/a	n/a	4	[3 7 2]	12	pyFR	1	TJ060
586.547	6.158	2766326	PROB	n/a	n/a	n/a	n/a	4	[6 2 7]	15	pyFR	1	TJ060
592.705	1.243	2778642	STOP	n/a	n/a	n/a	n/a	4	[-999 -999 -999]	-999	pyFR	1	TJ060
593.948	1.439	2781128	REC_START	n/a	n/a	n/a	-999	4	n/a	n/a	pyFR	1	TJ060
595.387	20.179	2784006	REC_WORD	20.179	n/a	ARK	-999	4	n/a	n/a	pyFR	1	TJ060
615.566	2.016	2824363	REC_WORD	2.016	n/a	STAR	-999	4	n/a	n/a	pyFR	1	TJ060
617.582	3.207	2828395	REC_WORD	3.207	n/a	QUEEN	-999	4	n/a	n/a	pyFR	1	TJ060
620.789	2.768	2834809	REC_WORD	2.768	n/a	VINE	-999	4	n/a	n/a	pyFR	1	TJ060
623.557	2.334	2840345	REC_WORD	2.334	n/a	MOTH	-999	4	n/a	n/a	pyFR	1	TJ060
625.891	22.534	2845013	REC_WORD	22.534	n/a	FORK	-999	4	n/a	n/a	pyFR	1	TJ060
648.425	0.016	2890080	TRIAL	n/a	n/a	n/a	-999	5	n/a	n/a	pyFR	1	TJ060
648.441	2.922	2890112	ORIENT	n/a	n/a	n/a	-999	5	n/a	n/a	pyFR	1	TJ060
651.363	2.773	2895956	WORD	n/a	wordpools/wordpool_EN.txt	SNOW	1	5	n/a	n/a	pyFR	1	TJ060
654.136	2.505	2901502	WORD	n/a	wordpools/wordpool_EN.txt	TRAIN	2	5	n/a	n/a	pyFR	1	TJ060
656.641	2.756	2906512	WORD	n/a	wordpools/wordpool_EN.txt	LAKE	3	5	n/a	n/a	pyFR	1	TJ060
659.397	2.505	2912024	WORD	n/a	wordpools/wordpool_EN.txt	FRUIT	4	5	n/a	n/a	pyFR	1	TJ060
661.902	2.604	2917034	WORD	n/a	wordpools/wordpool_EN.txt	SCHOOL	5	5	n/a	n/a	pyFR	1	TJ060
664.506	2.539	2922242	WORD	n/a	wordpools/wordpool_EN.txt	MOLE	6	5	n/a	n/a	pyFR	1	TJ060
667.045	2.488	2927320	WORD	n/a	wordpools/wordpool_EN.txt	BED	7	5	n/a	n/a	pyFR	1	TJ060
669.533	2.74	2932296	WORD	n/a	wordpools/wordpool_EN.txt	JET	8	5	n/a	n/a	pyFR	1	TJ060
672.273	2.655	2937776	WORD	n/a	wordpools/wordpool_EN.txt	CORN	9	5	n/a	n/a	pyFR	1	TJ060
674.928	2.604	2943086	WORD	n/a	wordpools/wordpool_EN.txt	PALM	10	5	n/a	n/a	pyFR	1	TJ060
677.532	2.807	2948294	WORD	n/a	wordpools/wordpool_EN.txt	FOAM	11	5	n/a	n/a	pyFR	1	TJ060
680.339	2.472	2953908	WORD	n/a	wordpools/wordpool_EN.txt	MULE	12	5	n/a	n/a	pyFR	1	TJ060
682.811	2.789	2958852	WORD	n/a	wordpools/wordpool_EN.txt	BRANCH	13	5	n/a	n/a	pyFR	1	TJ060
685.6	2.488	2964430	WORD	n/a	wordpools/wordpool_EN.txt	SEAL	14	5	n/a	n/a	pyFR	1	TJ060
688.088	1.621	2969405	WORD	n/a	wordpools/wordpool_EN.txt	APE	15	5	n/a	n/a	pyFR	1	TJ060
689.709	1.135	2972647	START	n/a	n/a	n/a	n/a	5	[-999 -999 -999]	-999	pyFR	1	TJ060
690.844	2.872	2974917	PROB	n/a	n/a	n/a	n/a	5	[6 6 2]	14	pyFR	1	TJ060
693.716	7.014	2980661	PROB	n/a	n/a	n/a	n/a	5	[6 3 8]	17	pyFR	1	TJ060
700.73	4.793	2994689	PROB	n/a	n/a	n/a	n/a	5	[6 4 3]	13	pyFR	1	TJ060
705.523	3.257	3004275	PROB	n/a	n/a	n/a	n/a	5	[5 6 6]	17	pyFR	1	TJ060
708.78	2.141	3010789	PROB	n/a	n/a	n/a	n/a	5	[5 6 6]	17	pyFR	1	TJ060
710.921	1.437	3015071	STOP	n/a	n/a	n/a	n/a	5	[-999 -999 -999]	-999	pyFR	1	TJ060
712.358	1.943	3017945	REC_START	n/a	n/a	n/a	-999	5	n/a	n/a	pyFR	1	TJ060
714.301	2.297	3021831	REC_WORD	2.297	n/a	MOLE	-999	5	n/a	n/a	pyFR	1	TJ060
716.598	5.059	3026425	REC_WORD	5.059	n/a	SCHOOL	-999	5	n/a	n/a	pyFR	1	TJ060
721.657	2.34	3036543	REC_WORD	2.34	n/a	FRUIT	-999	5	n/a	n/a	pyFR	1	TJ060
723.997	2.086	3041223	REC_WORD	2.086	n/a	LAKE	-999	5	n/a	n/a	pyFR	1	TJ060
726.083	2.381	3045395	REC_WORD	2.381	n/a	MULE	-999	5	n/a	n/a	pyFR	1	TJ060
728.464	45.65	3050156	REC_WORD	45.65	n/a	SEAL	-999	5	n/a	n/a	pyFR	1	TJ060
774.114	0.016	3141455	TRIAL	n/a	n/a	n/a	-999	6	n/a	n/a	pyFR	1	TJ060
774.13	2.789	3141487	ORIENT	n/a	n/a	n/a	-999	6	n/a	n/a	pyFR	1	TJ060
776.919	2.822	3147065	WORD	n/a	wordpools/wordpool_EN.txt	CASH	1	6	n/a	n/a	pyFR	1	TJ060
779.741	2.455	3152709	WORD	n/a	wordpools/wordpool_EN.txt	MAIL	2	6	n/a	n/a	pyFR	1	TJ060
782.196	2.438	3157619	WORD	n/a	wordpools/wordpool_EN.txt	BANK	3	6	n/a	n/a	pyFR	1	TJ060
784.634	2.472	3162495	WORD	n/a	wordpools/wordpool_EN.txt	PLANE	4	6	n/a	n/a	pyFR	1	TJ060
787.106	2.572	3167439	WORD	n/a	wordpools/wordpool_EN.txt	DITCH	5	6	n/a	n/a	pyFR	1	TJ060
789.678	2.538	3172583	WORD	n/a	wordpools/wordpool_EN.txt	CARD	6	6	n/a	n/a	pyFR	1	TJ060
792.216	2.773	3177659	WORD	n/a	wordpools/wordpool_EN.txt	BAG	7	6	n/a	n/a	pyFR	1	TJ060
794.989	2.588	3183205	WORD	n/a	wordpools/wordpool_EN.txt	ROPE	8	6	n/a	n/a	pyFR	1	TJ060
797.577	2.689	3188381	WORD	n/a	wordpools/wordpool_EN.txt	RICE	9	6	n/a	n/a	pyFR	1	TJ060
800.266	2.488	3193759	WORD	n/a	wordpools/wordpool_EN.txt	HILL	10	6	n/a	n/a	pyFR	1	TJ060
802.754	2.755	3198735	WORD	n/a	wordpools/wordpool_EN.txt	DRESS	11	6	n/a	n/a	pyFR	1	TJ060
805.509	2.623	3204245	WORD	n/a	wordpools/wordpool_EN.txt	DOCK	12	6	n/a	n/a	pyFR	1	TJ060
808.132	2.488	3209491	WORD	n/a	wordpools/wordpool_EN.txt	CUP	13	6	n/a	n/a	pyFR	1	TJ060
810.62	2.439	3214466	WORD	n/a	wordpools/wordpool_EN.txt	PRINCE	14	6	n/a	n/a	pyFR	1	TJ060
813.059	1.621	3219344	WORD	n/a	wordpools/wordpool_EN.txt	POND	15	6	n/a	n/a	pyFR	1	TJ060
814.68	0.816	3222586	START	n/a	n/a	n/a	n/a	6	[-999 -999 -999]	-999	pyFR	1	TJ060
815.496	2.907	3224218	PROB	n/a	n/a	n/a	n/a	6	[7 4 3]	14	pyFR	1	TJ060
818.403	1.737	3230032	PROB	n/a	n/a	n/a	n/a	6	[7 3 3]	13	pyFR	1	TJ060
820.14	3.858	3233506	PROB	n/a	n/a	n/a	n/a	6	[4 4 5]	13	pyFR	1	TJ060
823.998	3.24	3241222	PROB	n/a	n/a	n/a	n/a	6	[3 2 2]	7	pyFR	1	TJ060
827.238	1.903	3247702	PROB	n/a	n/a	n/a	n/a	6	[3 1 9]	13	pyFR	1	TJ060
829.141	3.574	3251508	PROB	n/a	n/a	n/a	n/a	6	[3 1 5]	9	pyFR	1	TJ060
832.715	3.278	3258656	PROB	n/a	n/a	n/a	n/a	6	[1 5 8]	14	pyFR	1	TJ060
835.993	1.065	3265212	STOP	n/a	n/a	n/a	n/a	6	[-999 -999 -999]	-999	pyFR	1	TJ060
837.058	2.475	3267342	REC_START	n/a	n/a	n/a	-999	6	n/a	n/a	pyFR	1	TJ060
839.533	4.075	3272292	REC_WORD	4.075	n/a	PRINCE	-999	6	n/a	n/a	pyFR	1	TJ060
843.608	3.205	3280442	REC_WORD	3.205	n/a	POND	-999	6	n/a	n/a	pyFR	1	TJ060
846.813	14.513	3286852	REC_WORD	14.513	n/a	MAIL	-999	6	n/a	n/a	pyFR	1	TJ060
861.326	29.358	3315877	REC_WORD	29.358	n/a	CUP	-999	6	n/a	n/a	pyFR	1	TJ060
890.684	0.016	3374593	TRIAL	n/a	n/a	n/a	-999	7	n/a	n/a	pyFR	1	TJ060
890.7	2.972	3374625	ORIENT	n/a	n/a	n/a	-999	7	n/a	n/a	pyFR	1	TJ060
893.672	2.589	3380568	WORD	n/a	wordpools/wordpool_EN.txt	WORM	1	7	n/a	n/a	pyFR	1	TJ060
896.261	2.739	3385746	WORD	n/a	wordpools/wordpool_EN.txt	BEAN	2	7	n/a	n/a	pyFR	1	TJ060
899.0	2.639	3391224	WORD	n/a	wordpools/wordpool_EN.txt	RAKE	3	7	n/a	n/a	pyFR	1	TJ060
901.639	2.605	3396502	WORD	n/a	wordpools/wordpool_EN.txt	CHIN	4	7	n/a	n/a	pyFR	1	TJ060
904.244	2.589	3401712	WORD	n/a	wordpools/wordpool_EN.txt	JEEP	5	7	n/a	n/a	pyFR	1	TJ060
906.833	2.438	3406890	WORD	n/a	wordpools/wordpool_EN.txt	SPRING	6	7	n/a	n/a	pyFR	1	TJ060
909.271	2.705	3411766	WORD	n/a	wordpools/wordpool_EN.txt	OAK	7	7	n/a	n/a	pyFR	1	TJ060
911.976	2.588	3417176	WORD	n/a	wordpools/wordpool_EN.txt	FORT	8	7	n/a	n/a	pyFR	1	TJ060
914.564	2.473	3422352	WORD	n/a	wordpools/wordpool_EN.txt	MOON	9	7	n/a	n/a	pyFR	1	TJ060
917.037	2.839	3427298	WORD	n/a	wordpools/wordpool_EN.txt	SALT	10	7	n/a	n/a	pyFR	1	TJ060
919.876	2.688	3432976	WORD	n/a	wordpools/wordpool_EN.txt	STOVE	11	7	n/a	n/a	pyFR	1	TJ060
922.564	2.556	3438352	WORD	n/a	wordpools/wordpool_EN.txt	STORM	12	7	n/a	n/a	pyFR	1	TJ060
925.12	2.822	3443464	WORD	n/a	wordpools/wordpool_EN.txt	WALL	13	7	n/a	n/a	pyFR	1	TJ060
927.942	2.672	3449108	WORD	n/a	wordpools/wordpool_EN.txt	BOWL	14	7	n/a	n/a	pyFR	1	TJ060
930.614	1.622	3454452	WORD	n/a	wordpools/wordpool_EN.txt	DOOR	15	7	n/a	n/a	pyFR	1	TJ060
932.236	0.85	3457696	START	n/a	n/a	n/a	n/a	7	[-999 -999 -999]	-999	pyFR	1	TJ060
933.086	4.092	3459395	PROB	n/a	n/a	n/a	n/a	7	[6 3 8]	17	pyFR	1	TJ060
937.178	5.16	3467579	PROB	n/a	n/a	n/a	n/a	7	[2 7 6]	15	pyFR	1	TJ060
942.338	2.405	3477899	PROB	n/a	n/a	n/a	n/a	7	[2 2 5]	9	pyFR	1	TJ060
944.743	3.541	3482709	PROB	n/a	n/a	n/a	n/a	7	[7 7 5]	19	pyFR	1	TJ060
948.284	2.087	3489791	PROB	n/a	n/a	n/a	n/a	7	[2 7 3]	12	pyFR	1	TJ060
950.371	2.262	3493965	PROB	n/a	n/a	n/a	n/a	7	[6 9 1]	16	pyFR	1	TJ060
952.633	1.045	3498489	STOP	n/a	n/a	n/a	n/a	7	[-999 -999 -999]	-999	pyFR	1	TJ060
953.678	3.204	3500579	REC_START	n/a	n/a	n/a	-999	7	n/a	n/a	pyFR	1	TJ060
956.882	2.7	3506987	REC_WORD	2.7	n/a	SINK	-999	7	n/a	n/a	pyFR	1	TJ060
959.582	2.888	3512387	REC_WORD	2.888	n/a	STOVE	-999	7	n/a	n/a	pyFR	1	TJ060
962.47	1.676	3518163	REC_WORD	1.676	n/a	MOON	-999	7	n/a	n/a	pyFR	1	TJ060
964.146	2.634	3521515	REC_WORD	2.634	n/a	SPRING	-999	7	n/a	n/a	pyFR	1	TJ060
966.78	1.915	3526783	REC_WORD	1.915	n/a	FORT	-999	7	n/a	n/a	pyFR	1	TJ060
968.695	1.988	3530613	REC_WORD	1.988	n/a	OAK	-999	7	n/a	n/a	pyFR	1	TJ060
970.683	3.352	3534589	REC_WORD	3.352	n/a	BEAN	-999	7	n/a	n/a	pyFR	1	TJ060
974.035	44.225	3541292	REC_WORD	44.225	n/a	WORM	-999	7	n/a	n/a	pyFR	1	TJ060
1018.26	0.016	3629741	TRIAL	n/a	n/a	n/a	-999	8	n/a	n/a	pyFR	1	TJ060
1018.276	2.739	3629773	ORIENT	n/a	n/a	n/a	-999	8	n/a	n/a	pyFR	1	TJ060
1021.015	2.487	3635251	WORD	n/a	wordpools/wordpool_EN.txt	SPARK	1	8	n/a	n/a	pyFR	1	TJ060
1023.502	2.556	3640225	WORD	n/a	wordpools/wordpool_EN.txt	MOOSE	2	8	n/a	n/a	pyFR	1	TJ060
1026.058	2.589	3645337	WORD	n/a	wordpools/wordpool_EN.txt	PEARL	3	8	n/a	n/a	pyFR	1	TJ060
1028.647	2.605	3650515	WORD	n/a	wordpools/wordpool_EN.txt	NAIL	4	8	n/a	n/a	pyFR	1	TJ060
1031.252	2.472	3655725	WORD	n/a	wordpools/wordpool_EN.txt	CAPE	5	8	n/a	n/a	pyFR	1	TJ060
1033.724	2.505	3660669	WORD	n/a	wordpools/wordpool_EN.txt	GEESE	6	8	n/a	n/a	pyFR	1	TJ060
1036.229	2.705	3665679	WORD	n/a	wordpools/wordpool_EN.txt	SOUP	7	8	n/a	n/a	pyFR	1	TJ060
1038.934	2.439	3671089	WORD	n/a	wordpools/wordpool_EN.txt	WEB	8	8	n/a	n/a	pyFR	1	TJ060
1041.373	2.772	3675967	WORD	n/a	wordpools/wordpool_EN.txt	TIE	9	8	n/a	n/a	pyFR	1	TJ060
1044.145	2.522	3681511	WORD	n/a	wordpools/wordpool_EN.txt	FISH	10	8	n/a	n/a	pyFR	1	TJ060
1046.667	2.588	3686555	WORD	n/a	wordpools/wordpool_EN.txt	CART	11	8	n/a	n/a	pyFR	1	TJ060
1049.255	2.656	3691731	WORD	n/a	wordpools/wordpool_EN.txt	AXE	12	8	n/a	n/a	pyFR	1	TJ060
1051.911	2.471	3697043	WORD	n/a	wordpools/wordpool_EN.txt	MILK	13	8	n/a	n/a	pyFR	1	TJ060
1054.382	2.606	3701985	WORD	n/a	wordpools/wordpool_EN.txt	MOUTH	14	8	n/a	n/a	pyFR	1	TJ060
1056.988	1.621	3707196	WORD	n/a	wordpools/wordpool_EN.txt	STOOL	15	8	n/a	n/a	pyFR	1	TJ060
1058.609	1.118	3710438	START	n/a	n/a	n/a	n/a	8	[-999 -999 -999]	-999	pyFR	1	TJ060
1059.727	4.442	3712674	PROB	n/a	n/a	n/a	n/a	8	[3 2 2]	7	pyFR	1	TJ060
1064.169	2.121	3721558	PROB	n/a	n/a	n/a	n/a	8	[3 7 3]	13	pyFR	1	TJ060
1066.29	4.676	3725800	PROB	n/a	n/a	n/a	n/a	8	[2 8 9]	19	pyFR	1	TJ060
1070.966	1.988	3735152	PROB	n/a	n/a	n/a	n/a	8	[3 9 1]	13	pyFR	1	TJ060
1072.954	3.173	3739128	PROB	n/a	n/a	n/a	n/a	8	[8 7 2]	17	pyFR	1	TJ060
1076.127	2.858	3745474	PROB	n/a	n/a	n/a	n/a	8	[1 7 7]	15	pyFR	1	TJ060
1078.985	1.05	3751190	STOP	n/a	n/a	n/a	n/a	8	[-999 -999 -999]	-999	pyFR	1	TJ060
1080.035	38.092	3753290	REC_START	n/a	n/a	n/a	-999	8	n/a	n/a	pyFR	1	TJ060
1118.127	4.485	3829473	REC_WORD	4.485	n/a	MOOSE	-999	8	n/a	n/a	pyFR	1	TJ060
1122.612	1.435	3838443	REC_WORD	1.435	n/a	CART	-999	8	n/a	n/a	pyFR	1	TJ060
1124.047	22.106	3841313	REC_WORD	22.106	n/a	TIE	-999	8	n/a	n/a	pyFR	1	TJ060
1146.153	0.016	3885524	TRIAL	n/a	n/a	n/a	-999	9	n/a	n/a	pyFR	1	TJ060
1146.169	2.989	3885556	ORIENT	n/a	n/a	n/a	-999	9	n/a	n/a	pyFR	1	TJ060
1149.158	2.556	3891534	WORD	n/a	wordpools/wordpool_EN.txt	PEAR	1	9	n/a	n/a	pyFR	1	TJ060
1151.714	2.572	3896646	WORD	n/a	wordpools/wordpool_EN.txt	CHIEF	2	9	n/a	n/a	pyFR	1	TJ060
1154.286	2.521	3901790	WORD	n/a	wordpools/wordpool_EN.txt	NEST	3	9	n/a	n/a	pyFR	1	TJ060
1156.807	2.555	3906832	WORD	n/a	wordpools/wordpool_EN.txt	FROG	4	9	n/a	n/a	pyFR	1	TJ060
1159.362	2.673	3911942	WORD	n/a	wordpools/wordpool_EN.txt	STEM	5	9	n/a	n/a	pyFR	1	TJ060
1162.035	2.605	3917288	WORD	n/a	wordpools/wordpool_EN.txt	PIT	6	9	n/a	n/a	pyFR	1	TJ060
1164.64	2.705	3922498	WORD	n/a	wordpools/wordpool_EN.txt	CUBE	7	9	n/a	n/a	pyFR	1	TJ060
1167.345	2.539	3927908	WORD	n/a	wordpools/wordpool_EN.txt	SWAMP	8	9	n/a	n/a	pyFR	1	TJ060
1169.884	2.671	3932986	WORD	n/a	wordpools/wordpool_EN.txt	BUSH	9	9	n/a	n/a	pyFR	1	TJ060
1172.555	2.456	3938328	WORD	n/a	wordpools/wordpool_EN.txt	TOE	10	9	n/a	n/a	pyFR	1	TJ060
1175.011	2.537	3943240	WORD	n/a	wordpools/wordpool_EN.txt	PARK	11	9	n/a	n/a	pyFR	1	TJ060
1177.548	2.757	3948314	WORD	n/a	wordpools/wordpool_EN.txt	EEL	12	9	n/a	n/a	pyFR	1	TJ060
1180.305	2.839	3953827	WORD	n/a	wordpools/wordpool_EN.txt	CLAY	13	9	n/a	n/a	pyFR	1	TJ060
1183.144	2.488	3959505	WORD	n/a	wordpools/wordpool_EN.txt	FENCE	14	9	n/a	n/a	pyFR	1	TJ060
1185.632	1.622	3964481	WORD	n/a	wordpools/wordpool_EN.txt	BOARD	15	9	n/a	n/a	pyFR	1	TJ060
1187.254	1.084	3967725	START	n/a	n/a	n/a	n/a	9	[-999 -999 -999]	-999	pyFR	1	TJ060
1188.338	3.073	3969893	PROB	n/a	n/a	n/a	n/a	9	[2 7 8]	17	pyFR	1	TJ060
1191.411	1.921	3976039	PROB	n/a	n/a	n/a	n/a	9	[8 2 3]	13	pyFR	1	TJ060
1193.332	3.924	3979881	PROB	n/a	n/a	n/a	n/a	9	[3 5 2]	10	pyFR	1	TJ060
1197.256	3.073	3987729	PROB	n/a	n/a	n/a	n/a	9	[9 6 5]	20	pyFR	1	TJ060
1200.329	4.66	3993875	PROB	n/a	n/a	n/a	n/a	9	[5 3 4]	12	pyFR	1	TJ060
1204.989	1.887	4003195	PROB	n/a	n/a	n/a	n/a	9	[3 1 9]	13	pyFR	1	TJ060
1206.876	3.013	4006969	PROB	n/a	n/a	n/a	n/a	9	[6 6 6]	18	pyFR	1	TJ060
1209.889	1.129	4012995	STOP	n/a	n/a	n/a	n/a	9	[-999 -999 -999]	-999	pyFR	1	TJ060
1211.018	1.307	4015253	REC_START	n/a	n/a	n/a	-999	9	n/a	n/a	pyFR	1	TJ060
1212.325	2.008	4017867	REC_WORD	2.008	n/a	FROG	-999	9	n/a	n/a	pyFR	1	TJ060
1214.333	3.507	4021883	REC_WORD	3.507	n/a	SWAMP	-999	9	n/a	n/a	pyFR	1	TJ060
1217.84	1.985	4028897	REC_WORD	1.985	n/a	CUBE	-999	9	n/a	n/a	pyFR	1	TJ060
1219.825	1.861	4032866	REC_WORD	1.861	n/a	NEST	-999	9	n/a	n/a	pyFR	1	TJ060
1221.686	4.774	4036588	REC_WORD	4.774	n/a	STEM	-999	9	n/a	n/a	pyFR	1	TJ060
1226.46	2.26	4046136	REC_WORD	2.26	n/a	TOE	-999	9	n/a	n/a	pyFR	1	TJ060
1228.72	1.887	4050656	REC_WORD	1.887	n/a	PARK	-999	9	n/a	n/a	pyFR	1	TJ060
1230.607	4.109	4054430	REC_WORD	4.109	n/a	EEL	-999	9	n/a	n/a	pyFR	1	TJ060
1234.716	5.506	4062648	REC_WORD	5.506	n/a	BUSH	-999	9	n/a	n/a	pyFR	1	TJ060
1240.222	98.84	4073660	REC_WORD	98.84	n/a	PIT	-999	9	n/a	n/a	pyFR	1	TJ060
1339.062	0.016	4271338	TRIAL	n/a	n/a	n/a	-999	10	n/a	n/a	pyFR	1	TJ060
1339.078	2.922	4271370	ORIENT	n/a	n/a	n/a	-999	10	n/a	n/a	pyFR	1	TJ060
1342.0	2.656	4277213	WORD	n/a	wordpools/wordpool_EN.txt	CROWN	1	10	n/a	n/a	pyFR	1	TJ060
1344.656	2.822	4282525	WORD	n/a	wordpools/wordpool_EN.txt	MUG	2	10	n/a	n/a	pyFR	1	TJ060
1347.478	2.538	4288169	WORD	n/a	wordpools/wordpool_EN.txt	BREAD	3	10	n/a	n/a	pyFR	1	TJ060
1350.016	2.456	4293245	WORD	n/a	wordpools/wordpool_EN.txt	STREET	4	10	n/a	n/a	pyFR	1	TJ060
1352.472	2.688	4298157	WORD	n/a	wordpools/wordpool_EN.txt	BELL	5	10	n/a	n/a	pyFR	1	TJ060
1355.16	2.823	4303533	WORD	n/a	wordpools/wordpool_EN.txt	SNAKE	6	10	n/a	n/a	pyFR	1	TJ060
1357.983	2.605	4309179	WORD	n/a	wordpools/wordpool_EN.txt	FLAME	7	10	n/a	n/a	pyFR	1	TJ060
1360.588	2.705	4314389	WORD	n/a	wordpools/wordpool_EN.txt	SQUARE	8	10	n/a	n/a	pyFR	1	TJ060
1363.293	2.589	4319799	WORD	n/a	wordpools/wordpool_EN.txt	TOAST	9	10	n/a	n/a	pyFR	1	TJ060
1365.882	2.722	4324977	WORD	n/a	wordpools/wordpool_EN.txt	BARN	10	10	n/a	n/a	pyFR	1	TJ060
1368.604	2.689	4330421	WORD	n/a	wordpools/wordpool_EN.txt	CAKE	11	10	n/a	n/a	pyFR	1	TJ060
1371.293	2.572	4335799	WORD	n/a	wordpools/wordpool_EN.txt	NOSE	12	10	n/a	n/a	pyFR	1	TJ060
1373.865	2.572	4340943	WORD	n/a	wordpools/wordpool_EN.txt	BEE	13	10	n/a	n/a	pyFR	1	TJ060
1376.437	2.505	4346087	WORD	n/a	wordpools/wordpool_EN.txt	PURSE	14	10	n/a	n/a	pyFR	1	TJ060
1378.942	1.62	4351097	WORD	n/a	wordpools/wordpool_EN.txt	ICE	15	10	n/a	n/a	pyFR	1	TJ060
1380.562	0.934	4354337	START	n/a	n/a	n/a	n/a	10	[-999 -999 -999]	-999	pyFR	1	TJ060
1381.496	2.373	4356205	PROB	n/a	n/a	n/a	n/a	10	[4 1 1]	6	pyFR	1	TJ060
1383.869	2.588	4360950	PROB	n/a	n/a	n/a	n/a	10	[5 3 1]	9	pyFR	1	TJ060
1386.457	11.791	4366126	PROB	n/a	n/a	n/a	n/a	10	[9 7 9]	25	pyFR	1	TJ060
1398.248	8.457	4389708	PROB	n/a	n/a	n/a	n/a	10	[4 6 9]	19	pyFR	1	TJ060
1406.705	1.572	4406622	STOP	n/a	n/a	n/a	n/a	10	[-999 -999 -999]	-999	pyFR	1	TJ060
1408.277	2.508	4409766	REC_START	n/a	n/a	n/a	-999	10	n/a	n/a	pyFR	1	TJ060
1410.785	1.486	4414782	REC_WORD	1.486	n/a	SNAKE	-999	10	n/a	n/a	pyFR	1	TJ060
1412.271	2.305	4417754	REC_WORD	2.305	n/a	FLAME	-999	10	n/a	n/a	pyFR	1	TJ060
1414.576	8.425	4422364	REC_WORD	8.425	n/a	BELL	-999	10	n/a	n/a	pyFR	1	TJ060
1423.001	1.433	4439213	REC_WORD	1.433	n/a	CROWN	-999	10	n/a	n/a	pyFR	1	TJ060
1424.434	1.356	4442079	REC_WORD	1.356	n/a	MUG	-999	10	n/a	n/a	pyFR	1	TJ060
1425.79	72.596	4444791	REC_WORD	72.596	n/a	BREAD	-999	10	n/a	n/a	pyFR	1	TJ060
1498.386	0.015	4589982	TRIAL	n/a	n/a	n/a	-999	11	n/a	n/a	pyFR	1	TJ060
1498.401	2.99	4590012	ORIENT	n/a	n/a	n/a	-999	11	n/a	n/a	pyFR	1	TJ060
1501.391	2.789	4595992	WORD	n/a	wordpools/wordpool_EN.txt	GOAT	1	11	n/a	n/a	pyFR	1	TJ060
1504.18	2.622	4601570	WORD	n/a	wordpools/wordpool_EN.txt	FACE	2	11	n/a	n/a	pyFR	1	TJ060
1506.802	2.538	4606813	WORD	n/a	wordpools/wordpool_EN.txt	POOL	3	11	n/a	n/a	pyFR	1	TJ060
1509.34	2.756	4611889	WORD	n/a	wordpools/wordpool_EN.txt	HEART	4	11	n/a	n/a	pyFR	1	TJ060
1512.096	2.739	4617401	WORD	n/a	wordpools/wordpool_EN.txt	PET	5	11	n/a	n/a	pyFR	1	TJ060
1514.835	2.605	4622879	WORD	n/a	wordpools/wordpool_EN.txt	LOCK	6	11	n/a	n/a	pyFR	1	TJ060
1517.44	2.455	4628089	WORD	n/a	wordpools/wordpool_EN.txt	ROCK	7	11	n/a	n/a	pyFR	1	TJ060
1519.895	2.689	4632999	WORD	n/a	wordpools/wordpool_EN.txt	BIRD	8	11	n/a	n/a	pyFR	1	TJ060
1522.584	2.488	4638377	WORD	n/a	wordpools/wordpool_EN.txt	COUCH	9	11	n/a	n/a	pyFR	1	TJ060
1525.072	2.539	4643353	WORD	n/a	wordpools/wordpool_EN.txt	FOX	10	11	n/a	n/a	pyFR	1	TJ060
1527.611	2.488	4648431	WORD	n/a	wordpools/wordpool_EN.txt	WEED	11	11	n/a	n/a	pyFR	1	TJ060
1530.099	2.454	4653407	WORD	n/a	wordpools/wordpool_EN.txt	SEED	12	11	n/a	n/a	pyFR	1	TJ060
1532.553	2.757	4658315	WORD	n/a	wordpools/wordpool_EN.txt	HAWK	13	11	n/a	n/a	pyFR	1	TJ060
1535.31	2.605	4663829	WORD	n/a	wordpools/wordpool_EN.txt	BATH	14	11	n/a	n/a	pyFR	1	TJ060
1537.915	1.62	4669039	WORD	n/a	wordpools/wordpool_EN.txt	JUICE	15	11	n/a	n/a	pyFR	1	TJ060
1539.535	0.952	4672279	START	n/a	n/a	n/a	n/a	11	[-999 -999 -999]	-999	pyFR	1	TJ060
1540.487	3.758	4674183	PROB	n/a	n/a	n/a	n/a	11	[5 2 9]	16	pyFR	1	TJ060
1544.245	3.757	4681699	PROB	n/a	n/a	n/a	n/a	11	[7 2 7]	16	pyFR	1	TJ060
1548.002	2.789	4689212	PROB	n/a	n/a	n/a	n/a	11	[2 2 4]	8	pyFR	1	TJ060
1550.791	2.505	4694790	PROB	n/a	n/a	n/a	n/a	11	[5 1 2]	8	pyFR	1	TJ060
1553.296	2.656	4699800	PROB	n/a	n/a	n/a	n/a	11	[7 1 3]	11	pyFR	1	TJ060
1555.952	2.271	4705112	PROB	n/a	n/a	n/a	n/a	11	[3 2 7]	12	pyFR	1	TJ060
1558.223	2.146	4709654	PROB	n/a	n/a	n/a	n/a	11	[8 2 3]	13	pyFR	1	TJ060
1560.369	1.177	4713946	STOP	n/a	n/a	n/a	n/a	11	[-999 -999 -999]	-999	pyFR	1	TJ060
1561.546	1.847	4716300	REC_START	n/a	n/a	n/a	-999	11	n/a	n/a	pyFR	1	TJ060
1563.393	1.539	4719994	REC_WORD	1.539	n/a	PET	-999	11	n/a	n/a	pyFR	1	TJ060
1564.932	1.011	4723072	REC_WORD	1.011	n/a	HAWK	-999	11	n/a	n/a	pyFR	1	TJ060
1565.943	4.15	4725094	REC_WORD	4.15	n/a	FOX	-999	11	n/a	n/a	pyFR	1	TJ060
1570.093	2.199	4733394	REC_WORD	2.199	n/a	GOAT	-999	11	n/a	n/a	pyFR	1	TJ060
1572.292	3.384	4737792	REC_WORD	3.384	n/a	FACE	-999	11	n/a	n/a	pyFR	1	TJ060
1575.676	1.885	4744560	REC_WORD	1.885	n/a	COUCH	-999	11	n/a	n/a	pyFR	1	TJ060
1577.561	89.684	4748330	REC_WORD	89.684	n/a	BATH	-999	11	n/a	n/a	pyFR	1	TJ060
1667.245	0.016	4927696	TRIAL	n/a	n/a	n/a	-999	12	n/a	n/a	pyFR	1	TJ060
1667.261	2.773	4927728	ORIENT	n/a	n/a	n/a	-999	12	n/a	n/a	pyFR	1	TJ060
1670.034	2.772	4933273	WORD	n/a	wordpools/wordpool_EN.txt	SLEEVE	1	12	n/a	n/a	pyFR	1	TJ060
1672.806	2.672	4938817	WORD	n/a	wordpools/wordpool_EN.txt	STONE	2	12	n/a	n/a	pyFR	1	TJ060
1675.478	2.589	4944161	WORD	n/a	wordpools/wordpool_EN.txt	JAIL	3	12	n/a	n/a	pyFR	1	TJ060
1678.067	2.521	4949339	WORD	n/a	wordpools/wordpool_EN.txt	SWORD	4	12	n/a	n/a	pyFR	1	TJ060
1680.588	2.555	4954381	WORD	n/a	wordpools/wordpool_EN.txt	ZOO	5	12	n/a	n/a	pyFR	1	TJ060
1683.143	2.756	4959491	WORD	n/a	wordpools/wordpool_EN.txt	GLOVE	6	12	n/a	n/a	pyFR	1	TJ060
1685.899	2.689	4965003	WORD	n/a	wordpools/wordpool_EN.txt	HAT	7	12	n/a	n/a	pyFR	1	TJ060
1688.588	2.739	4970381	WORD	n/a	wordpools/wordpool_EN.txt	TOAD	8	12	n/a	n/a	pyFR	1	TJ060
1691.327	2.638	4975859	WORD	n/a	wordpools/wordpool_EN.txt	SPOON	9	12	n/a	n/a	pyFR	1	TJ060
1693.965	2.789	4981135	WORD	n/a	wordpools/wordpool_EN.txt	CONE	10	12	n/a	n/a	pyFR	1	TJ060
1696.754	2.723	4986713	WORD	n/a	wordpools/wordpool_EN.txt	PHONE	11	12	n/a	n/a	pyFR	1	TJ060
1699.477	2.822	4992159	WORD	n/a	wordpools/wordpool_EN.txt	CAR	12	12	n/a	n/a	pyFR	1	TJ060
1702.299	2.505	4997803	WORD	n/a	wordpools/wordpool_EN.txt	CRANE	13	12	n/a	n/a	pyFR	1	TJ060
1704.804	2.438	5002813	WORD	n/a	wordpools/wordpool_EN.txt	SKY	14	12	n/a	n/a	pyFR	1	TJ060
1707.242	1.622	5007689	WORD	n/a	wordpools/wordpool_EN.txt	DAD	15	12	n/a	n/a	pyFR	1	TJ060
1708.864	0.917	5010932	START	n/a	n/a	n/a	n/a	12	[-999 -999 -999]	-999	pyFR	1	TJ060
1709.781	3.891	5012766	PROB	n/a	n/a	n/a	n/a	12	[2 6 7]	15	pyFR	1	TJ060
1713.672	3.641	5020548	PROB	n/a	n/a	n/a	n/a	12	[7 9 2]	18	pyFR	1	TJ060
1717.313	2.705	5027830	PROB	n/a	n/a	n/a	n/a	12	[6 4 1]	11	pyFR	1	TJ060
1720.018	2.739	5033240	PROB	n/a	n/a	n/a	n/a	12	[3 3 2]	8	pyFR	1	TJ060
1722.757	3.424	5038718	PROB	n/a	n/a	n/a	n/a	12	[6 8 3]	17	pyFR	1	TJ060
1726.181	3.827	5045566	PROB	n/a	n/a	n/a	n/a	12	[5 9 4]	18	pyFR	1	TJ060
1730.008	1.217	5053220	STOP	n/a	n/a	n/a	n/a	12	[-999 -999 -999]	-999	pyFR	1	TJ060
1731.225	2.043	5055654	REC_START	n/a	n/a	n/a	-999	12	n/a	n/a	pyFR	1	TJ060
1733.268	2.179	5059740	REC_WORD	2.179	n/a	SLEEVE	-999	12	n/a	n/a	pyFR	1	TJ060
1735.447	4.079	5064098	REC_WORD	4.079	n/a	HAT	-999	12	n/a	n/a	pyFR	1	TJ060
1739.526	7.942	5072256	REC_WORD	7.942	n/a	JAIL	-999	12	n/a	n/a	pyFR	1	TJ060
1747.468	3.205	5088140	REC_WORD	3.205	n/a	CONE	-999	12	n/a	n/a	pyFR	1	TJ060
1750.673	5.713	5094549	REC_WORD	5.713	n/a	PHONE	-999	12	n/a	n/a	pyFR	1	TJ060
1756.386	1.0	5105975	REC_WORD	1.0	n/a	SPOON	-999	12	n/a	n/a	pyFR	1	TJ060
1757.386	26.964	5107975	REC_WORD_VV	26.964	n/a	<>	-999	12	n/a	n/a	pyFR	1	TJ060
1784.35	0.016	5161903	TRIAL	n/a	n/a	n/a	-999	13	n/a	n/a	pyFR	1	TJ060
1784.366	2.739	5161935	ORIENT	n/a	n/a	n/a	-999	13	n/a	n/a	pyFR	1	TJ060
1787.105	2.605	5167413	WORD	n/a	wordpools/wordpool_EN.txt	STEAK	1	13	n/a	n/a	pyFR	1	TJ060
1789.71	2.639	5172623	WORD	n/a	wordpools/wordpool_EN.txt	HOOF	2	13	n/a	n/a	pyFR	1	TJ060
1792.349	2.572	5177900	WORD	n/a	wordpools/wordpool_EN.txt	BADGE	3	13	n/a	n/a	pyFR	1	TJ060
1794.921	2.805	5183044	WORD	n/a	wordpools/wordpool_EN.txt	WHALE	4	13	n/a	n/a	pyFR	1	TJ060
1797.726	2.822	5188654	WORD	n/a	wordpools/wordpool_EN.txt	ROOT	5	13	n/a	n/a	pyFR	1	TJ060
1800.548	2.773	5194298	WORD	n/a	wordpools/wordpool_EN.txt	HOUSE	6	13	n/a	n/a	pyFR	1	TJ060
1803.321	2.589	5199844	WORD	n/a	wordpools/wordpool_EN.txt	TRAY	7	13	n/a	n/a	pyFR	1	TJ060
1805.91	2.805	5205022	WORD	n/a	wordpools/wordpool_EN.txt	FAN	8	13	n/a	n/a	pyFR	1	TJ060
1808.715	2.723	5210632	WORD	n/a	wordpools/wordpool_EN.txt	BALL	9	13	n/a	n/a	pyFR	1	TJ060
1811.438	2.638	5216078	WORD	n/a	wordpools/wordpool_EN.txt	DUCK	10	13	n/a	n/a	pyFR	1	TJ060
1814.076	2.773	5221354	WORD	n/a	wordpools/wordpool_EN.txt	SUN	11	13	n/a	n/a	pyFR	1	TJ060
1816.849	2.772	5226900	WORD	n/a	wordpools/wordpool_EN.txt	NET	12	13	n/a	n/a	pyFR	1	TJ060
1819.621	2.555	5232444	WORD	n/a	wordpools/wordpool_EN.txt	KEY	13	13	n/a	n/a	pyFR	1	TJ060
1822.176	2.806	5237554	WORD	n/a	wordpools/wordpool_EN.txt	OAR	14	13	n/a	n/a	pyFR	1	TJ060
1824.982	1.621	5243166	WORD	n/a	wordpools/wordpool_EN.txt	JAR	15	13	n/a	n/a	pyFR	1	TJ060
1826.603	1.101	5246408	START	n/a	n/a	n/a	n/a	13	[-999 -999 -999]	-999	pyFR	1	TJ060
1827.704	4.743	5248610	PROB	n/a	n/a	n/a	n/a	13	[7 6 5]	18	pyFR	1	TJ060
1832.447	2.086	5258095	PROB	n/a	n/a	n/a	n/a	13	[4 8 2]	14	pyFR	1	TJ060
1834.533	2.857	5262267	PROB	n/a	n/a	n/a	n/a	13	[7 7 5]	19	pyFR	1	TJ060
1837.39	2.505	5267981	PROB	n/a	n/a	n/a	n/a	13	[2 2 5]	9	pyFR	1	TJ060
1839.895	2.589	5272991	PROB	n/a	n/a	n/a	n/a	13	[2 6 3]	11	pyFR	1	TJ060
1842.484	2.989	5278169	PROB	n/a	n/a	n/a	n/a	13	[8 1 3]	12	pyFR	1	TJ060
1845.473	3.376	5284147	PROB	n/a	n/a	n/a	n/a	13	[8 9 2]	19	pyFR	1	TJ060
1848.849	1.118	5290899	STOP	n/a	n/a	n/a	n/a	13	[-999 -999 -999]	-999	pyFR	1	TJ060
1849.967	6.263	5293135	REC_START	n/a	n/a	n/a	-999	13	n/a	n/a	pyFR	1	TJ060
1856.23	3.04	5305661	REC_WORD	3.04	n/a	KEY	-999	13	n/a	n/a	pyFR	1	TJ060
1859.27	8.078	5311741	REC_WORD	8.078	n/a	OAR	-999	13	n/a	n/a	pyFR	1	TJ060
1867.348	1.77	5327897	REC_WORD	1.77	n/a	TRAY	-999	13	n/a	n/a	pyFR	1	TJ060
1869.118	34.575	5331437	REC_WORD	34.575	n/a	HOUSE	-999	13	n/a	n/a	pyFR	1	TJ060
1903.693	0.015	5400586	TRIAL	n/a	n/a	n/a	-999	14	n/a	n/a	pyFR	1	TJ060
1903.708	2.788	5400616	ORIENT	n/a	n/a	n/a	-999	14	n/a	n/a	pyFR	1	TJ060
1906.496	2.54	5406192	WORD	n/a	wordpools/wordpool_EN.txt	LAND	1	14	n/a	n/a	pyFR	1	TJ060
1909.036	2.672	5411272	WORD	n/a	wordpools/wordpool_EN.txt	FOG	2	14	n/a	n/a	pyFR	1	TJ060
1911.708	2.772	5416616	WORD	n/a	wordpools/wordpool_EN.txt	OWL	3	14	n/a	n/a	pyFR	1	TJ060
1914.48	2.823	5422159	WORD	n/a	wordpools/wordpool_EN.txt	ANT	4	14	n/a	n/a	pyFR	1	TJ060
1917.303	2.538	5427805	WORD	n/a	wordpools/wordpool_EN.txt	MUD	5	14	n/a	n/a	pyFR	1	TJ060
1919.841	2.705	5432881	WORD	n/a	wordpools/wordpool_EN.txt	KING	6	14	n/a	n/a	pyFR	1	TJ060
1922.546	2.573	5438291	WORD	n/a	wordpools/wordpool_EN.txt	PLATE	7	14	n/a	n/a	pyFR	1	TJ060
1925.119	2.455	5443437	WORD	n/a	wordpools/wordpool_EN.txt	FARM	8	14	n/a	n/a	pyFR	1	TJ060
1927.574	2.755	5448347	WORD	n/a	wordpools/wordpool_EN.txt	CLOCK	9	14	n/a	n/a	pyFR	1	TJ060
1930.329	2.772	5453857	WORD	n/a	wordpools/wordpool_EN.txt	CHAIR	10	14	n/a	n/a	pyFR	1	TJ060
1933.101	2.539	5459401	WORD	n/a	wordpools/wordpool_EN.txt	ROOF	11	14	n/a	n/a	pyFR	1	TJ060
1935.64	2.806	5464479	WORD	n/a	wordpools/wordpool_EN.txt	DIME	12	14	n/a	n/a	pyFR	1	TJ060
1938.446	2.572	5470091	WORD	n/a	wordpools/wordpool_EN.txt	WHEEL	13	14	n/a	n/a	pyFR	1	TJ060
1941.018	2.788	5475235	WORD	n/a	wordpools/wordpool_EN.txt	TOY	14	14	n/a	n/a	pyFR	1	TJ060
1943.806	1.622	5480811	WORD	n/a	wordpools/wordpool_EN.txt	PIPE	15	14	n/a	n/a	pyFR	1	TJ060
1945.428	0.934	5484055	START	n/a	n/a	n/a	n/a	14	[-999 -999 -999]	-999	pyFR	1	TJ060
1946.362	2.555	5485923	PROB	n/a	n/a	n/a	n/a	14	[2 2 9]	13	pyFR	1	TJ060
1948.917	3.123	5491033	PROB	n/a	n/a	n/a	n/a	14	[3 4 1]	8	pyFR	1	TJ060
1952.04	2.739	5497279	PROB	n/a	n/a	n/a	n/a	14	[2 3 1]	6	pyFR	1	TJ060
1954.779	4.725	5502756	PROB	n/a	n/a	n/a	n/a	14	[5 2 9]	16	pyFR	1	TJ060
1959.504	2.523	5512206	PROB	n/a	n/a	n/a	n/a	14	[4 4 4]	12	pyFR	1	TJ060
1962.027	1.787	5517252	PROB	n/a	n/a	n/a	n/a	14	[7 3 3]	13	pyFR	1	TJ060
1963.814	2.097	5520826	PROB	n/a	n/a	n/a	n/a	14	[1 4 1]	6	pyFR	1	TJ060
1965.911	1.077	5525020	STOP	n/a	n/a	n/a	n/a	14	[-999 -999 -999]	-999	pyFR	1	TJ060
1966.988	3.985	5527174	REC_START	n/a	n/a	n/a	-999	14	n/a	n/a	pyFR	1	TJ060
1970.973	1.736	5535144	REC_WORD	1.736	n/a	FARM	-999	14	n/a	n/a	pyFR	1	TJ060
1972.709	1.642	5538616	REC_WORD	1.642	n/a	KING	-999	14	n/a	n/a	pyFR	1	TJ060
1974.351	2.505	5541900	REC_WORD	2.505	n/a	PLATE	-999	14	n/a	n/a	pyFR	1	TJ060
1976.856	2.384	5546910	REC_WORD	2.384	n/a	ANT	-999	14	n/a	n/a	pyFR	1	TJ060
1979.24	2.27	5551678	REC_WORD	2.27	n/a	FOG	-999	14	n/a	n/a	pyFR	1	TJ060
1981.51	1.736	5556218	REC_WORD	1.736	n/a	LAND	-999	14	n/a	n/a	pyFR	1	TJ060
1983.246	4.472	5559690	REC_WORD	4.472	n/a	MUD	-999	14	n/a	n/a	pyFR	1	TJ060
1987.718	8.11	5568634	REC_WORD	8.11	n/a	OWL	-999	14	n/a	n/a	pyFR	1	TJ060
1995.828	1.518	5584853	REC_WORD	1.518	n/a	DIME	-999	14	n/a	n/a	pyFR	1	TJ060
1997.346	1.111	5587889	REC_WORD	1.111	n/a	WHEEL	-999	14	n/a	n/a	pyFR	1	TJ060
1998.457	27.851	5590111	REC_WORD	27.851	n/a	TOY	-999	14	n/a	n/a	pyFR	1	TJ060
2026.308	0.016	5645813	TRIAL	n/a	n/a	n/a	-999	15	n/a	n/a	pyFR	1	TJ060
2026.324	2.756	5645845	ORIENT	n/a	n/a	n/a	-999	15	n/a	n/a	pyFR	1	TJ060
2029.08	2.772	5651357	WORD	n/a	wordpools/wordpool_EN.txt	VASE	1	15	n/a	n/a	pyFR	1	TJ060
2031.852	2.489	5656901	WORD	n/a	wordpools/wordpool_EN.txt	LEG	2	15	n/a	n/a	pyFR	1	TJ060
2034.341	2.471	5661879	WORD	n/a	wordpools/wordpool_EN.txt	HORN	3	15	n/a	n/a	pyFR	1	TJ060
2036.812	2.656	5666820	WORD	n/a	wordpools/wordpool_EN.txt	BOOK	4	15	n/a	n/a	pyFR	1	TJ060
2039.468	2.688	5672132	WORD	n/a	wordpools/wordpool_EN.txt	CLOUD	5	15	n/a	n/a	pyFR	1	TJ060
2042.156	2.723	5677508	WORD	n/a	wordpools/wordpool_EN.txt	SMILE	6	15	n/a	n/a	pyFR	1	TJ060
2044.879	2.621	5682954	WORD	n/a	wordpools/wordpool_EN.txt	COIN	7	15	n/a	n/a	pyFR	1	TJ060
2047.5	2.472	5688196	WORD	n/a	wordpools/wordpool_EN.txt	BAT	8	15	n/a	n/a	pyFR	1	TJ060
2049.972	2.622	5693140	WORD	n/a	wordpools/wordpool_EN.txt	BLUSH	9	15	n/a	n/a	pyFR	1	TJ060
2052.594	2.773	5698384	WORD	n/a	wordpools/wordpool_EN.txt	HOLE	10	15	n/a	n/a	pyFR	1	TJ060
2055.367	2.622	5703930	WORD	n/a	wordpools/wordpool_EN.txt	CORD	11	15	n/a	n/a	pyFR	1	TJ060
2057.989	2.622	5709174	WORD	n/a	wordpools/wordpool_EN.txt	STICK	12	15	n/a	n/a	pyFR	1	TJ060
2060.611	2.471	5714418	WORD	n/a	wordpools/wordpool_EN.txt	FILM	13	15	n/a	n/a	pyFR	1	TJ060
2063.082	2.806	5719360	WORD	n/a	wordpools/wordpool_EN.txt	EGG	14	15	n/a	n/a	pyFR	1	TJ060
2065.888	1.62	5724972	WORD	n/a	wordpools/wordpool_EN.txt	DESK	15	15	n/a	n/a	pyFR	1	TJ060
2067.508	0.952	5728212	START	n/a	n/a	n/a	n/a	15	[-999 -999 -999]	-999	pyFR	1	TJ060
2068.46	4.074	5730116	PROB	n/a	n/a	n/a	n/a	15	[6 1 8]	15	pyFR	1	TJ060
2072.534	3.022	5738264	PROB	n/a	n/a	n/a	n/a	15	[6 3 9]	18	pyFR	1	TJ060
2075.556	2.757	5744308	PROB	n/a	n/a	n/a	n/a	15	[6 1 3]	10	pyFR	1	TJ060
2078.313	5.243	5749821	PROB	n/a	n/a	n/a	n/a	15	[6 7 6]	19	pyFR	1	TJ060
2083.556	2.189	5760307	PROB	n/a	n/a	n/a	n/a	15	[2 8 6]	16	pyFR	1	TJ060
2085.745	3.015	5764685	PROB	n/a	n/a	n/a	n/a	15	[3 2 4]	9	pyFR	1	TJ060
2088.76	1.161	5770715	STOP	n/a	n/a	n/a	n/a	15	[-999 -999 -999]	-999	pyFR	1	TJ060
2089.921	4.236	5773037	REC_START	n/a	n/a	n/a	-999	15	n/a	n/a	pyFR	1	TJ060
2094.157	23.675	5781509	REC_WORD	23.675	n/a	SMILE	-999	15	n/a	n/a	pyFR	1	TJ060
2117.832	1.629	5828858	REC_WORD	1.629	n/a	BOOK	-999	15	n/a	n/a	pyFR	1	TJ060
2119.461	7.271	5832116	REC_WORD	7.271	n/a	HORN	-999	15	n/a	n/a	pyFR	1	TJ060
2126.732	1.095	5846658	REC_WORD	1.095	n/a	STICK	-999	15	n/a	n/a	pyFR	1	TJ060
2127.827	19.71	5848848	REC_WORD	19.71	n/a	CORD	-999	15	n/a	n/a	pyFR	1	TJ060
2147.537	0.016	5888268	TRIAL	n/a	n/a	n/a	-999	16	n/a	n/a	pyFR	1	TJ060
2147.553	2.924	5888300	ORIENT	n/a	n/a	n/a	-999	16	n/a	n/a	pyFR	1	TJ060
2150.477	2.555	5894148	WORD	n/a	wordpools/wordpool_EN.txt	SPONGE	1	16	n/a	n/a	pyFR	1	TJ060
2153.032	2.822	5899258	WORD	n/a	wordpools/wordpool_EN.txt	HOOK	2	16	n/a	n/a	pyFR	1	TJ060
2155.854	2.806	5904902	WORD	n/a	wordpools/wordpool_EN.txt	SLUSH	3	16	n/a	n/a	pyFR	1	TJ060
2158.66	2.739	5910513	WORD	n/a	wordpools/wordpool_EN.txt	RAT	4	16	n/a	n/a	pyFR	1	TJ060
2161.399	2.638	5915991	WORD	n/a	wordpools/wordpool_EN.txt	BEAR	5	16	n/a	n/a	pyFR	1	TJ060
2164.037	2.589	5921267	WORD	n/a	wordpools/wordpool_EN.txt	EAR	6	16	n/a	n/a	pyFR	1	TJ060
2166.626	2.639	5926445	WORD	n/a	wordpools/wordpool_EN.txt	LAMB	7	16	n/a	n/a	pyFR	1	TJ060
2169.265	2.722	5931723	WORD	n/a	wordpools/wordpool_EN.txt	PIE	8	16	n/a	n/a	pyFR	1	TJ060
2171.987	2.806	5937167	WORD	n/a	wordpools/wordpool_EN.txt	ROOM	9	16	n/a	n/a	pyFR	1	TJ060
2174.793	2.488	5942779	WORD	n/a	wordpools/wordpool_EN.txt	RUG	10	16	n/a	n/a	pyFR	1	TJ060
2177.281	2.822	5947755	WORD	n/a	wordpools/wordpool_EN.txt	THUMB	11	16	n/a	n/a	pyFR	1	TJ060
2180.103	2.572	5953399	WORD	n/a	wordpools/wordpool_EN.txt	HEN	12	16	n/a	n/a	pyFR	1	TJ060
2182.675	2.556	5958543	WORD	n/a	wordpools/wordpool_EN.txt	FOOT	13	16	n/a	n/a	pyFR	1	TJ060
2185.231	2.638	5963655	WORD	n/a	wordpools/wordpool_EN.txt	GRASS	14	16	n/a	n/a	pyFR	1	TJ060
2187.869	1.621	5968931	WORD	n/a	wordpools/wordpool_EN.txt	BAND	15	16	n/a	n/a	pyFR	1	TJ060
2189.49	1.151	5972173	START	n/a	n/a	n/a	n/a	16	[-999 -999 -999]	-999	pyFR	1	TJ060
2190.641	5.011	5974475	PROB	n/a	n/a	n/a	n/a	16	[2 5 3]	10	pyFR	1	TJ060
2195.652	3.791	5984497	PROB	n/a	n/a	n/a	n/a	16	[3 6 5]	14	pyFR	1	TJ060
2199.443	3.123	5992078	PROB	n/a	n/a	n/a	n/a	16	[6 6 5]	17	pyFR	1	TJ060
2202.566	2.922	5998324	PROB	n/a	n/a	n/a	n/a	16	[5 9 2]	16	pyFR	1	TJ060
2205.488	2.439	6004168	PROB	n/a	n/a	n/a	n/a	16	[1 8 4]	13	pyFR	1	TJ060
2207.927	1.897	6009046	PROB	n/a	n/a	n/a	n/a	16	[1 2 2]	5	pyFR	1	TJ060
2209.824	1.059	6012840	STOP	n/a	n/a	n/a	n/a	16	[-999 -999 -999]	-999	pyFR	1	TJ060
2210.883	1.856	6014958	REC_START	n/a	n/a	n/a	-999	16	n/a	n/a	pyFR	1	TJ060
2212.739	1.463	6018670	REC_WORD	1.463	n/a	RUG	-999	16	n/a	n/a	pyFR	1	TJ060
2214.202	1.687	6021596	REC_WORD	1.687	n/a	GRASS	-999	16	n/a	n/a	pyFR	1	TJ060
2215.889	1.65	6024970	REC_WORD	1.65	n/a	THUMB	-999	16	n/a	n/a	pyFR	1	TJ060
2217.539	1.938	6028270	REC_WORD	1.938	n/a	FOOT	-999	16	n/a	n/a	pyFR	1	TJ060
2219.477	4.32	6032146	REC_WORD	4.32	n/a	HEN	-999	16	n/a	n/a	pyFR	1	TJ060
2223.797	5.926	6040786	REC_WORD	5.926	n/a	RAT	-999	16	n/a	n/a	pyFR	1	TJ060
2229.723	1.0	6052638	REC_WORD	1.0	n/a	SLUSH	-999	16	n/a	n/a	pyFR	1	TJ060
2230.723	594.026	6054638	REC_WORD_VV	594.026	n/a	<>	-999	16	n/a	n/a	pyFR	1	TJ060
2824.749	0.149	7242675	SESS_END	n/a	n/a	n/a	-999	16	n/a	n/a	pyFR	1	TJ060
2824.898	0.0	7242973	E	n/a	n/a	n/a	-999	16	n/a	n/a	pyFR	1	TJ060
