onset	duration	sample	trial_type	response_time	stim_file	item_name	serialpos	list	test	answer	experiment	session	subject
0.0	0.0	509570	B	n/a	n/a	n/a	-999	-999	n/a	n/a	pyFR	1	TJ047
0.0	36.757	509570	SESS_START	n/a	n/a	n/a	-999	-999	n/a	n/a	pyFR	1	TJ047
36.757	0.021	546325	START	n/a	n/a	n/a	n/a	0	[-999 -999 -999]	-999	pyFR	1	TJ047
36.778	10.5	546346	PROB	10.465	n/a	n/a	n/a	0	[5 6 1]	12	pyFR	1	TJ047
47.278	6.362	556846	PROB	6.333	n/a	n/a	n/a	0	[2 8 7]	17	pyFR	1	TJ047
53.64	4.673	563208	PROB	4.642	n/a	n/a	n/a	0	[9 6 2]	17	pyFR	1	TJ047
58.313	3.707	567880	PROB	3.673	n/a	n/a	n/a	0	[3 1 2]	6	pyFR	1	TJ047
62.02	5.791	571587	PROB	5.791	n/a	n/a	n/a	0	[5 7 2]	14	pyFR	1	TJ047
67.811	25.914	577378	STOP	n/a	n/a	n/a	n/a	0	[-999 -999 -999]	-999	pyFR	1	TJ047
93.725	0.016	603291	TRIAL	n/a	n/a	n/a	-999	1	n/a	n/a	pyFR	1	TJ047
93.741	2.804	603307	ORIENT	n/a	n/a	n/a	-999	1	n/a	n/a	pyFR	1	TJ047
96.545	2.788	606111	WORD	n/a	wordpools/wordpool_EN.txt	SPRING	1	1	n/a	n/a	pyFR	1	TJ047
99.333	2.671	608899	WORD	n/a	wordpools/wordpool_EN.txt	PANTS	2	1	n/a	n/a	pyFR	1	TJ047
102.004	2.488	611570	WORD	n/a	wordpools/wordpool_EN.txt	PEACH	3	1	n/a	n/a	pyFR	1	TJ047
104.492	2.554	614058	WORD	n/a	wordpools/wordpool_EN.txt	YARD	4	1	n/a	n/a	pyFR	1	TJ047
107.046	2.588	616612	WORD	n/a	wordpools/wordpool_EN.txt	FAN	5	1	n/a	n/a	pyFR	1	TJ047
109.634	2.772	619200	WORD	n/a	wordpools/wordpool_EN.txt	BEACH	6	1	n/a	n/a	pyFR	1	TJ047
112.406	2.637	621971	WORD	n/a	wordpools/wordpool_EN.txt	CHAIR	7	1	n/a	n/a	pyFR	1	TJ047
115.043	2.805	624608	WORD	n/a	wordpools/wordpool_EN.txt	DEER	8	1	n/a	n/a	pyFR	1	TJ047
117.848	2.47	627413	WORD	n/a	wordpools/wordpool_EN.txt	CLOCK	9	1	n/a	n/a	pyFR	1	TJ047
120.318	2.655	629883	WORD	n/a	wordpools/wordpool_EN.txt	BEAR	10	1	n/a	n/a	pyFR	1	TJ047
122.973	2.638	632538	WORD	n/a	wordpools/wordpool_EN.txt	BRICK	11	1	n/a	n/a	pyFR	1	TJ047
125.611	2.822	635176	WORD	n/a	wordpools/wordpool_EN.txt	BUSH	12	1	n/a	n/a	pyFR	1	TJ047
128.433	2.687	637998	WORD	n/a	wordpools/wordpool_EN.txt	JEEP	13	1	n/a	n/a	pyFR	1	TJ047
131.12	2.638	640685	WORD	n/a	wordpools/wordpool_EN.txt	STRING	14	1	n/a	n/a	pyFR	1	TJ047
133.758	1.621	643323	WORD	n/a	wordpools/wordpool_EN.txt	CROW	15	1	n/a	n/a	pyFR	1	TJ047
135.379	1.084	644944	START	n/a	n/a	n/a	n/a	1	[-999 -999 -999]	-999	pyFR	1	TJ047
136.463	8.948	646028	PROB	8.918	n/a	n/a	n/a	1	[4 5 8]	17	pyFR	1	TJ047
145.411	4.74	654975	PROB	4.713	n/a	n/a	n/a	1	[2 9 3]	14	pyFR	1	TJ047
150.151	4.942	659715	PROB	4.917	n/a	n/a	n/a	1	[2 9 3]	14	pyFR	1	TJ047
155.093	4.584	664657	PROB	4.584	n/a	n/a	n/a	1	[6 5 2]	13	pyFR	1	TJ047
159.677	1.161	669241	STOP	n/a	n/a	n/a	n/a	1	[-999 -999 -999]	-999	pyFR	1	TJ047
160.838	1.486	670402	REC_START	n/a	n/a	n/a	-999	1	n/a	n/a	pyFR	1	TJ047
162.324	1.0	671888	REC_WORD_VV	1.486	n/a	<>	-999	1	n/a	n/a	pyFR	1	TJ047
163.324	1.0	672888	REC_WORD_VV	2.486	n/a	<>	-999	1	n/a	n/a	pyFR	1	TJ047
164.324	1.0	673888	REC_WORD_VV	3.486	n/a	<>	-999	1	n/a	n/a	pyFR	1	TJ047
165.324	0.79	674887	REC_WORD_VV	4.486	n/a	<>	-999	1	n/a	n/a	pyFR	1	TJ047
166.114	1.75	675677	REC_WORD_VV	5.276	n/a	<>	-999	1	n/a	n/a	pyFR	1	TJ047
167.864	2.012	677427	REC_WORD	7.026	n/a	SPRING	-999	1	n/a	n/a	pyFR	1	TJ047
169.876	3.106	679439	REC_WORD	9.038	n/a	SHIRT	-999	1	n/a	n/a	pyFR	1	TJ047
172.982	1.475	682545	REC_WORD	12.144	n/a	BLOCK	-999	1	n/a	n/a	pyFR	1	TJ047
174.457	5.039	684020	REC_WORD	13.619	n/a	PANTS	-999	1	n/a	n/a	pyFR	1	TJ047
179.496	1.867	689059	REC_WORD_VV	18.658	n/a	<>	-999	1	n/a	n/a	pyFR	1	TJ047
181.363	3.775	690926	REC_WORD	20.525	n/a	SEASON	-999	1	n/a	n/a	pyFR	1	TJ047
185.138	13.021	694701	REC_WORD	24.3	n/a	STRING	-999	1	n/a	n/a	pyFR	1	TJ047
198.159	1.0	707721	REC_WORD_VV	37.321	n/a	<>	-999	1	n/a	n/a	pyFR	1	TJ047
199.159	1.0	708721	REC_WORD_VV	38.321	n/a	<>	-999	1	n/a	n/a	pyFR	1	TJ047
200.159	1.862	709721	REC_WORD_VV	39.321	n/a	<>	-999	1	n/a	n/a	pyFR	1	TJ047
202.021	15.027	711583	REC_WORD	41.183	n/a	SHOP	-999	1	n/a	n/a	pyFR	1	TJ047
217.048	0.016	726610	TRIAL	n/a	n/a	n/a	-999	2	n/a	n/a	pyFR	1	TJ047
217.064	2.705	726626	ORIENT	n/a	n/a	n/a	-999	2	n/a	n/a	pyFR	1	TJ047
219.769	2.638	729330	WORD	n/a	wordpools/wordpool_EN.txt	SPARK	1	2	n/a	n/a	pyFR	1	TJ047
222.407	2.737	731968	WORD	n/a	wordpools/wordpool_EN.txt	CLIFF	2	2	n/a	n/a	pyFR	1	TJ047
225.144	2.672	734705	WORD	n/a	wordpools/wordpool_EN.txt	PET	3	2	n/a	n/a	pyFR	1	TJ047
227.816	2.555	737377	WORD	n/a	wordpools/wordpool_EN.txt	SLIME	4	2	n/a	n/a	pyFR	1	TJ047
230.371	2.521	739932	WORD	n/a	wordpools/wordpool_EN.txt	MAP	5	2	n/a	n/a	pyFR	1	TJ047
232.892	2.521	742453	WORD	n/a	wordpools/wordpool_EN.txt	SPONGE	6	2	n/a	n/a	pyFR	1	TJ047
235.413	2.437	744974	WORD	n/a	wordpools/wordpool_EN.txt	WORM	7	2	n/a	n/a	pyFR	1	TJ047
237.85	2.772	747411	WORD	n/a	wordpools/wordpool_EN.txt	BLOOM	8	2	n/a	n/a	pyFR	1	TJ047
240.622	2.453	750183	WORD	n/a	wordpools/wordpool_EN.txt	CHIEF	9	2	n/a	n/a	pyFR	1	TJ047
243.075	2.79	752636	WORD	n/a	wordpools/wordpool_EN.txt	WAVE	10	2	n/a	n/a	pyFR	1	TJ047
245.865	2.62	755425	WORD	n/a	wordpools/wordpool_EN.txt	LOCK	11	2	n/a	n/a	pyFR	1	TJ047
248.485	2.753	758045	WORD	n/a	wordpools/wordpool_EN.txt	SUIT	12	2	n/a	n/a	pyFR	1	TJ047
251.238	2.556	760798	WORD	n/a	wordpools/wordpool_EN.txt	STORE	13	2	n/a	n/a	pyFR	1	TJ047
253.794	2.737	763354	WORD	n/a	wordpools/wordpool_EN.txt	SIGN	14	2	n/a	n/a	pyFR	1	TJ047
256.531	1.62	766091	WORD	n/a	wordpools/wordpool_EN.txt	KING	15	2	n/a	n/a	pyFR	1	TJ047
258.151	1.068	767711	START	n/a	n/a	n/a	n/a	2	[-999 -999 -999]	-999	pyFR	1	TJ047
259.219	4.307	768779	PROB	4.275	n/a	n/a	n/a	2	[4 1 2]	7	pyFR	1	TJ047
263.526	4.041	773086	PROB	4.008	n/a	n/a	n/a	2	[3 9 3]	15	pyFR	1	TJ047
267.567	5.275	777127	PROB	5.247	n/a	n/a	n/a	2	[5 8 3]	16	pyFR	1	TJ047
272.842	4.791	782401	PROB	4.756	n/a	n/a	n/a	2	[2 8 9]	19	pyFR	1	TJ047
277.633	4.029	787192	PROB	4.029	n/a	n/a	n/a	2	[2 2 3]	7	pyFR	1	TJ047
281.662	1.164	791221	STOP	n/a	n/a	n/a	n/a	2	[-999 -999 -999]	-999	pyFR	1	TJ047
282.826	3.195	792385	REC_START	n/a	n/a	n/a	-999	2	n/a	n/a	pyFR	1	TJ047
286.021	0.687	795580	REC_WORD_VV	3.195	n/a	<>	-999	2	n/a	n/a	pyFR	1	TJ047
286.708	1.0	796267	REC_WORD	3.882	n/a	STORE	-999	2	n/a	n/a	pyFR	1	TJ047
287.708	2.822	797267	REC_WORD_VV	4.882	n/a	<>	-999	2	n/a	n/a	pyFR	1	TJ047
290.53	1.0	800089	REC_WORD	7.704	n/a	KING	-999	2	n/a	n/a	pyFR	1	TJ047
291.53	4.029	801089	REC_WORD_VV	8.704	n/a	<>	-999	2	n/a	n/a	pyFR	1	TJ047
295.559	4.135	805118	REC_WORD	12.733	n/a	SIGN	-999	2	n/a	n/a	pyFR	1	TJ047
299.694	1.0	809252	REC_WORD_VV	16.868	n/a	<>	-999	2	n/a	n/a	pyFR	1	TJ047
300.694	1.0	810252	REC_WORD_VV	17.868	n/a	<>	-999	2	n/a	n/a	pyFR	1	TJ047
301.694	1.0	811252	REC_WORD_VV	18.868	n/a	<>	-999	2	n/a	n/a	pyFR	1	TJ047
302.694	0.544	812252	REC_WORD_VV	19.868	n/a	<>	-999	2	n/a	n/a	pyFR	1	TJ047
303.238	2.27	812796	REC_WORD	20.412	n/a	TRUCK	-999	2	n/a	n/a	pyFR	1	TJ047
305.508	3.074	815066	REC_WORD_VV	22.682	n/a	<>	-999	2	n/a	n/a	pyFR	1	TJ047
308.582	1.592	818140	REC_WORD_VV	25.756	n/a	<>	-999	2	n/a	n/a	pyFR	1	TJ047
310.174	9.839	819732	REC_WORD	27.348	n/a	CLIFF	-999	2	n/a	n/a	pyFR	1	TJ047
320.013	14.434	829571	REC_WORD	37.187	n/a	CHAIR	-999	2	n/a	n/a	pyFR	1	TJ047
334.447	0.015	844004	TRIAL	n/a	n/a	n/a	-999	3	n/a	n/a	pyFR	1	TJ047
334.462	2.771	844019	ORIENT	n/a	n/a	n/a	-999	3	n/a	n/a	pyFR	1	TJ047
337.233	2.788	846790	WORD	n/a	wordpools/wordpool_EN.txt	BAND	1	3	n/a	n/a	pyFR	1	TJ047
340.021	2.773	849578	WORD	n/a	wordpools/wordpool_EN.txt	JET	2	3	n/a	n/a	pyFR	1	TJ047
342.794	2.687	852351	WORD	n/a	wordpools/wordpool_EN.txt	WORLD	3	3	n/a	n/a	pyFR	1	TJ047
345.481	2.637	855038	WORD	n/a	wordpools/wordpool_EN.txt	CAPE	4	3	n/a	n/a	pyFR	1	TJ047
348.118	2.572	857675	WORD	n/a	wordpools/wordpool_EN.txt	THUMB	5	3	n/a	n/a	pyFR	1	TJ047
350.69	2.47	860247	WORD	n/a	wordpools/wordpool_EN.txt	FOOT	6	3	n/a	n/a	pyFR	1	TJ047
353.16	2.422	862716	WORD	n/a	wordpools/wordpool_EN.txt	STREET	7	3	n/a	n/a	pyFR	1	TJ047
355.582	2.436	865138	WORD	n/a	wordpools/wordpool_EN.txt	PIPE	8	3	n/a	n/a	pyFR	1	TJ047
358.018	2.455	867574	WORD	n/a	wordpools/wordpool_EN.txt	NET	9	3	n/a	n/a	pyFR	1	TJ047
360.473	2.537	870029	WORD	n/a	wordpools/wordpool_EN.txt	INK	10	3	n/a	n/a	pyFR	1	TJ047
363.01	2.538	872566	WORD	n/a	wordpools/wordpool_EN.txt	TREE	11	3	n/a	n/a	pyFR	1	TJ047
365.548	2.77	875104	WORD	n/a	wordpools/wordpool_EN.txt	MOLE	12	3	n/a	n/a	pyFR	1	TJ047
368.318	2.722	877874	WORD	n/a	wordpools/wordpool_EN.txt	WOOD	13	3	n/a	n/a	pyFR	1	TJ047
371.04	2.755	880596	WORD	n/a	wordpools/wordpool_EN.txt	VINE	14	3	n/a	n/a	pyFR	1	TJ047
373.795	1.621	883351	WORD	n/a	wordpools/wordpool_EN.txt	BEAK	15	3	n/a	n/a	pyFR	1	TJ047
375.416	1.034	884972	START	n/a	n/a	n/a	n/a	3	[-999 -999 -999]	-999	pyFR	1	TJ047
376.45	4.358	886006	PROB	4.335	n/a	n/a	n/a	3	[1 4 1]	6	pyFR	1	TJ047
380.808	7.979	890363	PROB	7.945	n/a	n/a	n/a	3	[5 4 3]	12	pyFR	1	TJ047
388.787	3.99	898342	PROB	3.958	n/a	n/a	n/a	3	[7 4 5]	16	pyFR	1	TJ047
392.777	4.576	902332	PROB	4.576	n/a	n/a	n/a	3	[3 1 7]	11	pyFR	1	TJ047
397.353	1.218	906908	STOP	n/a	n/a	n/a	n/a	3	[-999 -999 -999]	-999	pyFR	1	TJ047
398.571	2.389	908126	REC_START	n/a	n/a	n/a	-999	3	n/a	n/a	pyFR	1	TJ047
400.96	1.797	910515	REC_WORD	2.389	n/a	JET	-999	3	n/a	n/a	pyFR	1	TJ047
402.757	1.356	912312	REC_WORD	4.186	n/a	NET	-999	3	n/a	n/a	pyFR	1	TJ047
404.113	1.655	913668	REC_WORD	5.542	n/a	TREE	-999	3	n/a	n/a	pyFR	1	TJ047
405.768	3.515	915323	REC_WORD	7.197	n/a	VINE	-999	3	n/a	n/a	pyFR	1	TJ047
409.283	2.119	918837	REC_WORD_VV	10.712	n/a	<>	-999	3	n/a	n/a	pyFR	1	TJ047
411.402	1.937	920956	REC_WORD	12.831	n/a	WOOD	-999	3	n/a	n/a	pyFR	1	TJ047
413.339	12.697	922893	REC_WORD	14.768	n/a	MOLE	-999	3	n/a	n/a	pyFR	1	TJ047
426.036	6.919	935590	REC_WORD	27.465	n/a	BAND	-999	3	n/a	n/a	pyFR	1	TJ047
432.955	19.189	942509	REC_WORD	34.384	n/a	HOPE	-999	3	n/a	n/a	pyFR	1	TJ047
452.144	0.015	961697	TRIAL	n/a	n/a	n/a	-999	4	n/a	n/a	pyFR	1	TJ047
452.159	2.689	961712	ORIENT	n/a	n/a	n/a	-999	4	n/a	n/a	pyFR	1	TJ047
454.848	2.538	964401	WORD	n/a	wordpools/wordpool_EN.txt	LIP	1	4	n/a	n/a	pyFR	1	TJ047
457.386	2.77	966939	WORD	n/a	wordpools/wordpool_EN.txt	DITCH	2	4	n/a	n/a	pyFR	1	TJ047
460.156	2.456	969709	WORD	n/a	wordpools/wordpool_EN.txt	SAIL	3	4	n/a	n/a	pyFR	1	TJ047
462.612	2.788	972164	WORD	n/a	wordpools/wordpool_EN.txt	TRUCK	4	4	n/a	n/a	pyFR	1	TJ047
465.4	2.536	974952	WORD	n/a	wordpools/wordpool_EN.txt	SKUNK	5	4	n/a	n/a	pyFR	1	TJ047
467.936	2.689	977488	WORD	n/a	wordpools/wordpool_EN.txt	NEST	6	4	n/a	n/a	pyFR	1	TJ047
470.625	2.637	980177	WORD	n/a	wordpools/wordpool_EN.txt	FARM	7	4	n/a	n/a	pyFR	1	TJ047
473.262	2.522	982814	WORD	n/a	wordpools/wordpool_EN.txt	BARN	8	4	n/a	n/a	pyFR	1	TJ047
475.784	2.621	985336	WORD	n/a	wordpools/wordpool_EN.txt	LEAF	9	4	n/a	n/a	pyFR	1	TJ047
478.405	2.821	987957	WORD	n/a	wordpools/wordpool_EN.txt	TAIL	10	4	n/a	n/a	pyFR	1	TJ047
481.226	2.622	990778	WORD	n/a	wordpools/wordpool_EN.txt	SHEET	11	4	n/a	n/a	pyFR	1	TJ047
483.848	2.453	993400	WORD	n/a	wordpools/wordpool_EN.txt	RAIN	12	4	n/a	n/a	pyFR	1	TJ047
486.301	2.538	995853	WORD	n/a	wordpools/wordpool_EN.txt	HORSE	13	4	n/a	n/a	pyFR	1	TJ047
488.839	2.805	998390	WORD	n/a	wordpools/wordpool_EN.txt	HAT	14	4	n/a	n/a	pyFR	1	TJ047
491.644	1.62	1001195	WORD	n/a	wordpools/wordpool_EN.txt	DRUM	15	4	n/a	n/a	pyFR	1	TJ047
493.264	1.118	1002815	START	n/a	n/a	n/a	n/a	4	[-999 -999 -999]	-999	pyFR	1	TJ047
494.382	6.277	1003933	PROB	6.249	n/a	n/a	n/a	4	[9 3 2]	14	pyFR	1	TJ047
500.659	3.388	1010210	PROB	3.355	n/a	n/a	n/a	4	[8 1 2]	11	pyFR	1	TJ047
504.047	3.724	1013598	PROB	3.696	n/a	n/a	n/a	4	[7 1 2]	10	pyFR	1	TJ047
507.771	5.981	1017322	PROB	5.981	n/a	n/a	n/a	4	[1 9 2]	12	pyFR	1	TJ047
513.752	1.231	1023303	STOP	n/a	n/a	n/a	n/a	4	[-999 -999 -999]	-999	pyFR	1	TJ047
514.983	0.0	1024533	REC_START	n/a	n/a	n/a	-999	4	n/a	n/a	pyFR	1	TJ047
514.983	1.0	1024533	REC_WORD_VV	0.0	n/a	<>	-999	4	n/a	n/a	pyFR	1	TJ047
515.983	1.0	1025533	REC_WORD_VV	1.0	n/a	<>	-999	4	n/a	n/a	pyFR	1	TJ047
516.983	3.682	1026533	REC_WORD_VV	2.0	n/a	<>	-999	4	n/a	n/a	pyFR	1	TJ047
520.665	0.94	1030215	REC_WORD_VV	5.682	n/a	<>	-999	4	n/a	n/a	pyFR	1	TJ047
521.605	3.636	1031155	REC_WORD	6.622	n/a	RAIN	-999	4	n/a	n/a	pyFR	1	TJ047
525.241	4.03	1034791	REC_WORD	10.258	n/a	SWEET	-999	4	n/a	n/a	pyFR	1	TJ047
529.271	1.0	1038821	REC_WORD_VV	14.288	n/a	<>	-999	4	n/a	n/a	pyFR	1	TJ047
530.271	1.0	1039821	REC_WORD_VV	15.288	n/a	<>	-999	4	n/a	n/a	pyFR	1	TJ047
531.271	5.972	1040821	REC_WORD_VV	16.288	n/a	<>	-999	4	n/a	n/a	pyFR	1	TJ047
537.243	1.0	1046793	REC_WORD_VV	22.26	n/a	<>	-999	4	n/a	n/a	pyFR	1	TJ047
538.243	1.0	1047793	REC_WORD_VV	23.26	n/a	<>	-999	4	n/a	n/a	pyFR	1	TJ047
539.243	1.0	1048793	REC_WORD_VV	24.26	n/a	<>	-999	4	n/a	n/a	pyFR	1	TJ047
540.243	1.0	1049793	REC_WORD_VV	25.26	n/a	<>	-999	4	n/a	n/a	pyFR	1	TJ047
541.243	1.0	1050792	REC_WORD_VV	26.26	n/a	<>	-999	4	n/a	n/a	pyFR	1	TJ047
542.243	1.0	1051792	REC_WORD_VV	27.26	n/a	<>	-999	4	n/a	n/a	pyFR	1	TJ047
543.243	6.163	1052792	REC_WORD_VV	28.26	n/a	<>	-999	4	n/a	n/a	pyFR	1	TJ047
549.406	2.394	1058955	REC_WORD	34.423	n/a	TRUCK	-999	4	n/a	n/a	pyFR	1	TJ047
551.8	26.105	1061349	REC_WORD	36.817	n/a	FARM	-999	4	n/a	n/a	pyFR	1	TJ047
577.905	0.016	1087453	TRIAL	n/a	n/a	n/a	-999	5	n/a	n/a	pyFR	1	TJ047
577.921	2.956	1087469	ORIENT	n/a	n/a	n/a	-999	5	n/a	n/a	pyFR	1	TJ047
580.877	2.772	1090425	WORD	n/a	wordpools/wordpool_EN.txt	FROG	1	5	n/a	n/a	pyFR	1	TJ047
583.649	2.689	1093197	WORD	n/a	wordpools/wordpool_EN.txt	GEESE	2	5	n/a	n/a	pyFR	1	TJ047
586.338	2.752	1095886	WORD	n/a	wordpools/wordpool_EN.txt	PEN	3	5	n/a	n/a	pyFR	1	TJ047
589.09	2.422	1098638	WORD	n/a	wordpools/wordpool_EN.txt	ARK	4	5	n/a	n/a	pyFR	1	TJ047
591.512	2.654	1101060	WORD	n/a	wordpools/wordpool_EN.txt	WING	5	5	n/a	n/a	pyFR	1	TJ047
594.166	2.688	1103714	WORD	n/a	wordpools/wordpool_EN.txt	TOAST	6	5	n/a	n/a	pyFR	1	TJ047
596.854	2.705	1106401	WORD	n/a	wordpools/wordpool_EN.txt	MAIL	7	5	n/a	n/a	pyFR	1	TJ047
599.559	2.771	1109106	WORD	n/a	wordpools/wordpool_EN.txt	TOAD	8	5	n/a	n/a	pyFR	1	TJ047
602.33	2.538	1111877	WORD	n/a	wordpools/wordpool_EN.txt	TOOL	9	5	n/a	n/a	pyFR	1	TJ047
604.868	2.671	1114415	WORD	n/a	wordpools/wordpool_EN.txt	FILM	10	5	n/a	n/a	pyFR	1	TJ047
607.539	2.804	1117086	WORD	n/a	wordpools/wordpool_EN.txt	STEAM	11	5	n/a	n/a	pyFR	1	TJ047
610.343	2.472	1119890	WORD	n/a	wordpools/wordpool_EN.txt	GATE	12	5	n/a	n/a	pyFR	1	TJ047
612.815	2.788	1122362	WORD	n/a	wordpools/wordpool_EN.txt	BRIDGE	13	5	n/a	n/a	pyFR	1	TJ047
615.603	2.67	1125150	WORD	n/a	wordpools/wordpool_EN.txt	CUBE	14	5	n/a	n/a	pyFR	1	TJ047
618.273	1.605	1127820	WORD	n/a	wordpools/wordpool_EN.txt	HOSE	15	5	n/a	n/a	pyFR	1	TJ047
619.878	0.85	1129425	START	n/a	n/a	n/a	n/a	5	[-999 -999 -999]	-999	pyFR	1	TJ047
620.728	5.693	1130275	PROB	5.664	n/a	n/a	n/a	5	[9 3 5]	17	pyFR	1	TJ047
626.421	10.55	1135967	PROB	10.517	n/a	n/a	n/a	5	[6 2 7]	20	pyFR	1	TJ047
636.971	8.983	1146517	PROB	8.983	n/a	n/a	n/a	5	[7 1 3]	11	pyFR	1	TJ047
645.954	1.184	1155500	STOP	n/a	n/a	n/a	n/a	5	[-999 -999 -999]	-999	pyFR	1	TJ047
647.138	0.0	1156684	REC_START	n/a	n/a	n/a	-999	5	n/a	n/a	pyFR	1	TJ047
647.138	3.641	1156684	REC_WORD_VV	0.0	n/a	<>	-999	5	n/a	n/a	pyFR	1	TJ047
650.779	2.327	1160324	REC_WORD	3.641	n/a	PEN	-999	5	n/a	n/a	pyFR	1	TJ047
653.106	6.331	1162651	REC_WORD	5.968	n/a	STEAM	-999	5	n/a	n/a	pyFR	1	TJ047
659.437	1.0	1168982	REC_WORD	12.299	n/a	MOW	-999	5	n/a	n/a	pyFR	1	TJ047
660.437	2.467	1169982	REC_WORD_VV	13.299	n/a	<>	-999	5	n/a	n/a	pyFR	1	TJ047
662.904	3.019	1172449	REC_WORD_VV	15.766	n/a	<>	-999	5	n/a	n/a	pyFR	1	TJ047
665.923	1.0	1175468	REC_WORD_VV	18.785	n/a	<>	-999	5	n/a	n/a	pyFR	1	TJ047
666.923	1.546	1176468	REC_WORD_VV	19.785	n/a	<>	-999	5	n/a	n/a	pyFR	1	TJ047
668.469	0.693	1178014	REC_WORD	21.331	n/a	FISH	-999	5	n/a	n/a	pyFR	1	TJ047
669.162	14.918	1178707	REC_WORD	22.024	n/a	SALMON	-999	5	n/a	n/a	pyFR	1	TJ047
684.08	91.793	1193624	REC_WORD_VV	36.942	n/a	<>	-999	5	n/a	n/a	pyFR	1	TJ047
775.873	0.016	1285414	TRIAL	n/a	n/a	n/a	-999	6	n/a	n/a	pyFR	1	TJ047
775.889	2.637	1285430	ORIENT	n/a	n/a	n/a	-999	6	n/a	n/a	pyFR	1	TJ047
778.526	2.788	1288067	WORD	n/a	wordpools/wordpool_EN.txt	FORK	1	6	n/a	n/a	pyFR	1	TJ047
781.314	2.821	1290855	WORD	n/a	wordpools/wordpool_EN.txt	ANT	2	6	n/a	n/a	pyFR	1	TJ047
784.135	2.605	1293675	WORD	n/a	wordpools/wordpool_EN.txt	ROCK	3	6	n/a	n/a	pyFR	1	TJ047
786.74	2.454	1296280	WORD	n/a	wordpools/wordpool_EN.txt	KITE	4	6	n/a	n/a	pyFR	1	TJ047
789.194	2.689	1298734	WORD	n/a	wordpools/wordpool_EN.txt	FORT	5	6	n/a	n/a	pyFR	1	TJ047
791.883	2.804	1301423	WORD	n/a	wordpools/wordpool_EN.txt	BADGE	6	6	n/a	n/a	pyFR	1	TJ047
794.687	2.453	1304227	WORD	n/a	wordpools/wordpool_EN.txt	BLUSH	7	6	n/a	n/a	pyFR	1	TJ047
797.14	2.656	1306680	WORD	n/a	wordpools/wordpool_EN.txt	POND	8	6	n/a	n/a	pyFR	1	TJ047
799.796	2.437	1309336	WORD	n/a	wordpools/wordpool_EN.txt	HOLE	9	6	n/a	n/a	pyFR	1	TJ047
802.233	2.655	1311773	WORD	n/a	wordpools/wordpool_EN.txt	FOG	10	6	n/a	n/a	pyFR	1	TJ047
804.888	2.471	1314428	WORD	n/a	wordpools/wordpool_EN.txt	SLUSH	11	6	n/a	n/a	pyFR	1	TJ047
807.359	2.521	1316899	WORD	n/a	wordpools/wordpool_EN.txt	FLUTE	12	6	n/a	n/a	pyFR	1	TJ047
809.88	2.436	1319419	WORD	n/a	wordpools/wordpool_EN.txt	SWORD	13	6	n/a	n/a	pyFR	1	TJ047
812.316	2.489	1321855	WORD	n/a	wordpools/wordpool_EN.txt	KEY	14	6	n/a	n/a	pyFR	1	TJ047
814.805	1.62	1324344	WORD	n/a	wordpools/wordpool_EN.txt	DAD	15	6	n/a	n/a	pyFR	1	TJ047
816.425	0.934	1325964	START	n/a	n/a	n/a	n/a	6	[-999 -999 -999]	-999	pyFR	1	TJ047
817.359	6.193	1326898	PROB	6.159	n/a	n/a	n/a	6	[2 1 2]	5	pyFR	1	TJ047
823.552	4.257	1333091	PROB	4.23	n/a	n/a	n/a	6	[7 5 2]	14	pyFR	1	TJ047
827.809	3.489	1337348	PROB	3.46	n/a	n/a	n/a	6	[9 1 7]	17	pyFR	1	TJ047
831.298	9.811	1340837	PROB	9.811	n/a	n/a	n/a	6	[4 3 8]	16	pyFR	1	TJ047
841.109	1.208	1350647	STOP	n/a	n/a	n/a	n/a	6	[-999 -999 -999]	-999	pyFR	1	TJ047
842.317	0.0	1351855	REC_START	n/a	n/a	n/a	-999	6	n/a	n/a	pyFR	1	TJ047
842.317	1.999	1351855	REC_WORD_VV	0.0	n/a	<>	-999	6	n/a	n/a	pyFR	1	TJ047
844.316	1.0	1353854	REC_WORD_VV	1.999	n/a	<>	-999	6	n/a	n/a	pyFR	1	TJ047
845.316	1.0	1354854	REC_WORD_VV	2.999	n/a	<>	-999	6	n/a	n/a	pyFR	1	TJ047
846.316	1.289	1355854	REC_WORD_VV	3.999	n/a	<>	-999	6	n/a	n/a	pyFR	1	TJ047
847.605	0.565	1357143	REC_WORD_VV	5.288	n/a	<>	-999	6	n/a	n/a	pyFR	1	TJ047
848.17	2.914	1357708	REC_WORD	5.853	n/a	DAD	-999	6	n/a	n/a	pyFR	1	TJ047
851.084	1.118	1360622	REC_WORD	8.767	n/a	TREND	-999	6	n/a	n/a	pyFR	1	TJ047
852.202	2.937	1361740	REC_WORD	9.885	n/a	TENT	-999	6	n/a	n/a	pyFR	1	TJ047
855.139	1.664	1364677	REC_WORD	12.822	n/a	FROST	-999	6	n/a	n/a	pyFR	1	TJ047
856.803	2.083	1366341	REC_WORD	14.486	n/a	FOG	-999	6	n/a	n/a	pyFR	1	TJ047
858.886	5.362	1368424	REC_WORD	16.569	n/a	HOLE	-999	6	n/a	n/a	pyFR	1	TJ047
864.248	4.646	1373785	REC_WORD	21.931	n/a	HOSE	-999	6	n/a	n/a	pyFR	1	TJ047
868.894	1.0	1378431	REC_WORD_VV	26.577	n/a	<>	-999	6	n/a	n/a	pyFR	1	TJ047
869.894	5.93	1379431	REC_WORD_VV	27.577	n/a	<>	-999	6	n/a	n/a	pyFR	1	TJ047
875.824	4.092	1385361	REC_WORD_VV	33.507	n/a	<>	-999	6	n/a	n/a	pyFR	1	TJ047
879.916	4.786	1389453	REC_WORD_VV	37.599	n/a	<>	-999	6	n/a	n/a	pyFR	1	TJ047
884.702	1.0	1394239	REC_WORD_VV	42.385	n/a	<>	-999	6	n/a	n/a	pyFR	1	TJ047
885.702	12.176	1395239	REC_WORD_VV	43.385	n/a	<>	-999	6	n/a	n/a	pyFR	1	TJ047
897.878	0.016	1407414	TRIAL	n/a	n/a	n/a	-999	7	n/a	n/a	pyFR	1	TJ047
897.894	2.838	1407430	ORIENT	n/a	n/a	n/a	-999	7	n/a	n/a	pyFR	1	TJ047
900.732	2.822	1410268	WORD	n/a	wordpools/wordpool_EN.txt	ROOF	1	7	n/a	n/a	pyFR	1	TJ047
903.554	2.62	1413090	WORD	n/a	wordpools/wordpool_EN.txt	BOAT	2	7	n/a	n/a	pyFR	1	TJ047
906.174	2.771	1415710	WORD	n/a	wordpools/wordpool_EN.txt	MUD	3	7	n/a	n/a	pyFR	1	TJ047
908.945	2.505	1418481	WORD	n/a	wordpools/wordpool_EN.txt	STONE	4	7	n/a	n/a	pyFR	1	TJ047
911.45	2.52	1420986	WORD	n/a	wordpools/wordpool_EN.txt	BOOK	5	7	n/a	n/a	pyFR	1	TJ047
913.97	2.622	1423506	WORD	n/a	wordpools/wordpool_EN.txt	BOX	6	7	n/a	n/a	pyFR	1	TJ047
916.592	2.654	1426128	WORD	n/a	wordpools/wordpool_EN.txt	ROOT	7	7	n/a	n/a	pyFR	1	TJ047
919.246	2.589	1428781	WORD	n/a	wordpools/wordpool_EN.txt	SOUP	8	7	n/a	n/a	pyFR	1	TJ047
921.835	2.671	1431370	WORD	n/a	wordpools/wordpool_EN.txt	HEN	9	7	n/a	n/a	pyFR	1	TJ047
924.506	2.737	1434041	WORD	n/a	wordpools/wordpool_EN.txt	BEAN	10	7	n/a	n/a	pyFR	1	TJ047
927.243	2.505	1436778	WORD	n/a	wordpools/wordpool_EN.txt	RAKE	11	7	n/a	n/a	pyFR	1	TJ047
929.748	2.688	1439283	WORD	n/a	wordpools/wordpool_EN.txt	WALL	12	7	n/a	n/a	pyFR	1	TJ047
932.436	2.753	1441971	WORD	n/a	wordpools/wordpool_EN.txt	DRESS	13	7	n/a	n/a	pyFR	1	TJ047
935.189	2.805	1444724	WORD	n/a	wordpools/wordpool_EN.txt	PEARL	14	7	n/a	n/a	pyFR	1	TJ047
937.994	1.605	1447529	WORD	n/a	wordpools/wordpool_EN.txt	STOOL	15	7	n/a	n/a	pyFR	1	TJ047
939.599	0.85	1449134	START	n/a	n/a	n/a	n/a	7	[-999 -999 -999]	-999	pyFR	1	TJ047
940.449	5.259	1449984	PROB	5.224	n/a	n/a	n/a	7	[8 3 1]	12	pyFR	1	TJ047
945.708	3.122	1455242	PROB	3.092	n/a	n/a	n/a	7	[3 4 7]	14	pyFR	1	TJ047
948.83	3.907	1458364	PROB	3.883	n/a	n/a	n/a	7	[7 2 9]	18	pyFR	1	TJ047
952.737	5.207	1462271	PROB	5.183	n/a	n/a	n/a	7	[7 7 3]	17	pyFR	1	TJ047
957.944	4.216	1467478	PROB	4.216	n/a	n/a	n/a	7	[3 1 9]	10	pyFR	1	TJ047
962.16	1.11	1471694	STOP	n/a	n/a	n/a	n/a	7	[-999 -999 -999]	-999	pyFR	1	TJ047
963.27	0.0	1472804	REC_WORD_VV	0.0	n/a	<>	-999	7	n/a	n/a	pyFR	1	TJ047
963.27	1.0	1472804	REC_START	n/a	n/a	n/a	-999	7	n/a	n/a	pyFR	1	TJ047
964.27	1.0	1473804	REC_WORD_VV	1.0	n/a	<>	-999	7	n/a	n/a	pyFR	1	TJ047
965.27	2.357	1474804	REC_WORD_VV	2.0	n/a	<>	-999	7	n/a	n/a	pyFR	1	TJ047
967.627	2.116	1477161	REC_WORD	4.357	n/a	STOOL	-999	7	n/a	n/a	pyFR	1	TJ047
969.743	4.602	1479277	REC_WORD	6.473	n/a	HEN	-999	7	n/a	n/a	pyFR	1	TJ047
974.345	8.589	1483878	REC_WORD	11.075	n/a	FENCE	-999	7	n/a	n/a	pyFR	1	TJ047
982.934	0.836	1492467	REC_WORD	19.664	n/a	HEN	-999	7	n/a	n/a	pyFR	1	TJ047
983.77	1.346	1493303	REC_WORD	20.5	n/a	FENCE	-999	7	n/a	n/a	pyFR	1	TJ047
985.116	0.395	1494649	REC_WORD	21.846	n/a	PANTS	-999	7	n/a	n/a	pyFR	1	TJ047
985.511	3.445	1495044	REC_WORD	22.241	n/a	SHIRT	-999	7	n/a	n/a	pyFR	1	TJ047
988.956	5.556	1498489	REC_WORD	25.686	n/a	HOSE	-999	7	n/a	n/a	pyFR	1	TJ047
994.512	6.242	1504045	REC_WORD_VV	31.242	n/a	<>	-999	7	n/a	n/a	pyFR	1	TJ047
1000.754	0.475	1510286	REC_WORD	37.484	n/a	BOOT	-999	7	n/a	n/a	pyFR	1	TJ047
1001.229	1.443	1510761	REC_WORD_VV	37.959	n/a	<>	-999	7	n/a	n/a	pyFR	1	TJ047
1002.672	23.806	1512204	REC_WORD	39.402	n/a	BOAT	-999	7	n/a	n/a	pyFR	1	TJ047
1026.478	0.016	1536009	TRIAL	n/a	n/a	n/a	-999	8	n/a	n/a	pyFR	1	TJ047
1026.494	2.754	1536025	ORIENT	n/a	n/a	n/a	-999	8	n/a	n/a	pyFR	1	TJ047
1029.248	2.721	1538779	WORD	n/a	wordpools/wordpool_EN.txt	CAR	1	8	n/a	n/a	pyFR	1	TJ047
1031.969	2.739	1541500	WORD	n/a	wordpools/wordpool_EN.txt	SHRIMP	2	8	n/a	n/a	pyFR	1	TJ047
1034.708	2.738	1544239	WORD	n/a	wordpools/wordpool_EN.txt	BATH	3	8	n/a	n/a	pyFR	1	TJ047
1037.446	2.62	1546977	WORD	n/a	wordpools/wordpool_EN.txt	WEB	4	8	n/a	n/a	pyFR	1	TJ047
1040.066	2.421	1549597	WORD	n/a	wordpools/wordpool_EN.txt	PURSE	5	8	n/a	n/a	pyFR	1	TJ047
1042.487	2.504	1552018	WORD	n/a	wordpools/wordpool_EN.txt	CAGE	6	8	n/a	n/a	pyFR	1	TJ047
1044.991	2.706	1554522	WORD	n/a	wordpools/wordpool_EN.txt	EGG	7	8	n/a	n/a	pyFR	1	TJ047
1047.697	2.619	1557228	WORD	n/a	wordpools/wordpool_EN.txt	MOUSE	8	8	n/a	n/a	pyFR	1	TJ047
1050.316	2.622	1559847	WORD	n/a	wordpools/wordpool_EN.txt	CROWN	9	8	n/a	n/a	pyFR	1	TJ047
1052.938	2.471	1562468	WORD	n/a	wordpools/wordpool_EN.txt	TRASH	10	8	n/a	n/a	pyFR	1	TJ047
1055.409	2.455	1564939	WORD	n/a	wordpools/wordpool_EN.txt	RIB	11	8	n/a	n/a	pyFR	1	TJ047
1057.864	2.788	1567394	WORD	n/a	wordpools/wordpool_EN.txt	DOCK	12	8	n/a	n/a	pyFR	1	TJ047
1060.652	2.636	1570182	WORD	n/a	wordpools/wordpool_EN.txt	FLAME	13	8	n/a	n/a	pyFR	1	TJ047
1063.288	2.522	1572818	WORD	n/a	wordpools/wordpool_EN.txt	HOUSE	14	8	n/a	n/a	pyFR	1	TJ047
1065.81	1.621	1575340	WORD	n/a	wordpools/wordpool_EN.txt	SOAP	15	8	n/a	n/a	pyFR	1	TJ047
1067.431	1.017	1576961	START	n/a	n/a	n/a	n/a	8	[-999 -999 -999]	-999	pyFR	1	TJ047
1068.448	4.307	1577978	PROB	4.28	n/a	n/a	n/a	8	[3 5 6]	14	pyFR	1	TJ047
1072.755	6.027	1582285	PROB	5.99	n/a	n/a	n/a	8	[4 9 7]	20	pyFR	1	TJ047
1078.782	3.94	1588311	PROB	3.907	n/a	n/a	n/a	8	[2 4 3]	9	pyFR	1	TJ047
1082.722	3.89	1592251	PROB	3.855	n/a	n/a	n/a	8	[1 5 3]	9	pyFR	1	TJ047
1086.612	4.285	1596141	PROB	4.285	n/a	n/a	n/a	8	[6 3 3]	12	pyFR	1	TJ047
1090.897	1.24	1600426	STOP	n/a	n/a	n/a	n/a	8	[-999 -999 -999]	-999	pyFR	1	TJ047
1092.137	1.444	1601666	REC_START	n/a	n/a	n/a	-999	8	n/a	n/a	pyFR	1	TJ047
1093.581	0.56	1603110	REC_WORD_VV	1.444	n/a	<>	-999	8	n/a	n/a	pyFR	1	TJ047
1094.141	0.915	1603670	REC_WORD	2.004	n/a	EGG	-999	8	n/a	n/a	pyFR	1	TJ047
1095.056	2.653	1604585	REC_WORD	2.919	n/a	MOUSE	-999	8	n/a	n/a	pyFR	1	TJ047
1097.709	0.647	1607238	REC_WORD_VV	5.572	n/a	<>	-999	8	n/a	n/a	pyFR	1	TJ047
1098.356	3.503	1607885	REC_WORD	6.219	n/a	CAGE	-999	8	n/a	n/a	pyFR	1	TJ047
1101.859	1.0	1611388	REC_WORD	9.722	n/a	WAGE	-999	8	n/a	n/a	pyFR	1	TJ047
1102.859	2.016	1612388	REC_WORD_VV	10.722	n/a	<>	-999	8	n/a	n/a	pyFR	1	TJ047
1104.875	0.42	1614404	REC_WORD_VV	12.738	n/a	<>	-999	8	n/a	n/a	pyFR	1	TJ047
1105.295	1.0	1614823	REC_WORD	13.158	n/a	WATER	-999	8	n/a	n/a	pyFR	1	TJ047
1106.295	1.574	1615823	REC_WORD_VV	14.158	n/a	<>	-999	8	n/a	n/a	pyFR	1	TJ047
1107.869	1.0	1617397	REC_WORD	15.732	n/a	SHRIMP	-999	8	n/a	n/a	pyFR	1	TJ047
1108.869	6.536	1618397	REC_WORD_VV	16.732	n/a	<>	-999	8	n/a	n/a	pyFR	1	TJ047
1115.405	6.341	1624933	REC_WORD	23.268	n/a	DISPOSAL	-999	8	n/a	n/a	pyFR	1	TJ047
1121.746	4.646	1631274	REC_WORD	29.609	n/a	TRASH	-999	8	n/a	n/a	pyFR	1	TJ047
1126.392	14.946	1635920	REC_WORD_VV	34.255	n/a	<>	-999	8	n/a	n/a	pyFR	1	TJ047
1141.338	0.016	1650865	TRIAL	n/a	n/a	n/a	-999	9	n/a	n/a	pyFR	1	TJ047
1141.354	2.72	1650881	ORIENT	n/a	n/a	n/a	-999	9	n/a	n/a	pyFR	1	TJ047
1144.074	2.505	1653601	WORD	n/a	wordpools/wordpool_EN.txt	SNAIL	1	9	n/a	n/a	pyFR	1	TJ047
1146.579	2.671	1656106	WORD	n/a	wordpools/wordpool_EN.txt	BOARD	2	9	n/a	n/a	pyFR	1	TJ047
1149.25	2.821	1658777	WORD	n/a	wordpools/wordpool_EN.txt	BROOM	3	9	n/a	n/a	pyFR	1	TJ047
1152.071	2.706	1661598	WORD	n/a	wordpools/wordpool_EN.txt	GIRL	4	9	n/a	n/a	pyFR	1	TJ047
1154.777	2.804	1664304	WORD	n/a	wordpools/wordpool_EN.txt	JAR	5	9	n/a	n/a	pyFR	1	TJ047
1157.581	2.62	1667108	WORD	n/a	wordpools/wordpool_EN.txt	COAT	6	9	n/a	n/a	pyFR	1	TJ047
1160.201	2.788	1669727	WORD	n/a	wordpools/wordpool_EN.txt	PALM	7	9	n/a	n/a	pyFR	1	TJ047
1162.989	2.756	1672515	WORD	n/a	wordpools/wordpool_EN.txt	DART	8	9	n/a	n/a	pyFR	1	TJ047
1165.745	2.788	1675271	WORD	n/a	wordpools/wordpool_EN.txt	TENT	9	9	n/a	n/a	pyFR	1	TJ047
1168.533	2.788	1678059	WORD	n/a	wordpools/wordpool_EN.txt	ROOM	10	9	n/a	n/a	pyFR	1	TJ047
1171.321	2.571	1680847	WORD	n/a	wordpools/wordpool_EN.txt	HEART	11	9	n/a	n/a	pyFR	1	TJ047
1173.892	2.788	1683418	WORD	n/a	wordpools/wordpool_EN.txt	WAND	12	9	n/a	n/a	pyFR	1	TJ047
1176.68	2.655	1686206	WORD	n/a	wordpools/wordpool_EN.txt	STAIR	13	9	n/a	n/a	pyFR	1	TJ047
1179.335	2.554	1688861	WORD	n/a	wordpools/wordpool_EN.txt	BOMB	14	9	n/a	n/a	pyFR	1	TJ047
1181.889	1.62	1691415	WORD	n/a	wordpools/wordpool_EN.txt	ICE	15	9	n/a	n/a	pyFR	1	TJ047
1183.509	1.101	1693035	START	n/a	n/a	n/a	n/a	9	[-999 -999 -999]	-999	pyFR	1	TJ047
1184.61	7.612	1694136	PROB	7.585	n/a	n/a	n/a	9	[5 9 1]	15	pyFR	1	TJ047
1192.222	4.625	1701747	PROB	4.59	n/a	n/a	n/a	9	[4 7 5]	16	pyFR	1	TJ047
1196.847	3.59	1706372	PROB	3.565	n/a	n/a	n/a	9	[1 9 8]	18	pyFR	1	TJ047
1200.437	6.045	1709962	PROB	6.045	n/a	n/a	n/a	9	[2 7 7]	16	pyFR	1	TJ047
1206.482	1.067	1716007	STOP	n/a	n/a	n/a	n/a	9	[-999 -999 -999]	-999	pyFR	1	TJ047
1207.549	1.049	1717074	REC_START	n/a	n/a	n/a	-999	9	n/a	n/a	pyFR	1	TJ047
1208.598	0.238	1718123	REC_WORD_VV	1.049	n/a	<>	-999	9	n/a	n/a	pyFR	1	TJ047
1208.836	1.0	1718361	REC_WORD	1.287	n/a	SPOON	-999	9	n/a	n/a	pyFR	1	TJ047
1209.836	1.565	1719361	REC_WORD_VV	2.287	n/a	<>	-999	9	n/a	n/a	pyFR	1	TJ047
1211.401	1.256	1720926	REC_WORD	3.852	n/a	BAR	-999	9	n/a	n/a	pyFR	1	TJ047
1212.657	2.084	1722181	REC_WORD	5.108	n/a	WET	-999	9	n/a	n/a	pyFR	1	TJ047
1214.741	1.064	1724265	REC_WORD	7.192	n/a	FORK	-999	9	n/a	n/a	pyFR	1	TJ047
1215.805	2.241	1725329	REC_WORD	8.256	n/a	KNIFE	-999	9	n/a	n/a	pyFR	1	TJ047
1218.046	3.236	1727570	REC_WORD	10.497	n/a	SPOON	-999	9	n/a	n/a	pyFR	1	TJ047
1221.282	1.0	1730806	REC_WORD_VV	13.733	n/a	<>	-999	9	n/a	n/a	pyFR	1	TJ047
1222.282	4.607	1731806	REC_WORD_VV	14.733	n/a	<>	-999	9	n/a	n/a	pyFR	1	TJ047
1226.889	4.221	1736413	REC_WORD	19.34	n/a	SQUIRREL	-999	9	n/a	n/a	pyFR	1	TJ047
1231.11	7.234	1740634	REC_WORD	23.561	n/a	PALM	-999	9	n/a	n/a	pyFR	1	TJ047
1238.344	1.0	1747868	REC_WORD_VV	30.795	n/a	<>	-999	9	n/a	n/a	pyFR	1	TJ047
1239.344	5.289	1748868	REC_WORD_VV	31.795	n/a	<>	-999	9	n/a	n/a	pyFR	1	TJ047
1244.633	5.447	1754156	REC_WORD_VV	37.084	n/a	<>	-999	9	n/a	n/a	pyFR	1	TJ047
1250.08	6.552	1759603	REC_WORD_VV	42.531	n/a	<>	-999	9	n/a	n/a	pyFR	1	TJ047
1256.632	0.016	1766155	TRIAL	n/a	n/a	n/a	-999	10	n/a	n/a	pyFR	1	TJ047
1256.648	3.005	1766171	ORIENT	n/a	n/a	n/a	-999	10	n/a	n/a	pyFR	1	TJ047
1259.653	2.772	1769176	WORD	n/a	wordpools/wordpool_EN.txt	GLOVE	1	10	n/a	n/a	pyFR	1	TJ047
1262.425	2.77	1771948	WORD	n/a	wordpools/wordpool_EN.txt	BENCH	2	10	n/a	n/a	pyFR	1	TJ047
1265.195	2.622	1774718	WORD	n/a	wordpools/wordpool_EN.txt	POLE	3	10	n/a	n/a	pyFR	1	TJ047
1267.817	2.522	1777339	WORD	n/a	wordpools/wordpool_EN.txt	CONE	4	10	n/a	n/a	pyFR	1	TJ047
1270.339	2.802	1779861	WORD	n/a	wordpools/wordpool_EN.txt	ROSE	5	10	n/a	n/a	pyFR	1	TJ047
1273.141	2.805	1782663	WORD	n/a	wordpools/wordpool_EN.txt	BRUSH	6	10	n/a	n/a	pyFR	1	TJ047
1275.946	2.789	1785468	WORD	n/a	wordpools/wordpool_EN.txt	FOX	7	10	n/a	n/a	pyFR	1	TJ047
1278.735	2.605	1788257	WORD	n/a	wordpools/wordpool_EN.txt	LAWN	8	10	n/a	n/a	pyFR	1	TJ047
1281.34	2.67	1790862	WORD	n/a	wordpools/wordpool_EN.txt	FLAG	9	10	n/a	n/a	pyFR	1	TJ047
1284.01	2.822	1793532	WORD	n/a	wordpools/wordpool_EN.txt	HAND	10	10	n/a	n/a	pyFR	1	TJ047
1286.832	2.621	1796354	WORD	n/a	wordpools/wordpool_EN.txt	DOLL	11	10	n/a	n/a	pyFR	1	TJ047
1289.453	2.587	1798975	WORD	n/a	wordpools/wordpool_EN.txt	MOTH	12	10	n/a	n/a	pyFR	1	TJ047
1292.04	2.455	1801562	WORD	n/a	wordpools/wordpool_EN.txt	SNAKE	13	10	n/a	n/a	pyFR	1	TJ047
1294.495	2.754	1804016	WORD	n/a	wordpools/wordpool_EN.txt	SUN	14	10	n/a	n/a	pyFR	1	TJ047
1297.249	1.621	1806770	WORD	n/a	wordpools/wordpool_EN.txt	RICE	15	10	n/a	n/a	pyFR	1	TJ047
1298.87	0.984	1808391	START	n/a	n/a	n/a	n/a	10	[-999 -999 -999]	-999	pyFR	1	TJ047
1299.854	5.626	1809375	PROB	5.596	n/a	n/a	n/a	10	[9 2 8]	19	pyFR	1	TJ047
1305.48	4.74	1815001	PROB	4.705	n/a	n/a	n/a	10	[3 2 5]	10	pyFR	1	TJ047
1310.22	4.392	1819741	PROB	4.358	n/a	n/a	n/a	10	[3 5 1]	9	pyFR	1	TJ047
1314.612	6.762	1824133	PROB	6.762	n/a	n/a	n/a	10	[5 9 9]	23	pyFR	1	TJ047
1321.374	1.202	1830894	STOP	n/a	n/a	n/a	n/a	10	[-999 -999 -999]	-999	pyFR	1	TJ047
1322.576	3.857	1832096	REC_START	n/a	n/a	n/a	-999	10	n/a	n/a	pyFR	1	TJ047
1326.433	5.103	1835953	REC_WORD	3.857	n/a	GLOVE	-999	10	n/a	n/a	pyFR	1	TJ047
1331.536	1.0	1841056	REC_WORD_VV	8.96	n/a	<>	-999	10	n/a	n/a	pyFR	1	TJ047
1332.536	1.0	1842056	REC_WORD_VV	9.96	n/a	<>	-999	10	n/a	n/a	pyFR	1	TJ047
1333.536	1.0	1843056	REC_WORD_VV	10.96	n/a	<>	-999	10	n/a	n/a	pyFR	1	TJ047
1334.536	1.0	1844056	REC_WORD_VV	11.96	n/a	<>	-999	10	n/a	n/a	pyFR	1	TJ047
1335.536	2.029	1845056	REC_WORD_VV	12.96	n/a	<>	-999	10	n/a	n/a	pyFR	1	TJ047
1337.565	2.988	1847085	REC_WORD	14.989	n/a	GLOVE	-999	10	n/a	n/a	pyFR	1	TJ047
1340.553	2.754	1850073	REC_WORD	17.977	n/a	WOOD	-999	10	n/a	n/a	pyFR	1	TJ047
1343.307	0.995	1852827	REC_WORD	20.731	n/a	FOX	-999	10	n/a	n/a	pyFR	1	TJ047
1344.302	4.706	1853822	REC_WORD	21.726	n/a	LAWN	-999	10	n/a	n/a	pyFR	1	TJ047
1349.008	1.0	1858527	REC_WORD_VV	26.432	n/a	<>	-999	10	n/a	n/a	pyFR	1	TJ047
1350.008	2.354	1859527	REC_WORD_VV	27.432	n/a	<>	-999	10	n/a	n/a	pyFR	1	TJ047
1352.362	3.247	1861881	REC_WORD_VV	29.786	n/a	<>	-999	10	n/a	n/a	pyFR	1	TJ047
1355.609	1.0	1865128	REC_WORD_VV	33.033	n/a	<>	-999	10	n/a	n/a	pyFR	1	TJ047
1356.609	19.173	1866128	REC_WORD_VV	34.033	n/a	<>	-999	10	n/a	n/a	pyFR	1	TJ047
1375.782	0.017	1885300	TRIAL	n/a	n/a	n/a	-999	11	n/a	n/a	pyFR	1	TJ047
1375.799	2.904	1885317	ORIENT	n/a	n/a	n/a	-999	11	n/a	n/a	pyFR	1	TJ047
1378.703	2.789	1888221	WORD	n/a	wordpools/wordpool_EN.txt	BANK	1	11	n/a	n/a	pyFR	1	TJ047
1381.492	2.553	1891010	WORD	n/a	wordpools/wordpool_EN.txt	LAKE	2	11	n/a	n/a	pyFR	1	TJ047
1384.045	2.772	1893563	WORD	n/a	wordpools/wordpool_EN.txt	FOAM	3	11	n/a	n/a	pyFR	1	TJ047
1386.817	2.822	1896335	WORD	n/a	wordpools/wordpool_EN.txt	PIT	4	11	n/a	n/a	pyFR	1	TJ047
1389.639	2.721	1899157	WORD	n/a	wordpools/wordpool_EN.txt	BELL	5	11	n/a	n/a	pyFR	1	TJ047
1392.36	2.77	1901878	WORD	n/a	wordpools/wordpool_EN.txt	SQUARE	6	11	n/a	n/a	pyFR	1	TJ047
1395.13	2.439	1904648	WORD	n/a	wordpools/wordpool_EN.txt	FRUIT	7	11	n/a	n/a	pyFR	1	TJ047
1397.569	2.636	1907087	WORD	n/a	wordpools/wordpool_EN.txt	TOY	8	11	n/a	n/a	pyFR	1	TJ047
1400.205	2.556	1909723	WORD	n/a	wordpools/wordpool_EN.txt	AXE	9	11	n/a	n/a	pyFR	1	TJ047
1402.761	2.771	1912278	WORD	n/a	wordpools/wordpool_EN.txt	PASTE	10	11	n/a	n/a	pyFR	1	TJ047
1405.532	2.52	1915049	WORD	n/a	wordpools/wordpool_EN.txt	VASE	11	11	n/a	n/a	pyFR	1	TJ047
1408.052	2.756	1917569	WORD	n/a	wordpools/wordpool_EN.txt	JAIL	12	11	n/a	n/a	pyFR	1	TJ047
1410.808	2.804	1920325	WORD	n/a	wordpools/wordpool_EN.txt	GRASS	13	11	n/a	n/a	pyFR	1	TJ047
1413.612	2.788	1923129	WORD	n/a	wordpools/wordpool_EN.txt	CAVE	14	11	n/a	n/a	pyFR	1	TJ047
1416.4	1.62	1925917	WORD	n/a	wordpools/wordpool_EN.txt	TANK	15	11	n/a	n/a	pyFR	1	TJ047
1418.02	0.967	1927537	START	n/a	n/a	n/a	n/a	11	[-999 -999 -999]	-999	pyFR	1	TJ047
1418.987	6.06	1928504	PROB	6.031	n/a	n/a	n/a	11	[9 2 2]	13	pyFR	1	TJ047
1425.047	3.54	1934564	PROB	3.516	n/a	n/a	n/a	11	[2 5 1]	8	pyFR	1	TJ047
1428.587	8.397	1938103	PROB	8.366	n/a	n/a	n/a	11	[5 6 8]	19	pyFR	1	TJ047
1436.984	5.257	1946500	PROB	5.257	n/a	n/a	n/a	11	[2 7 7]	16	pyFR	1	TJ047
1442.241	1.054	1951757	STOP	n/a	n/a	n/a	n/a	11	[-999 -999 -999]	-999	pyFR	1	TJ047
1443.295	1.862	1952811	REC_START	n/a	n/a	n/a	-999	11	n/a	n/a	pyFR	1	TJ047
1445.157	2.853	1954673	REC_WORD	1.862	n/a	VASE	-999	11	n/a	n/a	pyFR	1	TJ047
1448.01	3.934	1957526	REC_WORD	4.715	n/a	CASE	-999	11	n/a	n/a	pyFR	1	TJ047
1451.944	2.053	1961460	REC_WORD	8.649	n/a	JAIL	-999	11	n/a	n/a	pyFR	1	TJ047
1453.997	1.0	1963513	REC_WORD	10.702	n/a	AXE	-999	11	n/a	n/a	pyFR	1	TJ047
1454.997	5.462	1964512	REC_WORD_VV	11.702	n/a	<>	-999	11	n/a	n/a	pyFR	1	TJ047
1460.459	3.159	1969974	REC_WORD	17.164	n/a	TOY	-999	11	n/a	n/a	pyFR	1	TJ047
1463.618	1.0	1973133	REC_WORD	20.323	n/a	FOX	-999	11	n/a	n/a	pyFR	1	TJ047
1464.618	3.181	1974133	REC_WORD_VV	21.323	n/a	<>	-999	11	n/a	n/a	pyFR	1	TJ047
1467.799	7.736	1977314	REC_WORD	24.504	n/a	PIT	-999	11	n/a	n/a	pyFR	1	TJ047
1475.535	4.441	1985050	REC_WORD	32.24	n/a	LAWN	-999	11	n/a	n/a	pyFR	1	TJ047
1479.976	1.0	1989491	REC_WORD_VV	36.681	n/a	<>	-999	11	n/a	n/a	pyFR	1	TJ047
1480.976	1.0	1990491	REC_WORD_VV	37.681	n/a	<>	-999	11	n/a	n/a	pyFR	1	TJ047
1481.976	1.0	1991490	REC_WORD_VV	38.681	n/a	<>	-999	11	n/a	n/a	pyFR	1	TJ047
1482.976	12.625	1992490	REC_WORD_VV	39.681	n/a	<>	-999	11	n/a	n/a	pyFR	1	TJ047
1495.601	0.016	2005115	TRIAL	n/a	n/a	n/a	-999	12	n/a	n/a	pyFR	1	TJ047
1495.617	2.922	2005131	ORIENT	n/a	n/a	n/a	-999	12	n/a	n/a	pyFR	1	TJ047
1498.539	2.603	2008053	WORD	n/a	wordpools/wordpool_EN.txt	JUDGE	1	12	n/a	n/a	pyFR	1	TJ047
1501.142	2.705	2010656	WORD	n/a	wordpools/wordpool_EN.txt	GRAPE	2	12	n/a	n/a	pyFR	1	TJ047
1503.847	2.571	2013361	WORD	n/a	wordpools/wordpool_EN.txt	COW	3	12	n/a	n/a	pyFR	1	TJ047
1506.418	2.704	2015932	WORD	n/a	wordpools/wordpool_EN.txt	PEA	4	12	n/a	n/a	pyFR	1	TJ047
1509.122	2.455	2018635	WORD	n/a	wordpools/wordpool_EN.txt	HOOF	5	12	n/a	n/a	pyFR	1	TJ047
1511.577	2.586	2021090	WORD	n/a	wordpools/wordpool_EN.txt	DOG	6	12	n/a	n/a	pyFR	1	TJ047
1514.163	2.755	2023676	WORD	n/a	wordpools/wordpool_EN.txt	LAMP	7	12	n/a	n/a	pyFR	1	TJ047
1516.918	2.773	2026431	WORD	n/a	wordpools/wordpool_EN.txt	GOLD	8	12	n/a	n/a	pyFR	1	TJ047
1519.691	2.654	2029204	WORD	n/a	wordpools/wordpool_EN.txt	STOVE	9	12	n/a	n/a	pyFR	1	TJ047
1522.345	2.787	2031858	WORD	n/a	wordpools/wordpool_EN.txt	SMILE	10	12	n/a	n/a	pyFR	1	TJ047
1525.132	2.556	2034645	WORD	n/a	wordpools/wordpool_EN.txt	MOUTH	11	12	n/a	n/a	pyFR	1	TJ047
1527.688	2.57	2037201	WORD	n/a	wordpools/wordpool_EN.txt	RUG	12	12	n/a	n/a	pyFR	1	TJ047
1530.258	2.572	2039771	WORD	n/a	wordpools/wordpool_EN.txt	CHEEK	13	12	n/a	n/a	pyFR	1	TJ047
1532.83	2.604	2042343	WORD	n/a	wordpools/wordpool_EN.txt	PLATE	14	12	n/a	n/a	pyFR	1	TJ047
1535.434	1.619	2044946	WORD	n/a	wordpools/wordpool_EN.txt	WEED	15	12	n/a	n/a	pyFR	1	TJ047
1537.053	1.201	2046565	START	n/a	n/a	n/a	n/a	12	[-999 -999 -999]	-999	pyFR	1	TJ047
1538.254	4.841	2047766	PROB	4.812	n/a	n/a	n/a	12	[3 8 2]	13	pyFR	1	TJ047
1543.095	3.874	2052607	PROB	3.843	n/a	n/a	n/a	12	[1 8 4]	13	pyFR	1	TJ047
1546.969	3.924	2056481	PROB	3.897	n/a	n/a	n/a	12	[2 8 8]	18	pyFR	1	TJ047
1550.893	14.944	2060405	PROB	14.944	n/a	n/a	n/a	12	[8 8 7]	23	pyFR	1	TJ047
1565.837	1.2	2075348	STOP	n/a	n/a	n/a	n/a	12	[-999 -999 -999]	-999	pyFR	1	TJ047
1567.037	6.502	2076548	REC_START	n/a	n/a	n/a	-999	12	n/a	n/a	pyFR	1	TJ047
1573.539	2.317	2083050	REC_WORD	6.502	n/a	KING	-999	12	n/a	n/a	pyFR	1	TJ047
1575.856	5.97	2085367	REC_WORD	8.819	n/a	SMILE	-999	12	n/a	n/a	pyFR	1	TJ047
1581.826	1.0	2091337	REC_WORD_VV	14.789	n/a	<>	-999	12	n/a	n/a	pyFR	1	TJ047
1582.826	0.99	2092337	REC_WORD_VV	15.789	n/a	<>	-999	12	n/a	n/a	pyFR	1	TJ047
1583.816	3.055	2093327	REC_WORD	16.779	n/a	JUDGE	-999	12	n/a	n/a	pyFR	1	TJ047
1586.871	3.552	2096382	REC_WORD_VV	19.834	n/a	<>	-999	12	n/a	n/a	pyFR	1	TJ047
1590.423	1.0	2099933	REC_WORD_VV	23.386	n/a	<>	-999	12	n/a	n/a	pyFR	1	TJ047
1591.423	2.998	2100933	REC_WORD_VV	24.386	n/a	<>	-999	12	n/a	n/a	pyFR	1	TJ047
1594.421	2.052	2103931	REC_WORD_VV	27.384	n/a	<>	-999	12	n/a	n/a	pyFR	1	TJ047
1596.473	7.265	2105983	REC_WORD_VV	29.436	n/a	<>	-999	12	n/a	n/a	pyFR	1	TJ047
1603.738	1.0	2113248	REC_WORD_VV	36.701	n/a	<>	-999	12	n/a	n/a	pyFR	1	TJ047
1604.738	1.0	2114248	REC_WORD_VV	37.701	n/a	<>	-999	12	n/a	n/a	pyFR	1	TJ047
1605.738	1.0	2115248	REC_WORD_VV	38.701	n/a	<>	-999	12	n/a	n/a	pyFR	1	TJ047
1606.738	1.0	2116248	REC_WORD_VV	39.701	n/a	<>	-999	12	n/a	n/a	pyFR	1	TJ047
1607.738	1.0	2117248	REC_WORD_VV	40.701	n/a	<>	-999	12	n/a	n/a	pyFR	1	TJ047
1608.738	2.174	2118248	REC_WORD_VV	41.701	n/a	<>	-999	12	n/a	n/a	pyFR	1	TJ047
1610.912	1.0	2120422	REC_WORD_VV	43.875	n/a	<>	-999	12	n/a	n/a	pyFR	1	TJ047
1611.912	11.386	2121422	REC_WORD_VV	44.875	n/a	<>	-999	12	n/a	n/a	pyFR	1	TJ047
1623.298	0.016	2132807	TRIAL	n/a	n/a	n/a	-999	13	n/a	n/a	pyFR	1	TJ047
1623.314	2.721	2132823	ORIENT	n/a	n/a	n/a	-999	13	n/a	n/a	pyFR	1	TJ047
1626.035	2.572	2135544	WORD	n/a	wordpools/wordpool_EN.txt	CLOTH	1	13	n/a	n/a	pyFR	1	TJ047
1628.607	2.637	2138116	WORD	n/a	wordpools/wordpool_EN.txt	CLAY	2	13	n/a	n/a	pyFR	1	TJ047
1631.244	2.705	2140753	WORD	n/a	wordpools/wordpool_EN.txt	LAND	3	13	n/a	n/a	pyFR	1	TJ047
1633.949	2.522	2143458	WORD	n/a	wordpools/wordpool_EN.txt	TRAIN	4	13	n/a	n/a	pyFR	1	TJ047
1636.471	2.77	2145980	WORD	n/a	wordpools/wordpool_EN.txt	ELF	5	13	n/a	n/a	pyFR	1	TJ047
1639.241	2.671	2148750	WORD	n/a	wordpools/wordpool_EN.txt	SHIP	6	13	n/a	n/a	pyFR	1	TJ047
1641.912	2.706	2151421	WORD	n/a	wordpools/wordpool_EN.txt	FACE	7	13	n/a	n/a	pyFR	1	TJ047
1644.618	2.486	2154126	WORD	n/a	wordpools/wordpool_EN.txt	GUARD	8	13	n/a	n/a	pyFR	1	TJ047
1647.104	2.455	2156612	WORD	n/a	wordpools/wordpool_EN.txt	SEED	9	13	n/a	n/a	pyFR	1	TJ047
1649.559	2.52	2159067	WORD	n/a	wordpools/wordpool_EN.txt	CLOUD	10	13	n/a	n/a	pyFR	1	TJ047
1652.079	2.622	2161587	WORD	n/a	wordpools/wordpool_EN.txt	MULE	11	13	n/a	n/a	pyFR	1	TJ047
1654.701	2.47	2164209	WORD	n/a	wordpools/wordpool_EN.txt	ROAD	12	13	n/a	n/a	pyFR	1	TJ047
1657.171	2.488	2166679	WORD	n/a	wordpools/wordpool_EN.txt	STEAK	13	13	n/a	n/a	pyFR	1	TJ047
1659.659	2.705	2169167	WORD	n/a	wordpools/wordpool_EN.txt	CORN	14	13	n/a	n/a	pyFR	1	TJ047
1662.364	1.62	2171872	WORD	n/a	wordpools/wordpool_EN.txt	SINK	15	13	n/a	n/a	pyFR	1	TJ047
1663.984	1.1	2173492	START	n/a	n/a	n/a	n/a	13	[-999 -999 -999]	-999	pyFR	1	TJ047
1665.084	6.862	2174592	PROB	6.839	n/a	n/a	n/a	13	[6 2 7]	16	pyFR	1	TJ047
1671.946	5.158	2181453	PROB	5.121	n/a	n/a	n/a	13	[5 2 5]	12	pyFR	1	TJ047
1677.104	5.694	2186611	PROB	5.665	n/a	n/a	n/a	13	[8 9 8]	15	pyFR	1	TJ047
1682.798	11.484	2192305	PROB	11.484	n/a	n/a	n/a	13	[7 2 9]	18	pyFR	1	TJ047
1694.282	1.155	2203789	STOP	n/a	n/a	n/a	n/a	13	[-999 -999 -999]	-999	pyFR	1	TJ047
1695.437	1.635	2204944	REC_START	n/a	n/a	n/a	-999	13	n/a	n/a	pyFR	1	TJ047
1697.072	1.09	2206578	REC_WORD_VV	1.635	n/a	<>	-999	13	n/a	n/a	pyFR	1	TJ047
1698.162	1.0	2207668	REC_WORD	2.725	n/a	STAIN	-999	13	n/a	n/a	pyFR	1	TJ047
1699.162	0.903	2208668	REC_WORD_VV	3.725	n/a	<>	-999	13	n/a	n/a	pyFR	1	TJ047
1700.065	4.154	2209571	REC_WORD	4.628	n/a	SINK	-999	13	n/a	n/a	pyFR	1	TJ047
1704.219	0.477	2213725	REC_WORD	8.782	n/a	CLAY	-999	13	n/a	n/a	pyFR	1	TJ047
1704.696	0.577	2214202	REC_WORD	9.259	n/a	CAVE	-999	13	n/a	n/a	pyFR	1	TJ047
1705.273	5.209	2214779	REC_WORD	9.836	n/a	CLOTH	-999	13	n/a	n/a	pyFR	1	TJ047
1710.482	1.542	2219988	REC_WORD_VV	15.045	n/a	<>	-999	13	n/a	n/a	pyFR	1	TJ047
1712.024	4.901	2221530	REC_WORD	16.587	n/a	FACE	-999	13	n/a	n/a	pyFR	1	TJ047
1716.925	5.285	2226431	REC_WORD	21.488	n/a	STEAK	-999	13	n/a	n/a	pyFR	1	TJ047
1722.21	1.078	2231716	REC_WORD_VV	26.773	n/a	<>	-999	13	n/a	n/a	pyFR	1	TJ047
1723.288	2.256	2232793	REC_WORD	27.851	n/a	CARROT	-999	13	n/a	n/a	pyFR	1	TJ047
1725.544	1.0	2235049	REC_WORD_VV	30.107	n/a	<>	-999	13	n/a	n/a	pyFR	1	TJ047
1726.544	2.384	2236049	REC_WORD_VV	31.107	n/a	<>	-999	13	n/a	n/a	pyFR	1	TJ047
1728.928	1.0	2238433	REC_WORD_VV	33.491	n/a	<>	-999	13	n/a	n/a	pyFR	1	TJ047
1729.928	0.964	2239433	REC_WORD_VV	34.491	n/a	<>	-999	13	n/a	n/a	pyFR	1	TJ047
1730.892	7.127	2240397	REC_WORD	35.455	n/a	BROWSE	-999	13	n/a	n/a	pyFR	1	TJ047
1738.019	7.686	2247524	REC_WORD	42.582	n/a	DOG	-999	13	n/a	n/a	pyFR	1	TJ047
1745.705	0.016	2255210	TRIAL	n/a	n/a	n/a	-999	14	n/a	n/a	pyFR	1	TJ047
1745.721	2.821	2255226	ORIENT	n/a	n/a	n/a	-999	14	n/a	n/a	pyFR	1	TJ047
1748.542	2.487	2258047	WORD	n/a	wordpools/wordpool_EN.txt	SNOW	1	14	n/a	n/a	pyFR	1	TJ047
1751.029	2.505	2260533	WORD	n/a	wordpools/wordpool_EN.txt	PIE	2	14	n/a	n/a	pyFR	1	TJ047
1753.534	2.537	2263038	WORD	n/a	wordpools/wordpool_EN.txt	PIG	3	14	n/a	n/a	pyFR	1	TJ047
1756.071	2.455	2265575	WORD	n/a	wordpools/wordpool_EN.txt	PHONE	4	14	n/a	n/a	pyFR	1	TJ047
1758.526	2.754	2268030	WORD	n/a	wordpools/wordpool_EN.txt	THREAD	5	14	n/a	n/a	pyFR	1	TJ047
1761.28	2.455	2270784	WORD	n/a	wordpools/wordpool_EN.txt	FLOOR	6	14	n/a	n/a	pyFR	1	TJ047
1763.735	2.754	2273239	WORD	n/a	wordpools/wordpool_EN.txt	PLANE	7	14	n/a	n/a	pyFR	1	TJ047
1766.489	2.537	2275993	WORD	n/a	wordpools/wordpool_EN.txt	CRANE	8	14	n/a	n/a	pyFR	1	TJ047
1769.026	2.706	2278530	WORD	n/a	wordpools/wordpool_EN.txt	BOY	9	14	n/a	n/a	pyFR	1	TJ047
1771.732	2.57	2281236	WORD	n/a	wordpools/wordpool_EN.txt	CASH	10	14	n/a	n/a	pyFR	1	TJ047
1774.302	2.521	2283806	WORD	n/a	wordpools/wordpool_EN.txt	BED	11	14	n/a	n/a	pyFR	1	TJ047
1776.823	2.505	2286326	WORD	n/a	wordpools/wordpool_EN.txt	BOOT	12	14	n/a	n/a	pyFR	1	TJ047
1779.328	2.487	2288831	WORD	n/a	wordpools/wordpool_EN.txt	MOOSE	13	14	n/a	n/a	pyFR	1	TJ047
1781.815	2.822	2291318	WORD	n/a	wordpools/wordpool_EN.txt	SEAL	14	14	n/a	n/a	pyFR	1	TJ047
1784.637	1.619	2294140	WORD	n/a	wordpools/wordpool_EN.txt	FLEA	15	14	n/a	n/a	pyFR	1	TJ047
1786.256	1.102	2295759	START	n/a	n/a	n/a	n/a	14	[-999 -999 -999]	-999	pyFR	1	TJ047
1787.358	5.808	2296861	PROB	5.78	n/a	n/a	n/a	14	[1 6 1]	8	pyFR	1	TJ047
1793.166	4.476	2302669	PROB	4.453	n/a	n/a	n/a	14	[2 5 6]	13	pyFR	1	TJ047
1797.642	11.942	2307145	PROB	11.942	n/a	n/a	n/a	14	[6 9 8]	23	pyFR	1	TJ047
1809.584	1.08	2319086	STOP	n/a	n/a	n/a	n/a	14	[-999 -999 -999]	-999	pyFR	1	TJ047
1810.664	2.987	2320166	REC_START	n/a	n/a	n/a	-999	14	n/a	n/a	pyFR	1	TJ047
1813.651	1.102	2323153	REC_WORD	2.987	n/a	MOOSE	-999	14	n/a	n/a	pyFR	1	TJ047
1814.753	7.336	2324255	REC_WORD	4.089	n/a	BOOT	-999	14	n/a	n/a	pyFR	1	TJ047
1822.089	1.0	2331591	REC_WORD_VV	11.425	n/a	<>	-999	14	n/a	n/a	pyFR	1	TJ047
1823.089	0.723	2332591	REC_WORD_VV	12.425	n/a	<>	-999	14	n/a	n/a	pyFR	1	TJ047
1823.812	5.312	2333314	REC_WORD	13.148	n/a	BEDROOM	-999	14	n/a	n/a	pyFR	1	TJ047
1829.124	1.756	2338626	REC_WORD_VV	18.46	n/a	<>	-999	14	n/a	n/a	pyFR	1	TJ047
1830.88	10.061	2340381	REC_WORD_VV	20.216	n/a	<>	-999	14	n/a	n/a	pyFR	1	TJ047
1840.941	2.394	2350442	REC_WORD	30.277	n/a	SINK	-999	14	n/a	n/a	pyFR	1	TJ047
1843.335	7.049	2352836	REC_WORD	32.671	n/a	STREAM	-999	14	n/a	n/a	pyFR	1	TJ047
1850.384	12.701	2359885	REC_WORD_VV	39.72	n/a	<>	-999	14	n/a	n/a	pyFR	1	TJ047
1863.085	0.016	2372585	TRIAL	n/a	n/a	n/a	-999	15	n/a	n/a	pyFR	1	TJ047
1863.101	2.955	2372601	ORIENT	n/a	n/a	n/a	-999	15	n/a	n/a	pyFR	1	TJ047
1866.056	2.756	2375556	WORD	n/a	wordpools/wordpool_EN.txt	SEAT	1	15	n/a	n/a	pyFR	1	TJ047
1868.812	2.67	2378312	WORD	n/a	wordpools/wordpool_EN.txt	ARM	2	15	n/a	n/a	pyFR	1	TJ047
1871.482	2.738	2380982	WORD	n/a	wordpools/wordpool_EN.txt	COIN	3	15	n/a	n/a	pyFR	1	TJ047
1874.22	2.804	2383720	WORD	n/a	wordpools/wordpool_EN.txt	RAT	4	15	n/a	n/a	pyFR	1	TJ047
1877.024	2.756	2386524	WORD	n/a	wordpools/wordpool_EN.txt	OAR	5	15	n/a	n/a	pyFR	1	TJ047
1879.78	2.638	2389280	WORD	n/a	wordpools/wordpool_EN.txt	CANE	6	15	n/a	n/a	pyFR	1	TJ047
1882.418	2.536	2391918	WORD	n/a	wordpools/wordpool_EN.txt	COUCH	7	15	n/a	n/a	pyFR	1	TJ047
1884.954	2.689	2394453	WORD	n/a	wordpools/wordpool_EN.txt	HORN	8	15	n/a	n/a	pyFR	1	TJ047
1887.643	2.688	2397142	WORD	n/a	wordpools/wordpool_EN.txt	SMOKE	9	15	n/a	n/a	pyFR	1	TJ047
1890.331	2.438	2399830	WORD	n/a	wordpools/wordpool_EN.txt	FISH	10	15	n/a	n/a	pyFR	1	TJ047
1892.769	2.536	2402268	WORD	n/a	wordpools/wordpool_EN.txt	GOAT	11	15	n/a	n/a	pyFR	1	TJ047
1895.305	2.489	2404804	WORD	n/a	wordpools/wordpool_EN.txt	EEL	12	15	n/a	n/a	pyFR	1	TJ047
1897.794	2.704	2407293	WORD	n/a	wordpools/wordpool_EN.txt	TRAY	13	15	n/a	n/a	pyFR	1	TJ047
1900.498	2.453	2409997	WORD	n/a	wordpools/wordpool_EN.txt	CUP	14	15	n/a	n/a	pyFR	1	TJ047
1902.951	1.605	2412450	WORD	n/a	wordpools/wordpool_EN.txt	ZOO	15	15	n/a	n/a	pyFR	1	TJ047
1904.556	1.001	2414055	START	n/a	n/a	n/a	n/a	15	[-999 -999 -999]	-999	pyFR	1	TJ047
1905.557	11.118	2415056	PROB	11.081	n/a	n/a	n/a	15	[3 5 5]	13	pyFR	1	TJ047
1916.675	5.86	2426173	PROB	5.827	n/a	n/a	n/a	15	[3 9 7]	19	pyFR	1	TJ047
1922.535	3.75	2432033	PROB	3.75	n/a	n/a	n/a	15	[1 8 8]	17	pyFR	1	TJ047
1926.285	1.209	2435783	STOP	n/a	n/a	n/a	n/a	15	[-999 -999 -999]	-999	pyFR	1	TJ047
1927.494	1.265	2436992	REC_START	n/a	n/a	n/a	-999	15	n/a	n/a	pyFR	1	TJ047
1928.759	0.279	2438257	REC_WORD_VV	1.265	n/a	<>	-999	15	n/a	n/a	pyFR	1	TJ047
1929.038	1.737	2438536	REC_WORD_VV	1.544	n/a	<>	-999	15	n/a	n/a	pyFR	1	TJ047
1930.775	3.069	2440273	REC_WORD	3.281	n/a	EEL	-999	15	n/a	n/a	pyFR	1	TJ047
1933.844	1.487	2443342	REC_WORD_VV	6.35	n/a	<>	-999	15	n/a	n/a	pyFR	1	TJ047
1935.331	1.695	2444829	REC_WORD_VV	7.837	n/a	<>	-999	15	n/a	n/a	pyFR	1	TJ047
1937.026	2.987	2446524	REC_WORD_VV	9.532	n/a	<>	-999	15	n/a	n/a	pyFR	1	TJ047
1940.013	0.386	2449510	REC_WORD	12.519	n/a	TOY	-999	15	n/a	n/a	pyFR	1	TJ047
1940.399	2.746	2449896	REC_WORD	12.905	n/a	CAR	-999	15	n/a	n/a	pyFR	1	TJ047
1943.145	1.0	2452642	REC_WORD_VV	15.651	n/a	<>	-999	15	n/a	n/a	pyFR	1	TJ047
1944.145	6.624	2453642	REC_WORD_VV	16.651	n/a	<>	-999	15	n/a	n/a	pyFR	1	TJ047
1950.769	1.0	2460266	REC_WORD	23.275	n/a	MOUSE	-999	15	n/a	n/a	pyFR	1	TJ047
1951.769	2.9	2461266	REC_WORD_VV	24.275	n/a	<>	-999	15	n/a	n/a	pyFR	1	TJ047
1954.669	6.949	2464166	REC_WORD	27.175	n/a	TRUCK	-999	15	n/a	n/a	pyFR	1	TJ047
1961.618	0.755	2471115	REC_WORD	34.124	n/a	HOLE	-999	15	n/a	n/a	pyFR	1	TJ047
1962.373	15.422	2471870	REC_WORD	34.879	n/a	HOARD	-999	15	n/a	n/a	pyFR	1	TJ047
1977.795	0.017	2487291	TRIAL	n/a	n/a	n/a	-999	16	n/a	n/a	pyFR	1	TJ047
1977.812	2.771	2487308	ORIENT	n/a	n/a	n/a	-999	16	n/a	n/a	pyFR	1	TJ047
1980.583	2.739	2490079	WORD	n/a	wordpools/wordpool_EN.txt	BREAD	1	16	n/a	n/a	pyFR	1	TJ047
1983.322	2.503	2492818	WORD	n/a	wordpools/wordpool_EN.txt	BAG	2	16	n/a	n/a	pyFR	1	TJ047
1985.825	2.738	2495321	WORD	n/a	wordpools/wordpool_EN.txt	SHEEP	3	16	n/a	n/a	pyFR	1	TJ047
1988.563	2.587	2498059	WORD	n/a	wordpools/wordpool_EN.txt	DIME	4	16	n/a	n/a	pyFR	1	TJ047
1991.15	2.805	2500646	WORD	n/a	wordpools/wordpool_EN.txt	APE	5	16	n/a	n/a	pyFR	1	TJ047
1993.955	2.605	2503450	WORD	n/a	wordpools/wordpool_EN.txt	MAZE	6	16	n/a	n/a	pyFR	1	TJ047
1996.56	2.503	2506055	WORD	n/a	wordpools/wordpool_EN.txt	SLEEVE	7	16	n/a	n/a	pyFR	1	TJ047
1999.063	2.689	2508558	WORD	n/a	wordpools/wordpool_EN.txt	SHELL	8	16	n/a	n/a	pyFR	1	TJ047
2001.752	2.537	2511247	WORD	n/a	wordpools/wordpool_EN.txt	POOL	9	16	n/a	n/a	pyFR	1	TJ047
2004.289	2.754	2513784	WORD	n/a	wordpools/wordpool_EN.txt	TOOTH	10	16	n/a	n/a	pyFR	1	TJ047
2007.043	2.656	2516538	WORD	n/a	wordpools/wordpool_EN.txt	BEE	11	16	n/a	n/a	pyFR	1	TJ047
2009.699	2.771	2519194	WORD	n/a	wordpools/wordpool_EN.txt	CHALK	12	16	n/a	n/a	pyFR	1	TJ047
2012.47	2.47	2521965	WORD	n/a	wordpools/wordpool_EN.txt	CHIN	13	16	n/a	n/a	pyFR	1	TJ047
2014.94	2.689	2524435	WORD	n/a	wordpools/wordpool_EN.txt	PRINCE	14	16	n/a	n/a	pyFR	1	TJ047
2017.629	1.619	2527124	WORD	n/a	wordpools/wordpool_EN.txt	SKI	15	16	n/a	n/a	pyFR	1	TJ047
2019.248	1.169	2528742	START	n/a	n/a	n/a	n/a	16	[-999 -999 -999]	-999	pyFR	1	TJ047
2020.417	7.095	2529911	PROB	7.057	n/a	n/a	n/a	16	[9 5 2]	16	pyFR	1	TJ047
2027.512	5.192	2537006	PROB	5.162	n/a	n/a	n/a	16	[3 8 8]	17	pyFR	1	TJ047
2032.704	8.677	2542198	PROB	8.677	n/a	n/a	n/a	16	[7 5 9]	21	pyFR	1	TJ047
2041.381	1.141	2550875	STOP	n/a	n/a	n/a	n/a	16	[-999 -999 -999]	-999	pyFR	1	TJ047
2042.522	4.137	2552016	REC_START	n/a	n/a	n/a	-999	16	n/a	n/a	pyFR	1	TJ047
2046.659	2.245	2556152	REC_WORD	4.137	n/a	BEE	-999	16	n/a	n/a	pyFR	1	TJ047
2048.904	6.6	2558397	REC_WORD	6.382	n/a	SLEEVE	-999	16	n/a	n/a	pyFR	1	TJ047
2055.504	5.608	2564997	REC_WORD_VV	12.982	n/a	<>	-999	16	n/a	n/a	pyFR	1	TJ047
2061.112	9.883	2570605	REC_WORD_VV	18.59	n/a	<>	-999	16	n/a	n/a	pyFR	1	TJ047
2070.995	2.088	2580488	REC_WORD_VV	28.473	n/a	<>	-999	16	n/a	n/a	pyFR	1	TJ047
2073.083	1.0	2582575	REC_WORD	30.561	n/a	PRINCE	-999	16	n/a	n/a	pyFR	1	TJ047
2074.083	5.553	2583575	REC_WORD_VV	31.561	n/a	<>	-999	16	n/a	n/a	pyFR	1	TJ047
2079.636	5.717	2589128	REC_WORD	37.114	n/a	ROAD	-999	16	n/a	n/a	pyFR	1	TJ047
2085.353	1.0	2594845	REC_WORD_VV	42.831	n/a	<>	-999	16	n/a	n/a	pyFR	1	TJ047
2086.353	466.226	2595845	REC_WORD_VV	43.831	n/a	<>	-999	16	n/a	n/a	pyFR	1	TJ047
2552.579	0.098	3062054	SESS_END	n/a	n/a	n/a	-999	16	n/a	n/a	pyFR	1	TJ047
2552.677	0.0	3062152	E	n/a	n/a	n/a	-999	16	n/a	n/a	pyFR	1	TJ047
