onset	duration	sample	trial_type	response_time	stim_file	item_name	serialpos	list	test	answer	experiment	session	subject
0.0	0.001	161733	B	n/a	n/a	n/a	-999.0	-999	n/a	n/a	pyFR	1	TJ055
0.001	33.704	161734	SESS_START	n/a	n/a	n/a	-999.0	-999	n/a	n/a	pyFR	1	TJ055
33.705	0.034	195437	START	n/a	n/a	n/a	n/a	0	[-999 -999 -999]	-999.0	pyFR	1	TJ055
33.739	4.192	195471	PROB	4.138	n/a	n/a	n/a	0	[5 3 4]	12.0	pyFR	1	TJ055
37.931	3.959	199663	PROB	3.906	n/a	n/a	n/a	0	[8 3 2]	13.0	pyFR	1	TJ055
41.89	4.21	203622	PROB	4.181	n/a	n/a	n/a	0	[6 2 3]	11.0	pyFR	1	TJ055
46.1	3.624	207832	PROB	3.571	n/a	n/a	n/a	0	[8 2 8]	18.0	pyFR	1	TJ055
49.724	6.23	211455	PROB	6.187	n/a	n/a	n/a	0	[5 8 9]	22.0	pyFR	1	TJ055
55.954	2.823	217685	PROB	2.79	n/a	n/a	n/a	0	[2 2 5]	9.0	pyFR	1	TJ055
58.777	3.207	220508	PROB	3.175	n/a	n/a	n/a	0	[9 5 3]	17.0	pyFR	1	TJ055
61.984	3.521	223715	PROB	3.521	n/a	n/a	n/a	0	[9 2 4]	15.0	pyFR	1	TJ055
65.505	29.235	227236	STOP	n/a	n/a	n/a	n/a	0	[-999 -999 -999]	-999.0	pyFR	1	TJ055
94.74	0.016	256470	TRIAL	n/a	n/a	n/a	-999.0	1	n/a	n/a	pyFR	1	TJ055
94.756	1.6	256486	ORIENT	n/a	n/a	n/a	-999.0	1	n/a	n/a	pyFR	1	TJ055
97.479	1.6	259209	WORD	n/a	wordpools/wordpool_EN.txt	ARM	1.0	1	n/a	n/a	pyFR	1	TJ055
100.186	1.6	261915	WORD	n/a	wordpools/wordpool_EN.txt	DOCK	2.0	1	n/a	n/a	pyFR	1	TJ055
102.907	1.6	264636	WORD	n/a	wordpools/wordpool_EN.txt	DRUM	3.0	1	n/a	n/a	pyFR	1	TJ055
105.463	1.6	267192	WORD	n/a	wordpools/wordpool_EN.txt	WOOD	4.0	1	n/a	n/a	pyFR	1	TJ055
108.203	1.6	269932	WORD	n/a	wordpools/wordpool_EN.txt	WAVE	5.0	1	n/a	n/a	pyFR	1	TJ055
110.875	1.6	272604	WORD	n/a	wordpools/wordpool_EN.txt	RIB	6.0	1	n/a	n/a	pyFR	1	TJ055
113.614	1.6	275343	WORD	n/a	wordpools/wordpool_EN.txt	STOOL	7.0	1	n/a	n/a	pyFR	1	TJ055
116.437	1.6	278166	WORD	n/a	wordpools/wordpool_EN.txt	NOSE	8.0	1	n/a	n/a	pyFR	1	TJ055
119.244	1.6	280973	WORD	n/a	wordpools/wordpool_EN.txt	LAMP	9.0	1	n/a	n/a	pyFR	1	TJ055
121.699	1.6	283428	WORD	n/a	wordpools/wordpool_EN.txt	QUEEN	10.0	1	n/a	n/a	pyFR	1	TJ055
124.289	1.6	286018	WORD	n/a	wordpools/wordpool_EN.txt	NEST	11.0	1	n/a	n/a	pyFR	1	TJ055
126.81	1.6	288538	WORD	n/a	wordpools/wordpool_EN.txt	FOX	12.0	1	n/a	n/a	pyFR	1	TJ055
129.249	1.6	290977	WORD	n/a	wordpools/wordpool_EN.txt	SLEEVE	13.0	1	n/a	n/a	pyFR	1	TJ055
131.954	1.6	293682	WORD	n/a	wordpools/wordpool_EN.txt	EGG	14.0	1	n/a	n/a	pyFR	1	TJ055
134.426	1.6	296154	WORD	n/a	wordpools/wordpool_EN.txt	CALF	15.0	1	n/a	n/a	pyFR	1	TJ055
136.032	0.883	297760	START	n/a	n/a	n/a	n/a	1	[-999 -999 -999]	-999.0	pyFR	1	TJ055
136.915	4.978	298643	PROB	4.931	n/a	n/a	n/a	1	[5 5 9]	19.0	pyFR	1	TJ055
141.893	2.89	303621	PROB	2.857	n/a	n/a	n/a	1	[4 6 3]	13.0	pyFR	1	TJ055
144.783	2.822	306511	PROB	2.767	n/a	n/a	n/a	1	[6 4 5]	14.0	pyFR	1	TJ055
147.605	2.49	309333	PROB	2.459	n/a	n/a	n/a	1	[2 5 2]	9.0	pyFR	1	TJ055
150.095	4.81	311823	PROB	4.753	n/a	n/a	n/a	1	[9 2 8]	19.0	pyFR	1	TJ055
154.905	2.911	316632	PROB	2.911	n/a	n/a	n/a	1	[6 4 3]	13.0	pyFR	1	TJ055
157.816	1.233	319543	STOP	n/a	n/a	n/a	n/a	1	[-999 -999 -999]	-999.0	pyFR	1	TJ055
159.049	3.8	320776	REC_START	n/a	n/a	n/a	-999.0	1	n/a	n/a	pyFR	1	TJ055
162.849	1.0	324576	REC_WORD_VV	3.8	n/a	<>	-999.0	1	n/a	n/a	pyFR	1	TJ055
163.849	1.613	325576	REC_WORD_VV	4.8	n/a	<>	-999.0	1	n/a	n/a	pyFR	1	TJ055
165.462	0.377	327189	REC_WORD	6.413	n/a	WOOD	-999.0	1	n/a	n/a	pyFR	1	TJ055
165.839	0.458	327566	REC_WORD	6.79	n/a	ARM	-999.0	1	n/a	n/a	pyFR	1	TJ055
166.297	2.311	328024	REC_WORD	7.248	n/a	QUEEN	-999.0	1	n/a	n/a	pyFR	1	TJ055
168.608	11.846	330335	REC_WORD	9.559	n/a	FOX	-999.0	1	n/a	n/a	pyFR	1	TJ055
180.454	4.111	342180	REC_WORD	21.405	n/a	DOCK	-999.0	1	n/a	n/a	pyFR	1	TJ055
184.565	6.438	346291	REC_WORD	25.516	n/a	EGG	-999.0	1	n/a	n/a	pyFR	1	TJ055
191.003	1.0	352729	REC_WORD	31.954	n/a	FOX	-999.0	1	n/a	n/a	pyFR	1	TJ055
192.003	1.0	353729	REC_WORD_VV	32.954	n/a	<>	-999.0	1	n/a	n/a	pyFR	1	TJ055
193.003	1.0	354729	REC_WORD_VV	33.954	n/a	<>	-999.0	1	n/a	n/a	pyFR	1	TJ055
194.003	4.056	355729	REC_WORD_VV	34.954	n/a	<>	-999.0	1	n/a	n/a	pyFR	1	TJ055
198.059	12.053	359785	REC_WORD	39.01	n/a	SLEEVE	-999.0	1	n/a	n/a	pyFR	1	TJ055
210.112	0.015	371837	TRIAL	n/a	n/a	n/a	-999.0	2	n/a	n/a	pyFR	1	TJ055
210.127	1.6	371852	ORIENT	n/a	n/a	n/a	-999.0	2	n/a	n/a	pyFR	1	TJ055
213.134	1.6	374859	WORD	n/a	wordpools/wordpool_EN.txt	CROW	1.0	2	n/a	n/a	pyFR	1	TJ055
215.805	1.6	377530	WORD	n/a	wordpools/wordpool_EN.txt	YARD	2.0	2	n/a	n/a	pyFR	1	TJ055
218.428	1.6	380153	WORD	n/a	wordpools/wordpool_EN.txt	TOY	3.0	2	n/a	n/a	pyFR	1	TJ055
221.118	1.6	382843	WORD	n/a	wordpools/wordpool_EN.txt	WHEEL	4.0	2	n/a	n/a	pyFR	1	TJ055
223.89	1.6	385615	WORD	n/a	wordpools/wordpool_EN.txt	MAIL	5.0	2	n/a	n/a	pyFR	1	TJ055
226.479	1.6	388204	WORD	n/a	wordpools/wordpool_EN.txt	FLOOR	6.0	2	n/a	n/a	pyFR	1	TJ055
229.102	1.6	390826	WORD	n/a	wordpools/wordpool_EN.txt	DRESS	7.0	2	n/a	n/a	pyFR	1	TJ055
231.69	1.6	393414	WORD	n/a	wordpools/wordpool_EN.txt	CUBE	8.0	2	n/a	n/a	pyFR	1	TJ055
234.18	1.6	395904	WORD	n/a	wordpools/wordpool_EN.txt	STOVE	9.0	2	n/a	n/a	pyFR	1	TJ055
236.985	1.6	398709	WORD	n/a	wordpools/wordpool_EN.txt	TRAY	10.0	2	n/a	n/a	pyFR	1	TJ055
239.758	1.6	401482	WORD	n/a	wordpools/wordpool_EN.txt	SALT	11.0	2	n/a	n/a	pyFR	1	TJ055
242.397	1.6	404121	WORD	n/a	wordpools/wordpool_EN.txt	PEN	12.0	2	n/a	n/a	pyFR	1	TJ055
244.886	1.6	406610	WORD	n/a	wordpools/wordpool_EN.txt	HEN	13.0	2	n/a	n/a	pyFR	1	TJ055
247.692	1.6	409416	WORD	n/a	wordpools/wordpool_EN.txt	SEAL	14.0	2	n/a	n/a	pyFR	1	TJ055
250.332	1.6	412056	WORD	n/a	wordpools/wordpool_EN.txt	GOLD	15.0	2	n/a	n/a	pyFR	1	TJ055
251.953	0.967	413677	START	n/a	n/a	n/a	n/a	2	[-999 -999 -999]	-999.0	pyFR	1	TJ055
252.92	6.013	414644	PROB	5.977	n/a	n/a	n/a	2	[8 3 2]	13.0	pyFR	1	TJ055
258.933	4.727	420656	PROB	4.685	n/a	n/a	n/a	2	[6 1 5]	12.0	pyFR	1	TJ055
263.66	2.74	425383	PROB	2.703	n/a	n/a	n/a	2	[9 9 1]	19.0	pyFR	1	TJ055
266.4	7.035	428123	PROB	7.035	n/a	n/a	n/a	2	[5 1 6]	12.0	pyFR	1	TJ055
273.435	1.167	435158	STOP	n/a	n/a	n/a	n/a	2	[-999 -999 -999]	-999.0	pyFR	1	TJ055
274.602	2.836	436325	REC_START	n/a	n/a	n/a	-999.0	2	n/a	n/a	pyFR	1	TJ055
277.438	0.768	439161	REC_WORD	2.836	n/a	CROW	-999.0	2	n/a	n/a	pyFR	1	TJ055
278.206	1.297	439929	REC_WORD	3.604	n/a	YARD	-999.0	2	n/a	n/a	pyFR	1	TJ055
279.503	4.546	441226	REC_WORD	4.901	n/a	TOOL	-999.0	2	n/a	n/a	pyFR	1	TJ055
284.049	31.253	445771	REC_WORD	9.447	n/a	WHEEL	-999.0	2	n/a	n/a	pyFR	1	TJ055
315.302	1.0	477023	REC_WORD_VV	40.7	n/a	<>	-999.0	2	n/a	n/a	pyFR	1	TJ055
316.302	30.659	478023	REC_WORD_VV	41.7	n/a	<>	-999.0	2	n/a	n/a	pyFR	1	TJ055
346.961	0.016	508681	TRIAL	n/a	n/a	n/a	-999.0	3	n/a	n/a	pyFR	1	TJ055
346.977	1.6	508697	ORIENT	n/a	n/a	n/a	-999.0	3	n/a	n/a	pyFR	1	TJ055
349.933	1.6	511653	WORD	n/a	wordpools/wordpool_EN.txt	MILK	1.0	3	n/a	n/a	pyFR	1	TJ055
352.556	1.6	514276	WORD	n/a	wordpools/wordpool_EN.txt	GIRL	2.0	3	n/a	n/a	pyFR	1	TJ055
355.363	1.6	517083	WORD	n/a	wordpools/wordpool_EN.txt	BRUSH	3.0	3	n/a	n/a	pyFR	1	TJ055
357.968	1.6	519687	WORD	n/a	wordpools/wordpool_EN.txt	HOLE	4.0	3	n/a	n/a	pyFR	1	TJ055
360.74	1.6	522459	WORD	n/a	wordpools/wordpool_EN.txt	SOCK	5.0	3	n/a	n/a	pyFR	1	TJ055
363.28	1.6	524999	WORD	n/a	wordpools/wordpool_EN.txt	SHARK	6.0	3	n/a	n/a	pyFR	1	TJ055
365.852	1.6	527571	WORD	n/a	wordpools/wordpool_EN.txt	WEED	7.0	3	n/a	n/a	pyFR	1	TJ055
368.325	1.6	530044	WORD	n/a	wordpools/wordpool_EN.txt	VINE	8.0	3	n/a	n/a	pyFR	1	TJ055
371.097	1.6	532816	WORD	n/a	wordpools/wordpool_EN.txt	HOOK	9.0	3	n/a	n/a	pyFR	1	TJ055
373.585	1.6	535304	WORD	n/a	wordpools/wordpool_EN.txt	MOON	10.0	3	n/a	n/a	pyFR	1	TJ055
376.242	1.6	537961	WORD	n/a	wordpools/wordpool_EN.txt	PIN	11.0	3	n/a	n/a	pyFR	1	TJ055
378.947	1.6	540666	WORD	n/a	wordpools/wordpool_EN.txt	HORSE	12.0	3	n/a	n/a	pyFR	1	TJ055
381.453	1.6	543172	WORD	n/a	wordpools/wordpool_EN.txt	CORD	13.0	3	n/a	n/a	pyFR	1	TJ055
383.975	1.6	545693	WORD	n/a	wordpools/wordpool_EN.txt	DART	14.0	3	n/a	n/a	pyFR	1	TJ055
386.664	1.6	548382	WORD	n/a	wordpools/wordpool_EN.txt	CLIFF	15.0	3	n/a	n/a	pyFR	1	TJ055
388.286	0.885	550004	START	n/a	n/a	n/a	n/a	3	[-999 -999 -999]	-999.0	pyFR	1	TJ055
389.171	4.125	550889	PROB	4.077	n/a	n/a	n/a	3	[1 1 4]	6.0	pyFR	1	TJ055
393.296	20.091	555014	PROB	20.091	n/a	n/a	n/a	3	[3 5 9]	17.0	pyFR	1	TJ055
413.387	1.206	575104	STOP	n/a	n/a	n/a	n/a	3	[-999 -999 -999]	-999.0	pyFR	1	TJ055
414.593	1.083	576310	REC_START	n/a	n/a	n/a	-999.0	3	n/a	n/a	pyFR	1	TJ055
415.676	0.944	577393	REC_WORD	1.083	n/a	DART	-999.0	3	n/a	n/a	pyFR	1	TJ055
416.62	1.0	578337	REC_WORD_VV	2.027	n/a	<>	-999.0	3	n/a	n/a	pyFR	1	TJ055
417.62	1.0	579337	REC_WORD_VV	3.027	n/a	<>	-999.0	3	n/a	n/a	pyFR	1	TJ055
418.62	1.0	580337	REC_WORD_VV	4.027	n/a	<>	-999.0	3	n/a	n/a	pyFR	1	TJ055
419.62	2.825	581337	REC_WORD_VV	5.027	n/a	<>	-999.0	3	n/a	n/a	pyFR	1	TJ055
422.445	1.0	584162	REC_WORD_VV	7.852	n/a	<>	-999.0	3	n/a	n/a	pyFR	1	TJ055
423.445	1.0	585162	REC_WORD_VV	8.852	n/a	<>	-999.0	3	n/a	n/a	pyFR	1	TJ055
424.445	1.0	586162	REC_WORD_VV	9.852	n/a	<>	-999.0	3	n/a	n/a	pyFR	1	TJ055
425.445	1.0	587162	REC_WORD_VV	10.852	n/a	<>	-999.0	3	n/a	n/a	pyFR	1	TJ055
426.445	0.998	588162	REC_WORD_VV	11.852	n/a	<>	-999.0	3	n/a	n/a	pyFR	1	TJ055
427.443	1.461	589160	REC_WORD	12.85	n/a	DART	-999.0	3	n/a	n/a	pyFR	1	TJ055
428.904	3.749	590621	REC_WORD_VV	14.311	n/a	<>	-999.0	3	n/a	n/a	pyFR	1	TJ055
432.653	36.343	594370	REC_WORD	18.06	n/a	VINE	-999.0	3	n/a	n/a	pyFR	1	TJ055
468.996	0.017	630711	TRIAL	n/a	n/a	n/a	-999.0	4	n/a	n/a	pyFR	1	TJ055
469.013	1.6	630728	ORIENT	n/a	n/a	n/a	-999.0	4	n/a	n/a	pyFR	1	TJ055
472.019	1.6	633734	WORD	n/a	wordpools/wordpool_EN.txt	TEETH	1.0	4	n/a	n/a	pyFR	1	TJ055
474.59	1.6	636305	WORD	n/a	wordpools/wordpool_EN.txt	TRUCK	2.0	4	n/a	n/a	pyFR	1	TJ055
477.03	1.6	638745	WORD	n/a	wordpools/wordpool_EN.txt	CRANE	3.0	4	n/a	n/a	pyFR	1	TJ055
479.718	1.6	641433	WORD	n/a	wordpools/wordpool_EN.txt	SOAP	4.0	4	n/a	n/a	pyFR	1	TJ055
482.541	1.6	644256	WORD	n/a	wordpools/wordpool_EN.txt	FUDGE	5.0	4	n/a	n/a	pyFR	1	TJ055
485.182	1.6	646897	WORD	n/a	wordpools/wordpool_EN.txt	JUICE	6.0	4	n/a	n/a	pyFR	1	TJ055
487.92	1.6	649634	WORD	n/a	wordpools/wordpool_EN.txt	FROG	7.0	4	n/a	n/a	pyFR	1	TJ055
490.509	1.6	652223	WORD	n/a	wordpools/wordpool_EN.txt	SKY	8.0	4	n/a	n/a	pyFR	1	TJ055
493.216	1.6	654930	WORD	n/a	wordpools/wordpool_EN.txt	FAN	9.0	4	n/a	n/a	pyFR	1	TJ055
495.854	1.6	657568	WORD	n/a	wordpools/wordpool_EN.txt	FACE	10.0	4	n/a	n/a	pyFR	1	TJ055
498.344	1.6	660058	WORD	n/a	wordpools/wordpool_EN.txt	APE	11.0	4	n/a	n/a	pyFR	1	TJ055
500.815	1.6	662529	WORD	n/a	wordpools/wordpool_EN.txt	VAN	12.0	4	n/a	n/a	pyFR	1	TJ055
503.487	1.6	665201	WORD	n/a	wordpools/wordpool_EN.txt	PIPE	13.0	4	n/a	n/a	pyFR	1	TJ055
506.094	1.6	667808	WORD	n/a	wordpools/wordpool_EN.txt	SUN	14.0	4	n/a	n/a	pyFR	1	TJ055
508.582	1.6	670296	WORD	n/a	wordpools/wordpool_EN.txt	RAT	15.0	4	n/a	n/a	pyFR	1	TJ055
510.204	0.918	671918	START	n/a	n/a	n/a	n/a	4	[-999 -999 -999]	-999.0	pyFR	1	TJ055
511.122	3.992	672836	PROB	3.954	n/a	n/a	n/a	4	[8 1 2]	11.0	pyFR	1	TJ055
515.114	2.404	676827	PROB	2.377	n/a	n/a	n/a	4	[2 2 7]	11.0	pyFR	1	TJ055
517.518	3.626	679231	PROB	3.599	n/a	n/a	n/a	4	[2 1 1]	6.0	pyFR	1	TJ055
521.144	5.795	682857	PROB	5.765	n/a	n/a	n/a	4	[8 6 7]	21.0	pyFR	1	TJ055
526.939	3.275	688652	PROB	3.275	n/a	n/a	n/a	4	[9 9 1]	19.0	pyFR	1	TJ055
530.214	1.202	691927	STOP	n/a	n/a	n/a	n/a	4	[-999 -999 -999]	-999.0	pyFR	1	TJ055
531.416	3.911	693129	REC_START	n/a	n/a	n/a	-999.0	4	n/a	n/a	pyFR	1	TJ055
535.327	2.778	697040	REC_WORD	3.911	n/a	JUICE	-999.0	4	n/a	n/a	pyFR	1	TJ055
538.105	1.072	699817	REC_WORD	6.689	n/a	APE	-999.0	4	n/a	n/a	pyFR	1	TJ055
539.177	1.2	700889	REC_WORD	7.761	n/a	FOX	-999.0	4	n/a	n/a	pyFR	1	TJ055
540.377	2.494	702089	REC_WORD	8.961	n/a	CRANE	-999.0	4	n/a	n/a	pyFR	1	TJ055
542.871	0.652	704583	REC_WORD	11.455	n/a	TRUCK	-999.0	4	n/a	n/a	pyFR	1	TJ055
543.523	1.0	705235	REC_WORD	12.107	n/a	TRUNK	-999.0	4	n/a	n/a	pyFR	1	TJ055
544.523	4.692	706235	REC_WORD	13.107	n/a	CAR	-999.0	4	n/a	n/a	pyFR	1	TJ055
549.215	2.981	710927	REC_WORD_VV	17.799	n/a	<>	-999.0	4	n/a	n/a	pyFR	1	TJ055
552.196	3.497	713908	REC_WORD	20.78	n/a	JUICE	-999.0	4	n/a	n/a	pyFR	1	TJ055
555.693	2.802	717405	REC_WORD_VV	24.277	n/a	<>	-999.0	4	n/a	n/a	pyFR	1	TJ055
558.495	7.869	720207	REC_WORD	27.079	n/a	JAM	-999.0	4	n/a	n/a	pyFR	1	TJ055
566.364	1.0	728075	REC_WORD	34.948	n/a	CARGO	-999.0	4	n/a	n/a	pyFR	1	TJ055
567.364	1.0	729075	REC_WORD_VV	35.948	n/a	<>	-999.0	4	n/a	n/a	pyFR	1	TJ055
568.364	1.0	730075	REC_WORD_VV	36.948	n/a	<>	-999.0	4	n/a	n/a	pyFR	1	TJ055
569.364	4.363	731075	REC_WORD_VV	37.948	n/a	<>	-999.0	4	n/a	n/a	pyFR	1	TJ055
573.727	1.0	735438	REC_WORD	42.311	n/a	CRANE	-999.0	4	n/a	n/a	pyFR	1	TJ055
574.727	1.0	736438	REC_WORD_VV	43.311	n/a	<>	-999.0	4	n/a	n/a	pyFR	1	TJ055
575.727	11.379	737438	REC_WORD_VV	44.311	n/a	<>	-999.0	4	n/a	n/a	pyFR	1	TJ055
587.106	0.016	748817	TRIAL	n/a	n/a	n/a	-999.0	5	n/a	n/a	pyFR	1	TJ055
587.122	1.6	748833	ORIENT	n/a	n/a	n/a	-999.0	5	n/a	n/a	pyFR	1	TJ055
589.777	1.6	751487	WORD	n/a	wordpools/wordpool_EN.txt	PEARL	1.0	5	n/a	n/a	pyFR	1	TJ055
592.516	1.6	754226	WORD	n/a	wordpools/wordpool_EN.txt	SHIP	2.0	5	n/a	n/a	pyFR	1	TJ055
595.173	1.6	756883	WORD	n/a	wordpools/wordpool_EN.txt	CASH	3.0	5	n/a	n/a	pyFR	1	TJ055
597.811	1.6	759521	WORD	n/a	wordpools/wordpool_EN.txt	BELL	4.0	5	n/a	n/a	pyFR	1	TJ055
600.601	1.6	762311	WORD	n/a	wordpools/wordpool_EN.txt	KEY	5.0	5	n/a	n/a	pyFR	1	TJ055
603.341	1.6	765051	WORD	n/a	wordpools/wordpool_EN.txt	MOTH	6.0	5	n/a	n/a	pyFR	1	TJ055
606.03	1.6	767740	WORD	n/a	wordpools/wordpool_EN.txt	KING	7.0	5	n/a	n/a	pyFR	1	TJ055
608.635	1.6	770345	WORD	n/a	wordpools/wordpool_EN.txt	JUDGE	8.0	5	n/a	n/a	pyFR	1	TJ055
611.091	1.6	772801	WORD	n/a	wordpools/wordpool_EN.txt	DIME	9.0	5	n/a	n/a	pyFR	1	TJ055
613.746	1.6	775456	WORD	n/a	wordpools/wordpool_EN.txt	RAKE	10.0	5	n/a	n/a	pyFR	1	TJ055
616.502	1.6	778211	WORD	n/a	wordpools/wordpool_EN.txt	OAR	11.0	5	n/a	n/a	pyFR	1	TJ055
618.991	1.6	780700	WORD	n/a	wordpools/wordpool_EN.txt	ROOF	12.0	5	n/a	n/a	pyFR	1	TJ055
621.563	1.6	783272	WORD	n/a	wordpools/wordpool_EN.txt	FOAM	13.0	5	n/a	n/a	pyFR	1	TJ055
624.07	1.6	785779	WORD	n/a	wordpools/wordpool_EN.txt	STONE	14.0	5	n/a	n/a	pyFR	1	TJ055
626.758	1.6	788467	WORD	n/a	wordpools/wordpool_EN.txt	STRING	15.0	5	n/a	n/a	pyFR	1	TJ055
628.381	0.951	790090	START	n/a	n/a	n/a	n/a	5	[-999 -999 -999]	-999.0	pyFR	1	TJ055
629.332	4.793	791041	PROB	4.764	n/a	n/a	n/a	5	[1 7 4]	12.0	pyFR	1	TJ055
634.125	5.964	795834	PROB	5.931	n/a	n/a	n/a	5	[4 7 7]	18.0	pyFR	1	TJ055
640.089	3.573	801798	PROB	3.543	n/a	n/a	n/a	5	[7 1 8]	16.0	pyFR	1	TJ055
643.662	3.442	805370	PROB	3.411	n/a	n/a	n/a	5	[1 7 4]	12.0	pyFR	1	TJ055
647.104	2.09	808812	PROB	2.09	n/a	n/a	n/a	5	[4 1 6]	11.0	pyFR	1	TJ055
649.194	1.217	810902	STOP	n/a	n/a	n/a	n/a	5	[-999 -999 -999]	-999.0	pyFR	1	TJ055
650.411	3.505	812119	REC_START	n/a	n/a	n/a	-999.0	5	n/a	n/a	pyFR	1	TJ055
653.916	0.504	815624	REC_WORD	3.505	n/a	KING	-999.0	5	n/a	n/a	pyFR	1	TJ055
654.42	1.0	816128	REC_WORD	4.009	n/a	STONE	-999.0	5	n/a	n/a	pyFR	1	TJ055
655.42	4.13	817128	REC_WORD_VV	5.009	n/a	<>	-999.0	5	n/a	n/a	pyFR	1	TJ055
659.55	4.298	821258	REC_WORD	9.139	n/a	JUDGE	-999.0	5	n/a	n/a	pyFR	1	TJ055
663.848	1.301	825556	REC_WORD_VV	13.437	n/a	<>	-999.0	5	n/a	n/a	pyFR	1	TJ055
665.149	0.269	826857	REC_WORD	14.738	n/a	KING	-999.0	5	n/a	n/a	pyFR	1	TJ055
665.418	0.547	827126	REC_WORD	15.007	n/a	STONE	-999.0	5	n/a	n/a	pyFR	1	TJ055
665.965	1.0	827673	REC_WORD	15.554	n/a	JUDGE	-999.0	5	n/a	n/a	pyFR	1	TJ055
666.965	1.0	828672	REC_WORD_VV	16.554	n/a	<>	-999.0	5	n/a	n/a	pyFR	1	TJ055
667.965	9.14	829672	REC_WORD_VV	17.554	n/a	<>	-999.0	5	n/a	n/a	pyFR	1	TJ055
677.105	3.087	838812	REC_WORD	26.694	n/a	LION	-999.0	5	n/a	n/a	pyFR	1	TJ055
680.192	3.076	841899	REC_WORD_VV	29.781	n/a	<>	-999.0	5	n/a	n/a	pyFR	1	TJ055
683.268	1.0	844975	REC_WORD	32.857	n/a	KING	-999.0	5	n/a	n/a	pyFR	1	TJ055
684.268	1.0	845975	REC_WORD_VV	33.857	n/a	<>	-999.0	5	n/a	n/a	pyFR	1	TJ055
685.268	35.281	846975	REC_WORD_VV	34.857	n/a	<>	-999.0	5	n/a	n/a	pyFR	1	TJ055
720.549	0.015	882254	TRIAL	n/a	n/a	n/a	-999.0	6	n/a	n/a	pyFR	1	TJ055
720.564	1.6	882269	ORIENT	n/a	n/a	n/a	-999.0	6	n/a	n/a	pyFR	1	TJ055
723.554	1.6	885259	WORD	n/a	wordpools/wordpool_EN.txt	BLOOM	1.0	6	n/a	n/a	pyFR	1	TJ055
726.077	1.6	887782	WORD	n/a	wordpools/wordpool_EN.txt	CONE	2.0	6	n/a	n/a	pyFR	1	TJ055
728.599	1.6	890304	WORD	n/a	wordpools/wordpool_EN.txt	ROPE	3.0	6	n/a	n/a	pyFR	1	TJ055
731.222	1.6	892927	WORD	n/a	wordpools/wordpool_EN.txt	GUARD	4.0	6	n/a	n/a	pyFR	1	TJ055
733.877	1.6	895582	WORD	n/a	wordpools/wordpool_EN.txt	JEEP	5.0	6	n/a	n/a	pyFR	1	TJ055
736.383	1.6	898088	WORD	n/a	wordpools/wordpool_EN.txt	SLIME	6.0	6	n/a	n/a	pyFR	1	TJ055
738.855	1.6	900560	WORD	n/a	wordpools/wordpool_EN.txt	PEAR	7.0	6	n/a	n/a	pyFR	1	TJ055
741.627	1.6	903332	WORD	n/a	wordpools/wordpool_EN.txt	DESK	8.0	6	n/a	n/a	pyFR	1	TJ055
744.433	1.6	906137	WORD	n/a	wordpools/wordpool_EN.txt	BOMB	9.0	6	n/a	n/a	pyFR	1	TJ055
746.922	1.6	908626	WORD	n/a	wordpools/wordpool_EN.txt	FLEA	10.0	6	n/a	n/a	pyFR	1	TJ055
749.478	1.6	911182	WORD	n/a	wordpools/wordpool_EN.txt	SWORD	11.0	6	n/a	n/a	pyFR	1	TJ055
752.151	1.6	913855	WORD	n/a	wordpools/wordpool_EN.txt	CLOWN	12.0	6	n/a	n/a	pyFR	1	TJ055
754.689	1.6	916393	WORD	n/a	wordpools/wordpool_EN.txt	POND	13.0	6	n/a	n/a	pyFR	1	TJ055
757.162	1.6	918866	WORD	n/a	wordpools/wordpool_EN.txt	BEACH	14.0	6	n/a	n/a	pyFR	1	TJ055
759.633	1.6	921337	WORD	n/a	wordpools/wordpool_EN.txt	SHRIMP	15.0	6	n/a	n/a	pyFR	1	TJ055
761.239	0.984	922943	START	n/a	n/a	n/a	n/a	6	[-999 -999 -999]	-999.0	pyFR	1	TJ055
762.223	3.959	923927	PROB	3.934	n/a	n/a	n/a	6	[9 9 4]	22.0	pyFR	1	TJ055
766.182	6.932	927886	PROB	6.896	n/a	n/a	n/a	6	[9 4 3]	16.0	pyFR	1	TJ055
773.114	2.455	934817	PROB	2.42	n/a	n/a	n/a	6	[8 2 9]	19.0	pyFR	1	TJ055
775.569	3.19	937272	PROB	3.165	n/a	n/a	n/a	6	[6 8 4]	18.0	pyFR	1	TJ055
778.759	2.256	940462	PROB	2.223	n/a	n/a	n/a	6	[7 1 1]	9.0	pyFR	1	TJ055
781.015	8.401	942718	PROB	8.401	n/a	n/a	n/a	6	[2 5 1]	8.0	pyFR	1	TJ055
789.416	1.22	951119	STOP	n/a	n/a	n/a	n/a	6	[-999 -999 -999]	-999.0	pyFR	1	TJ055
790.636	0.0	952339	REC_START	n/a	n/a	n/a	-999.0	6	n/a	n/a	pyFR	1	TJ055
790.636	1.0	952339	REC_WORD_VV	0.0	n/a	<>	-999.0	6	n/a	n/a	pyFR	1	TJ055
791.636	1.781	953339	REC_WORD_VV	1.0	n/a	<>	-999.0	6	n/a	n/a	pyFR	1	TJ055
793.417	3.782	955120	REC_WORD	2.781	n/a	SLIME	-999.0	6	n/a	n/a	pyFR	1	TJ055
797.199	0.89	958901	REC_WORD_VV	6.563	n/a	<>	-999.0	6	n/a	n/a	pyFR	1	TJ055
798.089	3.547	959791	REC_WORD	7.453	n/a	SLEEP	-999.0	6	n/a	n/a	pyFR	1	TJ055
801.636	1.0	963338	REC_WORD	11.0	n/a	CAR	-999.0	6	n/a	n/a	pyFR	1	TJ055
802.636	3.223	964338	REC_WORD_VV	12.0	n/a	<>	-999.0	6	n/a	n/a	pyFR	1	TJ055
805.859	6.204	967561	REC_WORD	15.223	n/a	FLEA	-999.0	6	n/a	n/a	pyFR	1	TJ055
812.063	1.0	973765	REC_WORD_VV	21.427	n/a	<>	-999.0	6	n/a	n/a	pyFR	1	TJ055
813.063	9.605	974765	REC_WORD_VV	22.427	n/a	<>	-999.0	6	n/a	n/a	pyFR	1	TJ055
822.668	5.247	984369	REC_WORD	32.032	n/a	ANT	-999.0	6	n/a	n/a	pyFR	1	TJ055
827.915	1.0	989616	REC_WORD_VV	37.279	n/a	<>	-999.0	6	n/a	n/a	pyFR	1	TJ055
828.915	1.0	990616	REC_WORD_VV	38.279	n/a	<>	-999.0	6	n/a	n/a	pyFR	1	TJ055
829.915	1.0	991616	REC_WORD_VV	39.279	n/a	<>	-999.0	6	n/a	n/a	pyFR	1	TJ055
830.915	1.0	992616	REC_WORD_VV	40.279	n/a	<>	-999.0	6	n/a	n/a	pyFR	1	TJ055
831.915	86.152	993616	REC_WORD_VV	41.279	n/a	<>	-999.0	6	n/a	n/a	pyFR	1	TJ055
918.067	0.016	1079765	TRIAL	n/a	n/a	n/a	-999.0	7	n/a	n/a	pyFR	1	TJ055
918.083	1.6	1079781	ORIENT	n/a	n/a	n/a	-999.0	7	n/a	n/a	pyFR	1	TJ055
920.737	1.6	1082435	WORD	n/a	wordpools/wordpool_EN.txt	VASE	1.0	7	n/a	n/a	pyFR	1	TJ055
923.46	1.6	1085158	WORD	n/a	wordpools/wordpool_EN.txt	STAR	2.0	7	n/a	n/a	pyFR	1	TJ055
926.184	1.6	1087881	WORD	n/a	wordpools/wordpool_EN.txt	FOG	3.0	7	n/a	n/a	pyFR	1	TJ055
928.972	1.6	1090669	WORD	n/a	wordpools/wordpool_EN.txt	SKI	4.0	7	n/a	n/a	pyFR	1	TJ055
931.678	1.6	1093375	WORD	n/a	wordpools/wordpool_EN.txt	SAIL	5.0	7	n/a	n/a	pyFR	1	TJ055
934.235	1.6	1095932	WORD	n/a	wordpools/wordpool_EN.txt	PARK	6.0	7	n/a	n/a	pyFR	1	TJ055
936.923	1.6	1098620	WORD	n/a	wordpools/wordpool_EN.txt	MULE	7.0	7	n/a	n/a	pyFR	1	TJ055
939.579	1.6	1101276	WORD	n/a	wordpools/wordpool_EN.txt	CHIN	8.0	7	n/a	n/a	pyFR	1	TJ055
942.253	1.6	1103950	WORD	n/a	wordpools/wordpool_EN.txt	GOAT	9.0	7	n/a	n/a	pyFR	1	TJ055
944.707	1.6	1106404	WORD	n/a	wordpools/wordpool_EN.txt	BIRD	10.0	7	n/a	n/a	pyFR	1	TJ055
947.247	1.6	1108944	WORD	n/a	wordpools/wordpool_EN.txt	MOUSE	11.0	7	n/a	n/a	pyFR	1	TJ055
949.751	1.6	1111447	WORD	n/a	wordpools/wordpool_EN.txt	FENCE	12.0	7	n/a	n/a	pyFR	1	TJ055
952.241	1.6	1113937	WORD	n/a	wordpools/wordpool_EN.txt	TOE	13.0	7	n/a	n/a	pyFR	1	TJ055
954.846	1.6	1116542	WORD	n/a	wordpools/wordpool_EN.txt	ROSE	14.0	7	n/a	n/a	pyFR	1	TJ055
957.402	1.6	1119098	WORD	n/a	wordpools/wordpool_EN.txt	CLAY	15.0	7	n/a	n/a	pyFR	1	TJ055
959.024	1.068	1120720	START	n/a	n/a	n/a	n/a	7	[-999 -999 -999]	-999.0	pyFR	1	TJ055
960.092	14.198	1121788	PROB	14.164	n/a	n/a	n/a	7	[9 8 7]	24.0	pyFR	1	TJ055
974.29	2.571	1135986	PROB	2.541	n/a	n/a	n/a	7	[8 3 1]	12.0	pyFR	1	TJ055
976.861	3.283	1138556	PROB	3.283	n/a	n/a	n/a	7	[1 3 4]	8.0	pyFR	1	TJ055
980.144	1.178	1141839	STOP	n/a	n/a	n/a	n/a	7	[-999 -999 -999]	-999.0	pyFR	1	TJ055
981.322	2.493	1143017	REC_START	n/a	n/a	n/a	-999.0	7	n/a	n/a	pyFR	1	TJ055
983.815	0.493	1145510	REC_WORD	2.493	n/a	SKI	-999.0	7	n/a	n/a	pyFR	1	TJ055
984.308	0.669	1146003	REC_WORD	2.986	n/a	SAIL	-999.0	7	n/a	n/a	pyFR	1	TJ055
984.977	6.051	1146672	REC_WORD	3.655	n/a	BOAT	-999.0	7	n/a	n/a	pyFR	1	TJ055
991.028	19.07	1152723	REC_WORD	9.706	n/a	GROVE	-999.0	7	n/a	n/a	pyFR	1	TJ055
1010.098	27.314	1171792	REC_WORD	28.776	n/a	FLEA	-999.0	7	n/a	n/a	pyFR	1	TJ055
1037.412	0.015	1199105	TRIAL	n/a	n/a	n/a	-999.0	8	n/a	n/a	pyFR	1	TJ055
1037.427	1.6	1199120	ORIENT	n/a	n/a	n/a	-999.0	8	n/a	n/a	pyFR	1	TJ055
1040.151	1.6	1201844	WORD	n/a	wordpools/wordpool_EN.txt	SPRING	1.0	8	n/a	n/a	pyFR	1	TJ055
1042.639	1.6	1204332	WORD	n/a	wordpools/wordpool_EN.txt	SIGN	2.0	8	n/a	n/a	pyFR	1	TJ055
1045.279	1.6	1206972	WORD	n/a	wordpools/wordpool_EN.txt	PIE	3.0	8	n/a	n/a	pyFR	1	TJ055
1048.068	1.6	1209761	WORD	n/a	wordpools/wordpool_EN.txt	LEAF	4.0	8	n/a	n/a	pyFR	1	TJ055
1050.84	1.6	1212533	WORD	n/a	wordpools/wordpool_EN.txt	TAPE	5.0	8	n/a	n/a	pyFR	1	TJ055
1053.596	1.6	1215288	WORD	n/a	wordpools/wordpool_EN.txt	PET	6.0	8	n/a	n/a	pyFR	1	TJ055
1056.069	1.6	1217761	WORD	n/a	wordpools/wordpool_EN.txt	COUCH	7.0	8	n/a	n/a	pyFR	1	TJ055
1058.724	1.6	1220416	WORD	n/a	wordpools/wordpool_EN.txt	JAIL	8.0	8	n/a	n/a	pyFR	1	TJ055
1061.364	1.6	1223056	WORD	n/a	wordpools/wordpool_EN.txt	STORM	9.0	8	n/a	n/a	pyFR	1	TJ055
1064.154	1.6	1225846	WORD	n/a	wordpools/wordpool_EN.txt	FLAME	10.0	8	n/a	n/a	pyFR	1	TJ055
1066.742	1.6	1228434	WORD	n/a	wordpools/wordpool_EN.txt	SNOW	11.0	8	n/a	n/a	pyFR	1	TJ055
1069.382	1.6	1231074	WORD	n/a	wordpools/wordpool_EN.txt	PEA	12.0	8	n/a	n/a	pyFR	1	TJ055
1071.92	1.6	1233612	WORD	n/a	wordpools/wordpool_EN.txt	CLOTH	13.0	8	n/a	n/a	pyFR	1	TJ055
1074.743	1.6	1236435	WORD	n/a	wordpools/wordpool_EN.txt	SPONGE	14.0	8	n/a	n/a	pyFR	1	TJ055
1077.216	1.6	1238908	WORD	n/a	wordpools/wordpool_EN.txt	WEB	15.0	8	n/a	n/a	pyFR	1	TJ055
1078.836	1.152	1240527	START	n/a	n/a	n/a	n/a	8	[-999 -999 -999]	-999.0	pyFR	1	TJ055
1079.988	5.112	1241679	PROB	5.086	n/a	n/a	n/a	8	[5 2 5]	12.0	pyFR	1	TJ055
1085.1	2.705	1246791	PROB	2.677	n/a	n/a	n/a	8	[5 5 9]	19.0	pyFR	1	TJ055
1087.805	3.841	1249496	PROB	3.804	n/a	n/a	n/a	8	[9 2 6]	17.0	pyFR	1	TJ055
1091.646	2.757	1253337	PROB	2.733	n/a	n/a	n/a	8	[6 4 1]	11.0	pyFR	1	TJ055
1094.403	4.059	1256094	PROB	4.023	n/a	n/a	n/a	8	[6 3 2]	11.0	pyFR	1	TJ055
1098.462	3.187	1260153	PROB	3.187	n/a	n/a	n/a	8	[4 6 9]	19.0	pyFR	1	TJ055
1101.649	1.173	1263340	STOP	n/a	n/a	n/a	n/a	8	[-999 -999 -999]	-999.0	pyFR	1	TJ055
1102.822	2.389	1264513	REC_START	n/a	n/a	n/a	-999.0	8	n/a	n/a	pyFR	1	TJ055
1105.211	1.477	1266901	REC_WORD	2.389	n/a	SNOW	-999.0	8	n/a	n/a	pyFR	1	TJ055
1106.688	138.898	1268378	REC_WORD	3.866	n/a	SKI	-999.0	8	n/a	n/a	pyFR	1	TJ055
1245.586	0.016	1407271	TRIAL	n/a	n/a	n/a	-999.0	9	n/a	n/a	pyFR	1	TJ055
1245.602	1.6	1407287	ORIENT	n/a	n/a	n/a	-999.0	9	n/a	n/a	pyFR	1	TJ055
1248.575	1.6	1410260	WORD	n/a	wordpools/wordpool_EN.txt	THUMB	1.0	9	n/a	n/a	pyFR	1	TJ055
1251.115	1.6	1412800	WORD	n/a	wordpools/wordpool_EN.txt	SEED	2.0	9	n/a	n/a	pyFR	1	TJ055
1253.603	1.6	1415288	WORD	n/a	wordpools/wordpool_EN.txt	MAP	3.0	9	n/a	n/a	pyFR	1	TJ055
1256.409	1.6	1418094	WORD	n/a	wordpools/wordpool_EN.txt	CHALK	4.0	9	n/a	n/a	pyFR	1	TJ055
1258.931	1.6	1420615	WORD	n/a	wordpools/wordpool_EN.txt	GRASS	5.0	9	n/a	n/a	pyFR	1	TJ055
1261.57	1.6	1423254	WORD	n/a	wordpools/wordpool_EN.txt	HAT	6.0	9	n/a	n/a	pyFR	1	TJ055
1264.01	1.6	1425694	WORD	n/a	wordpools/wordpool_EN.txt	HOUSE	7.0	9	n/a	n/a	pyFR	1	TJ055
1266.464	1.6	1428148	WORD	n/a	wordpools/wordpool_EN.txt	HAWK	8.0	9	n/a	n/a	pyFR	1	TJ055
1269.021	1.6	1430705	WORD	n/a	wordpools/wordpool_EN.txt	CAPE	9.0	9	n/a	n/a	pyFR	1	TJ055
1271.692	1.6	1433376	WORD	n/a	wordpools/wordpool_EN.txt	BLUSH	10.0	9	n/a	n/a	pyFR	1	TJ055
1274.282	1.6	1435966	WORD	n/a	wordpools/wordpool_EN.txt	OWL	11.0	9	n/a	n/a	pyFR	1	TJ055
1277.038	1.6	1438722	WORD	n/a	wordpools/wordpool_EN.txt	FOOT	12.0	9	n/a	n/a	pyFR	1	TJ055
1279.493	1.6	1441177	WORD	n/a	wordpools/wordpool_EN.txt	JET	13.0	9	n/a	n/a	pyFR	1	TJ055
1281.948	1.6	1443632	WORD	n/a	wordpools/wordpool_EN.txt	BANK	14.0	9	n/a	n/a	pyFR	1	TJ055
1284.721	1.6	1446404	WORD	n/a	wordpools/wordpool_EN.txt	ZOO	15.0	9	n/a	n/a	pyFR	1	TJ055
1286.344	0.984	1448027	START	n/a	n/a	n/a	n/a	9	[-999 -999 -999]	-999.0	pyFR	1	TJ055
1287.328	10.957	1449011	PROB	10.933	n/a	n/a	n/a	9	[7 6 9]	22.0	pyFR	1	TJ055
1298.285	2.79	1459968	PROB	2.76	n/a	n/a	n/a	9	[9 9 1]	19.0	pyFR	1	TJ055
1301.075	4.375	1462758	PROB	4.345	n/a	n/a	n/a	9	[5 7 2]	14.0	pyFR	1	TJ055
1305.45	3.123	1467133	PROB	3.123	n/a	n/a	n/a	9	[2 9 2]	13.0	pyFR	1	TJ055
1308.573	1.071	1470256	STOP	n/a	n/a	n/a	n/a	9	[-999 -999 -999]	-999.0	pyFR	1	TJ055
1309.644	5.478	1471327	REC_START	n/a	n/a	n/a	-999.0	9	n/a	n/a	pyFR	1	TJ055
1315.122	16.502	1476804	REC_WORD_VV	5.478	n/a	<>	-999.0	9	n/a	n/a	pyFR	1	TJ055
1331.624	0.302	1493306	REC_WORD_VV	21.98	n/a	<>	-999.0	9	n/a	n/a	pyFR	1	TJ055
1331.926	1.122	1493608	REC_WORD_VV	22.282	n/a	<>	-999.0	9	n/a	n/a	pyFR	1	TJ055
1333.048	61.132	1494730	REC_WORD	23.404	n/a	THUMB	-999.0	9	n/a	n/a	pyFR	1	TJ055
1394.18	0.016	1555859	TRIAL	n/a	n/a	n/a	-999.0	10	n/a	n/a	pyFR	1	TJ055
1394.196	1.6	1555875	ORIENT	n/a	n/a	n/a	-999.0	10	n/a	n/a	pyFR	1	TJ055
1397.169	1.6	1558848	WORD	n/a	wordpools/wordpool_EN.txt	PALM	1.0	10	n/a	n/a	pyFR	1	TJ055
1399.974	1.6	1561653	WORD	n/a	wordpools/wordpool_EN.txt	TRASH	2.0	10	n/a	n/a	pyFR	1	TJ055
1402.68	1.6	1564359	WORD	n/a	wordpools/wordpool_EN.txt	BOARD	3.0	10	n/a	n/a	pyFR	1	TJ055
1405.187	1.6	1566866	WORD	n/a	wordpools/wordpool_EN.txt	FILM	4.0	10	n/a	n/a	pyFR	1	TJ055
1407.791	1.6	1569470	WORD	n/a	wordpools/wordpool_EN.txt	RAIN	5.0	10	n/a	n/a	pyFR	1	TJ055
1410.331	1.6	1572010	WORD	n/a	wordpools/wordpool_EN.txt	LIP	6.0	10	n/a	n/a	pyFR	1	TJ055
1413.154	1.6	1574833	WORD	n/a	wordpools/wordpool_EN.txt	BREAD	7.0	10	n/a	n/a	pyFR	1	TJ055
1415.876	1.6	1577554	WORD	n/a	wordpools/wordpool_EN.txt	CHEEK	8.0	10	n/a	n/a	pyFR	1	TJ055
1418.615	1.6	1580293	WORD	n/a	wordpools/wordpool_EN.txt	TAIL	9.0	10	n/a	n/a	pyFR	1	TJ055
1421.322	1.6	1583000	WORD	n/a	wordpools/wordpool_EN.txt	SEA	10.0	10	n/a	n/a	pyFR	1	TJ055
1424.145	1.6	1585823	WORD	n/a	wordpools/wordpool_EN.txt	POOL	11.0	10	n/a	n/a	pyFR	1	TJ055
1426.9	1.6	1588578	WORD	n/a	wordpools/wordpool_EN.txt	ICE	12.0	10	n/a	n/a	pyFR	1	TJ055
1429.422	1.6	1591100	WORD	n/a	wordpools/wordpool_EN.txt	SMOKE	13.0	10	n/a	n/a	pyFR	1	TJ055
1432.23	1.6	1593908	WORD	n/a	wordpools/wordpool_EN.txt	SKUNK	14.0	10	n/a	n/a	pyFR	1	TJ055
1435.036	1.6	1596714	WORD	n/a	wordpools/wordpool_EN.txt	WHALE	15.0	10	n/a	n/a	pyFR	1	TJ055
1436.656	1.201	1598334	START	n/a	n/a	n/a	n/a	10	[-999 -999 -999]	-999.0	pyFR	1	TJ055
1437.857	5.696	1599535	PROB	5.658	n/a	n/a	n/a	10	[3 9 3]	15.0	pyFR	1	TJ055
1443.553	4.495	1605230	PROB	4.46	n/a	n/a	n/a	10	[7 3 7]	17.0	pyFR	1	TJ055
1448.048	14.687	1609725	PROB	14.687	n/a	n/a	n/a	10	[2 9 5]	16.0	pyFR	1	TJ055
1462.735	1.064	1624412	STOP	n/a	n/a	n/a	n/a	10	[-999 -999 -999]	-999.0	pyFR	1	TJ055
1463.799	16.036	1625476	REC_START	n/a	n/a	n/a	-999.0	10	n/a	n/a	pyFR	1	TJ055
1479.835	1.0	1641511	REC_WORD_VV	16.036	n/a	<>	-999.0	10	n/a	n/a	pyFR	1	TJ055
1480.835	7.912	1642511	REC_WORD_VV	17.036	n/a	<>	-999.0	10	n/a	n/a	pyFR	1	TJ055
1488.747	432.715	1650423	REC_WORD	24.948	n/a	SNOW	-999.0	10	n/a	n/a	pyFR	1	TJ055
1921.462	0.015	2083121	TRIAL	n/a	n/a	n/a	-999.0	11	n/a	n/a	pyFR	1	TJ055
1921.477	1.6	2083136	ORIENT	n/a	n/a	n/a	-999.0	11	n/a	n/a	pyFR	1	TJ055
1924.251	1.6	2085910	WORD	n/a	wordpools/wordpool_EN.txt	CAKE	1.0	11	n/a	n/a	pyFR	1	TJ055
1926.705	1.6	2088364	WORD	n/a	wordpools/wordpool_EN.txt	CLOCK	2.0	11	n/a	n/a	pyFR	1	TJ055
1929.244	1.6	2090902	WORD	n/a	wordpools/wordpool_EN.txt	MAZE	3.0	11	n/a	n/a	pyFR	1	TJ055
1931.832	1.6	2093490	WORD	n/a	wordpools/wordpool_EN.txt	HAND	4.0	11	n/a	n/a	pyFR	1	TJ055
1934.42	1.6	2096078	WORD	n/a	wordpools/wordpool_EN.txt	COAT	5.0	11	n/a	n/a	pyFR	1	TJ055
1937.093	1.6	2098751	WORD	n/a	wordpools/wordpool_EN.txt	PURSE	6.0	11	n/a	n/a	pyFR	1	TJ055
1939.764	1.6	2101422	WORD	n/a	wordpools/wordpool_EN.txt	MOUTH	7.0	11	n/a	n/a	pyFR	1	TJ055
1942.554	1.6	2104212	WORD	n/a	wordpools/wordpool_EN.txt	SHIELD	8.0	11	n/a	n/a	pyFR	1	TJ055
1945.11	1.6	2106768	WORD	n/a	wordpools/wordpool_EN.txt	BEE	9.0	11	n/a	n/a	pyFR	1	TJ055
1947.747	1.6	2109405	WORD	n/a	wordpools/wordpool_EN.txt	BEAK	10.0	11	n/a	n/a	pyFR	1	TJ055
1950.337	1.6	2111995	WORD	n/a	wordpools/wordpool_EN.txt	PEACH	11.0	11	n/a	n/a	pyFR	1	TJ055
1952.908	1.6	2114566	WORD	n/a	wordpools/wordpool_EN.txt	MOOSE	12.0	11	n/a	n/a	pyFR	1	TJ055
1955.381	1.6	2117038	WORD	n/a	wordpools/wordpool_EN.txt	WAND	13.0	11	n/a	n/a	pyFR	1	TJ055
1958.119	1.6	2119776	WORD	n/a	wordpools/wordpool_EN.txt	BARN	14.0	11	n/a	n/a	pyFR	1	TJ055
1960.924	1.6	2122581	WORD	n/a	wordpools/wordpool_EN.txt	HEART	15.0	11	n/a	n/a	pyFR	1	TJ055
1962.546	1.167	2124203	START	n/a	n/a	n/a	n/a	11	[-999 -999 -999]	-999.0	pyFR	1	TJ055
1963.713	6.898	2125370	PROB	6.863	n/a	n/a	n/a	11	[5 5 5]	15.0	pyFR	1	TJ055
1970.611	3.189	2132268	PROB	3.157	n/a	n/a	n/a	11	[2 2 8]	12.0	pyFR	1	TJ055
1973.8	8.552	2135457	PROB	8.521	n/a	n/a	n/a	11	[9 8 7]	24.0	pyFR	1	TJ055
1982.352	2.937	2144008	PROB	2.937	n/a	n/a	n/a	11	[9 5 9]	23.0	pyFR	1	TJ055
1985.289	1.222	2146945	STOP	n/a	n/a	n/a	n/a	11	[-999 -999 -999]	-999.0	pyFR	1	TJ055
1986.511	2.151	2148167	REC_START	n/a	n/a	n/a	-999.0	11	n/a	n/a	pyFR	1	TJ055
1988.662	1.038	2150318	REC_WORD_VV	2.151	n/a	<>	-999.0	11	n/a	n/a	pyFR	1	TJ055
1989.7	1.732	2151356	REC_WORD	3.189	n/a	COAT	-999.0	11	n/a	n/a	pyFR	1	TJ055
1991.432	0.628	2153088	REC_WORD	4.921	n/a	PURSE	-999.0	11	n/a	n/a	pyFR	1	TJ055
1992.06	47.492	2153716	REC_WORD	5.549	n/a	BEE	-999.0	11	n/a	n/a	pyFR	1	TJ055
2039.552	0.016	2201206	TRIAL	n/a	n/a	n/a	-999.0	12	n/a	n/a	pyFR	1	TJ055
2039.568	1.6	2201222	ORIENT	n/a	n/a	n/a	-999.0	12	n/a	n/a	pyFR	1	TJ055
2042.375	1.6	2204029	WORD	n/a	wordpools/wordpool_EN.txt	CLOUD	1.0	12	n/a	n/a	pyFR	1	TJ055
2044.879	1.6	2206533	WORD	n/a	wordpools/wordpool_EN.txt	PRINCE	2.0	12	n/a	n/a	pyFR	1	TJ055
2047.601	1.6	2209255	WORD	n/a	wordpools/wordpool_EN.txt	WORM	3.0	12	n/a	n/a	pyFR	1	TJ055
2050.191	1.6	2211845	WORD	n/a	wordpools/wordpool_EN.txt	ROOT	4.0	12	n/a	n/a	pyFR	1	TJ055
2052.644	1.6	2214298	WORD	n/a	wordpools/wordpool_EN.txt	FORK	5.0	12	n/a	n/a	pyFR	1	TJ055
2055.184	1.6	2216838	WORD	n/a	wordpools/wordpool_EN.txt	CAGE	6.0	12	n/a	n/a	pyFR	1	TJ055
2057.671	1.6	2219324	WORD	n/a	wordpools/wordpool_EN.txt	HILL	7.0	12	n/a	n/a	pyFR	1	TJ055
2060.228	1.6	2221881	WORD	n/a	wordpools/wordpool_EN.txt	STRAW	8.0	12	n/a	n/a	pyFR	1	TJ055
2062.782	1.6	2224435	WORD	n/a	wordpools/wordpool_EN.txt	PLANE	9.0	12	n/a	n/a	pyFR	1	TJ055
2065.271	1.6	2226924	WORD	n/a	wordpools/wordpool_EN.txt	MAT	10.0	12	n/a	n/a	pyFR	1	TJ055
2067.909	1.6	2229562	WORD	n/a	wordpools/wordpool_EN.txt	CHIEF	11.0	12	n/a	n/a	pyFR	1	TJ055
2070.531	1.6	2232184	WORD	n/a	wordpools/wordpool_EN.txt	SNAIL	12.0	12	n/a	n/a	pyFR	1	TJ055
2073.204	1.6	2234857	WORD	n/a	wordpools/wordpool_EN.txt	TOOTH	13.0	12	n/a	n/a	pyFR	1	TJ055
2075.691	1.6	2237344	WORD	n/a	wordpools/wordpool_EN.txt	BOOK	14.0	12	n/a	n/a	pyFR	1	TJ055
2078.48	1.6	2240133	WORD	n/a	wordpools/wordpool_EN.txt	MOLE	15.0	12	n/a	n/a	pyFR	1	TJ055
2080.103	1.017	2241756	START	n/a	n/a	n/a	n/a	12	[-999 -999 -999]	-999.0	pyFR	1	TJ055
2081.12	4.192	2242773	PROB	4.153	n/a	n/a	n/a	12	[6 6 7]	19.0	pyFR	1	TJ055
2085.312	4.008	2246964	PROB	3.969	n/a	n/a	n/a	12	[4 2 7]	13.0	pyFR	1	TJ055
2089.32	4.441	2250972	PROB	4.416	n/a	n/a	n/a	12	[3 4 8]	17.0	pyFR	1	TJ055
2093.761	8.593	2255413	PROB	8.593	n/a	n/a	n/a	12	[6 8 3]	17.0	pyFR	1	TJ055
2102.354	1.061	2264006	STOP	n/a	n/a	n/a	n/a	12	[-999 -999 -999]	-999.0	pyFR	1	TJ055
2103.415	5.128	2265067	REC_START	n/a	n/a	n/a	-999.0	12	n/a	n/a	pyFR	1	TJ055
2108.543	3.248	2270194	REC_WORD	5.128	n/a	BOAT	-999.0	12	n/a	n/a	pyFR	1	TJ055
2111.791	11.917	2273442	REC_WORD	8.376	n/a	SNAIL	-999.0	12	n/a	n/a	pyFR	1	TJ055
2123.708	1.461	2285359	REC_WORD_VV	20.293	n/a	<>	-999.0	12	n/a	n/a	pyFR	1	TJ055
2125.169	0.624	2286820	REC_WORD	21.754	n/a	CHIEF	-999.0	12	n/a	n/a	pyFR	1	TJ055
2125.793	39.933	2287444	REC_WORD	22.378	n/a	CLOCK	-999.0	12	n/a	n/a	pyFR	1	TJ055
2165.726	0.016	2327375	TRIAL	n/a	n/a	n/a	-999.0	13	n/a	n/a	pyFR	1	TJ055
2165.742	1.6	2327391	ORIENT	n/a	n/a	n/a	-999.0	13	n/a	n/a	pyFR	1	TJ055
2168.764	1.6	2330413	WORD	n/a	wordpools/wordpool_EN.txt	SPOON	1.0	13	n/a	n/a	pyFR	1	TJ055
2171.371	1.6	2333020	WORD	n/a	wordpools/wordpool_EN.txt	DOLL	2.0	13	n/a	n/a	pyFR	1	TJ055
2173.958	1.6	2335607	WORD	n/a	wordpools/wordpool_EN.txt	CORN	3.0	13	n/a	n/a	pyFR	1	TJ055
2176.614	1.6	2338263	WORD	n/a	wordpools/wordpool_EN.txt	EEL	4.0	13	n/a	n/a	pyFR	1	TJ055
2179.353	1.6	2341002	WORD	n/a	wordpools/wordpool_EN.txt	SWAMP	5.0	13	n/a	n/a	pyFR	1	TJ055
2182.109	1.6	2343758	WORD	n/a	wordpools/wordpool_EN.txt	STAIR	6.0	13	n/a	n/a	pyFR	1	TJ055
2184.647	1.6	2346296	WORD	n/a	wordpools/wordpool_EN.txt	DAD	7.0	13	n/a	n/a	pyFR	1	TJ055
2187.452	1.6	2349100	WORD	n/a	wordpools/wordpool_EN.txt	LAWN	8.0	13	n/a	n/a	pyFR	1	TJ055
2189.874	1.6	2351522	WORD	n/a	wordpools/wordpool_EN.txt	CAVE	9.0	13	n/a	n/a	pyFR	1	TJ055
2192.696	1.6	2354344	WORD	n/a	wordpools/wordpool_EN.txt	DEER	10.0	13	n/a	n/a	pyFR	1	TJ055
2195.369	1.6	2357017	WORD	n/a	wordpools/wordpool_EN.txt	SPEAR	11.0	13	n/a	n/a	pyFR	1	TJ055
2198.025	1.6	2359673	WORD	n/a	wordpools/wordpool_EN.txt	COW	12.0	13	n/a	n/a	pyFR	1	TJ055
2200.529	1.6	2362177	WORD	n/a	wordpools/wordpool_EN.txt	FOOD	13.0	13	n/a	n/a	pyFR	1	TJ055
2203.336	1.6	2364984	WORD	n/a	wordpools/wordpool_EN.txt	BRIDGE	14.0	13	n/a	n/a	pyFR	1	TJ055
2205.873	1.6	2367521	WORD	n/a	wordpools/wordpool_EN.txt	SHELL	15.0	13	n/a	n/a	pyFR	1	TJ055
2207.495	0.834	2369143	START	n/a	n/a	n/a	n/a	13	[-999 -999 -999]	-999.0	pyFR	1	TJ055
2208.329	3.808	2369977	PROB	3.768	n/a	n/a	n/a	13	[9 1 9]	19.0	pyFR	1	TJ055
2212.137	9.301	2373784	PROB	9.272	n/a	n/a	n/a	13	[4 4 5]	13.0	pyFR	1	TJ055
2221.438	4.242	2383085	PROB	4.203	n/a	n/a	n/a	13	[4 5 7]	16.0	pyFR	1	TJ055
2225.68	3.0	2387327	PROB	3.0	n/a	n/a	n/a	13	[2 9 8]	19.0	pyFR	1	TJ055
2228.68	1.176	2390327	STOP	n/a	n/a	n/a	n/a	13	[-999 -999 -999]	-999.0	pyFR	1	TJ055
2229.856	3.275	2391503	REC_START	n/a	n/a	n/a	-999.0	13	n/a	n/a	pyFR	1	TJ055
2233.131	0.72	2394778	REC_WORD	3.275	n/a	SPOON	-999.0	13	n/a	n/a	pyFR	1	TJ055
2233.851	2.861	2395498	REC_WORD	3.995	n/a	DOLL	-999.0	13	n/a	n/a	pyFR	1	TJ055
2236.712	18.099	2398359	REC_WORD	6.856	n/a	DAD	-999.0	13	n/a	n/a	pyFR	1	TJ055
2254.811	478.905	2416457	REC_WORD_VV	24.955	n/a	<>	-999.0	13	n/a	n/a	pyFR	1	TJ055
2733.716	0.016	2895343	TRIAL	n/a	n/a	n/a	-999.0	14	n/a	n/a	pyFR	1	TJ055
2733.732	1.6	2895359	ORIENT	n/a	n/a	n/a	-999.0	14	n/a	n/a	pyFR	1	TJ055
2736.738	1.6	2898365	WORD	n/a	wordpools/wordpool_EN.txt	NAIL	1.0	14	n/a	n/a	pyFR	1	TJ055
2739.46	1.6	2901087	WORD	n/a	wordpools/wordpool_EN.txt	PLATE	2.0	14	n/a	n/a	pyFR	1	TJ055
2742.3	1.6	2903927	WORD	n/a	wordpools/wordpool_EN.txt	STEM	3.0	14	n/a	n/a	pyFR	1	TJ055
2745.089	1.6	2906716	WORD	n/a	wordpools/wordpool_EN.txt	SHEET	4.0	14	n/a	n/a	pyFR	1	TJ055
2747.744	1.6	2909371	WORD	n/a	wordpools/wordpool_EN.txt	STREET	5.0	14	n/a	n/a	pyFR	1	TJ055
2750.416	1.6	2912043	WORD	n/a	wordpools/wordpool_EN.txt	FORT	6.0	14	n/a	n/a	pyFR	1	TJ055
2753.106	1.6	2914732	WORD	n/a	wordpools/wordpool_EN.txt	BEAR	7.0	14	n/a	n/a	pyFR	1	TJ055
2755.626	1.6	2917252	WORD	n/a	wordpools/wordpool_EN.txt	DOG	8.0	14	n/a	n/a	pyFR	1	TJ055
2758.35	1.6	2919976	WORD	n/a	wordpools/wordpool_EN.txt	PIG	9.0	14	n/a	n/a	pyFR	1	TJ055
2760.871	1.6	2922497	WORD	n/a	wordpools/wordpool_EN.txt	ROCK	10.0	14	n/a	n/a	pyFR	1	TJ055
2763.593	1.6	2925219	WORD	n/a	wordpools/wordpool_EN.txt	TENT	11.0	14	n/a	n/a	pyFR	1	TJ055
2766.299	1.6	2927925	WORD	n/a	wordpools/wordpool_EN.txt	HOOF	12.0	14	n/a	n/a	pyFR	1	TJ055
2769.038	1.6	2930664	WORD	n/a	wordpools/wordpool_EN.txt	BATH	13.0	14	n/a	n/a	pyFR	1	TJ055
2771.576	1.6	2933202	WORD	n/a	wordpools/wordpool_EN.txt	TEA	14.0	14	n/a	n/a	pyFR	1	TJ055
2774.265	1.6	2935891	WORD	n/a	wordpools/wordpool_EN.txt	GLASS	15.0	14	n/a	n/a	pyFR	1	TJ055
2775.886	0.833	2937512	START	n/a	n/a	n/a	n/a	14	[-999 -999 -999]	-999.0	pyFR	1	TJ055
2776.719	6.981	2938345	PROB	6.955	n/a	n/a	n/a	14	[8 1 7]	16.0	pyFR	1	TJ055
2783.7	3.942	2945325	PROB	3.902	n/a	n/a	n/a	14	[2 7 2]	11.0	pyFR	1	TJ055
2787.642	4.308	2949267	PROB	4.28	n/a	n/a	n/a	14	[3 5 9]	17.0	pyFR	1	TJ055
2791.95	3.574	2953575	PROB	3.548	n/a	n/a	n/a	14	[3 5 7]	15.0	pyFR	1	TJ055
2795.524	2.43	2957149	PROB	2.43	n/a	n/a	n/a	14	[7 2 2]	11.0	pyFR	1	TJ055
2797.954	1.146	2959579	STOP	n/a	n/a	n/a	n/a	14	[-999 -999 -999]	-999.0	pyFR	1	TJ055
2799.1	2.09	2960725	REC_START	n/a	n/a	n/a	-999.0	14	n/a	n/a	pyFR	1	TJ055
2801.19	0.345	2962815	REC_WORD	2.09	n/a	BEAR	-999.0	14	n/a	n/a	pyFR	1	TJ055
2801.535	1.0	2963160	REC_WORD	2.435	n/a	DOG	-999.0	14	n/a	n/a	pyFR	1	TJ055
2802.535	4.29	2964160	REC_WORD_VV	3.435	n/a	<>	-999.0	14	n/a	n/a	pyFR	1	TJ055
2806.825	0.627	2968449	REC_WORD	7.725	n/a	BEAR	-999.0	14	n/a	n/a	pyFR	1	TJ055
2807.452	10.214	2969076	REC_WORD	8.352	n/a	DOG	-999.0	14	n/a	n/a	pyFR	1	TJ055
2817.666	1.909	2979290	REC_WORD	18.566	n/a	REEF	-999.0	14	n/a	n/a	pyFR	1	TJ055
2819.575	14.486	2981199	REC_WORD	20.475	n/a	DOCK	-999.0	14	n/a	n/a	pyFR	1	TJ055
2834.061	5.045	2995684	REC_WORD	34.961	n/a	HAND	-999.0	14	n/a	n/a	pyFR	1	TJ055
2839.106	7.457	3000729	REC_WORD	40.006	n/a	NAIL	-999.0	14	n/a	n/a	pyFR	1	TJ055
2846.563	0.015	3008186	TRIAL	n/a	n/a	n/a	-999.0	15	n/a	n/a	pyFR	1	TJ055
2846.578	1.6	3008201	ORIENT	n/a	n/a	n/a	-999.0	15	n/a	n/a	pyFR	1	TJ055
2849.534	1.6	3011157	WORD	n/a	wordpools/wordpool_EN.txt	TIE	1.0	15	n/a	n/a	pyFR	1	TJ055
2852.224	1.6	3013847	WORD	n/a	wordpools/wordpool_EN.txt	SOUP	2.0	15	n/a	n/a	pyFR	1	TJ055
2854.879	1.6	3016502	WORD	n/a	wordpools/wordpool_EN.txt	BEAN	3.0	15	n/a	n/a	pyFR	1	TJ055
2857.551	1.6	3019173	WORD	n/a	wordpools/wordpool_EN.txt	STICK	4.0	15	n/a	n/a	pyFR	1	TJ055
2860.124	1.6	3021746	WORD	n/a	wordpools/wordpool_EN.txt	FARM	5.0	15	n/a	n/a	pyFR	1	TJ055
2862.795	1.6	3024417	WORD	n/a	wordpools/wordpool_EN.txt	HORN	6.0	15	n/a	n/a	pyFR	1	TJ055
2865.55	1.6	3027172	WORD	n/a	wordpools/wordpool_EN.txt	AXE	7.0	15	n/a	n/a	pyFR	1	TJ055
2867.989	1.6	3029611	WORD	n/a	wordpools/wordpool_EN.txt	SNAKE	8.0	15	n/a	n/a	pyFR	1	TJ055
2870.494	1.6	3032116	WORD	n/a	wordpools/wordpool_EN.txt	PLANT	9.0	15	n/a	n/a	pyFR	1	TJ055
2873.184	1.6	3034806	WORD	n/a	wordpools/wordpool_EN.txt	TREE	10.0	15	n/a	n/a	pyFR	1	TJ055
2875.688	1.6	3037310	WORD	n/a	wordpools/wordpool_EN.txt	ROOM	11.0	15	n/a	n/a	pyFR	1	TJ055
2878.244	1.6	3039866	WORD	n/a	wordpools/wordpool_EN.txt	PANTS	12.0	15	n/a	n/a	pyFR	1	TJ055
2880.681	1.6	3042303	WORD	n/a	wordpools/wordpool_EN.txt	LAND	13.0	15	n/a	n/a	pyFR	1	TJ055
2883.371	1.6	3044992	WORD	n/a	wordpools/wordpool_EN.txt	SQUARE	14.0	15	n/a	n/a	pyFR	1	TJ055
2886.093	1.6	3047714	WORD	n/a	wordpools/wordpool_EN.txt	CART	15.0	15	n/a	n/a	pyFR	1	TJ055
2887.714	0.933	3049335	START	n/a	n/a	n/a	n/a	15	[-999 -999 -999]	-999.0	pyFR	1	TJ055
2888.647	6.498	3050268	PROB	6.445	n/a	n/a	n/a	15	[3 6 1]	10.0	pyFR	1	TJ055
2895.145	2.554	3056766	PROB	2.513	n/a	n/a	n/a	15	[8 2 9]	19.0	pyFR	1	TJ055
2897.699	6.864	3059320	PROB	6.839	n/a	n/a	n/a	15	[4 8 5]	17.0	pyFR	1	TJ055
2904.563	2.64	3066184	PROB	2.608	n/a	n/a	n/a	15	[4 1 6]	11.0	pyFR	1	TJ055
2907.203	3.56	3068823	PROB	3.56	n/a	n/a	n/a	15	[2 8 9]	19.0	pyFR	1	TJ055
2910.763	1.216	3072383	STOP	n/a	n/a	n/a	n/a	15	[-999 -999 -999]	-999.0	pyFR	1	TJ055
2911.979	0.103	3073599	REC_START	n/a	n/a	n/a	-999.0	15	n/a	n/a	pyFR	1	TJ055
2912.082	0.368	3073702	REC_WORD	0.103	n/a	PANTS	-999.0	15	n/a	n/a	pyFR	1	TJ055
2912.45	0.891	3074070	REC_WORD_VV	0.471	n/a	<>	-999.0	15	n/a	n/a	pyFR	1	TJ055
2913.341	0.65	3074961	REC_WORD	1.362	n/a	LAND	-999.0	15	n/a	n/a	pyFR	1	TJ055
2913.991	0.611	3075611	REC_WORD	2.012	n/a	SQUIRREL	-999.0	15	n/a	n/a	pyFR	1	TJ055
2914.602	2.474	3076222	REC_WORD	2.623	n/a	CART	-999.0	15	n/a	n/a	pyFR	1	TJ055
2917.076	1.42	3078696	REC_WORD	5.097	n/a	PANTS	-999.0	15	n/a	n/a	pyFR	1	TJ055
2918.496	0.721	3080116	REC_WORD	6.517	n/a	LAND	-999.0	15	n/a	n/a	pyFR	1	TJ055
2919.217	0.674	3080837	REC_WORD	7.238	n/a	SQUIRREL	-999.0	15	n/a	n/a	pyFR	1	TJ055
2919.891	6.385	3081511	REC_WORD	7.912	n/a	CART	-999.0	15	n/a	n/a	pyFR	1	TJ055
2926.276	1.0	3087896	REC_WORD_VV	14.297	n/a	<>	-999.0	15	n/a	n/a	pyFR	1	TJ055
2927.276	1.0	3088896	REC_WORD_VV	15.297	n/a	<>	-999.0	15	n/a	n/a	pyFR	1	TJ055
2928.276	1.0	3089896	REC_WORD_VV	16.297	n/a	<>	-999.0	15	n/a	n/a	pyFR	1	TJ055
2929.276	1.0	3090896	REC_WORD_VV	17.297	n/a	<>	-999.0	15	n/a	n/a	pyFR	1	TJ055
2930.276	1.0	3091896	REC_WORD_VV	18.297	n/a	<>	-999.0	15	n/a	n/a	pyFR	1	TJ055
2931.276	1.0	3092896	REC_WORD_VV	19.297	n/a	<>	-999.0	15	n/a	n/a	pyFR	1	TJ055
2932.276	1.0	3093895	REC_WORD_VV	20.297	n/a	<>	-999.0	15	n/a	n/a	pyFR	1	TJ055
2933.276	1.0	3094895	REC_WORD_VV	21.297	n/a	<>	-999.0	15	n/a	n/a	pyFR	1	TJ055
2934.276	1.0	3095895	REC_WORD_VV	22.297	n/a	<>	-999.0	15	n/a	n/a	pyFR	1	TJ055
2935.276	1.0	3096895	REC_WORD_VV	23.297	n/a	<>	-999.0	15	n/a	n/a	pyFR	1	TJ055
2936.276	1.0	3097895	REC_WORD_VV	24.297	n/a	<>	-999.0	15	n/a	n/a	pyFR	1	TJ055
2937.276	1.0	3098895	REC_WORD_VV	25.297	n/a	<>	-999.0	15	n/a	n/a	pyFR	1	TJ055
2938.276	1.0	3099895	REC_WORD_VV	26.297	n/a	<>	-999.0	15	n/a	n/a	pyFR	1	TJ055
2939.276	1.0	3100895	REC_WORD_VV	27.297	n/a	<>	-999.0	15	n/a	n/a	pyFR	1	TJ055
2940.276	1.0	3101895	REC_WORD_VV	28.297	n/a	<>	-999.0	15	n/a	n/a	pyFR	1	TJ055
2941.276	1.0	3102895	REC_WORD_VV	29.297	n/a	<>	-999.0	15	n/a	n/a	pyFR	1	TJ055
2942.276	14.268	3103895	REC_WORD_VV	30.297	n/a	<>	-999.0	15	n/a	n/a	pyFR	1	TJ055
2956.544	62.538	3118163	REC_WORD	44.565	n/a	SQUIRREL	-999.0	15	n/a	n/a	pyFR	1	TJ055
3019.082	0.015	3180698	TRIAL	n/a	n/a	n/a	-999.0	16	n/a	n/a	pyFR	1	TJ055
3019.097	1.6	3180713	ORIENT	n/a	n/a	n/a	-999.0	16	n/a	n/a	pyFR	1	TJ055
3022.002	1.6	3183618	WORD	n/a	wordpools/wordpool_EN.txt	NET	1.0	16	n/a	n/a	pyFR	1	TJ055
3024.558	1.6	3186174	WORD	n/a	wordpools/wordpool_EN.txt	BROOM	2.0	16	n/a	n/a	pyFR	1	TJ055
3027.164	1.6	3188780	WORD	n/a	wordpools/wordpool_EN.txt	LAKE	3.0	16	n/a	n/a	pyFR	1	TJ055
3029.768	1.6	3191384	WORD	n/a	wordpools/wordpool_EN.txt	INK	4.0	16	n/a	n/a	pyFR	1	TJ055
3032.574	1.6	3194190	WORD	n/a	wordpools/wordpool_EN.txt	JAR	5.0	16	n/a	n/a	pyFR	1	TJ055
3035.297	1.6	3196912	WORD	n/a	wordpools/wordpool_EN.txt	SCHOOL	6.0	16	n/a	n/a	pyFR	1	TJ055
3037.801	1.6	3199416	WORD	n/a	wordpools/wordpool_EN.txt	COIN	7.0	16	n/a	n/a	pyFR	1	TJ055
3040.624	1.6	3202239	WORD	n/a	wordpools/wordpool_EN.txt	SHIRT	8.0	16	n/a	n/a	pyFR	1	TJ055
3043.429	1.6	3205044	WORD	n/a	wordpools/wordpool_EN.txt	SHEEP	9.0	16	n/a	n/a	pyFR	1	TJ055
3046.236	1.6	3207851	WORD	n/a	wordpools/wordpool_EN.txt	SUIT	10.0	16	n/a	n/a	pyFR	1	TJ055
3048.974	1.6	3210589	WORD	n/a	wordpools/wordpool_EN.txt	WOLF	11.0	16	n/a	n/a	pyFR	1	TJ055
3051.496	1.6	3213111	WORD	n/a	wordpools/wordpool_EN.txt	SHOE	12.0	16	n/a	n/a	pyFR	1	TJ055
3054.219	1.6	3215834	WORD	n/a	wordpools/wordpool_EN.txt	DUCK	13.0	16	n/a	n/a	pyFR	1	TJ055
3057.025	1.6	3218640	WORD	n/a	wordpools/wordpool_EN.txt	THREAD	14.0	16	n/a	n/a	pyFR	1	TJ055
3059.646	1.6	3221261	WORD	n/a	wordpools/wordpool_EN.txt	CARD	15.0	16	n/a	n/a	pyFR	1	TJ055
3061.268	0.984	3222882	START	n/a	n/a	n/a	n/a	16	[-999 -999 -999]	-999.0	pyFR	1	TJ055
3062.252	4.158	3223866	PROB	4.12	n/a	n/a	n/a	16	[7 2 7]	16.0	pyFR	1	TJ055
3066.41	4.861	3228024	PROB	4.826	n/a	n/a	n/a	16	[8 5 3]	16.0	pyFR	1	TJ055
3071.271	5.912	3232885	PROB	5.885	n/a	n/a	n/a	16	[6 7 1]	14.0	pyFR	1	TJ055
3077.183	4.724	3238797	PROB	4.724	n/a	n/a	n/a	16	[3 9 5]	17.0	pyFR	1	TJ055
3081.907	1.054	3243521	STOP	n/a	n/a	n/a	n/a	16	[-999 -999 -999]	-999.0	pyFR	1	TJ055
3082.961	4.146	3244575	REC_START	n/a	n/a	n/a	-999.0	16	n/a	n/a	pyFR	1	TJ055
3087.107	0.606	3248720	REC_WORD	4.146	n/a	LAMP	-999.0	16	n/a	n/a	pyFR	1	TJ055
3087.713	1.53	3249326	REC_WORD	4.752	n/a	SQUIRREL	-999.0	16	n/a	n/a	pyFR	1	TJ055
3089.243	1.0	3250856	REC_WORD_VV	6.282	n/a	<>	-999.0	16	n/a	n/a	pyFR	1	TJ055
3090.243	4.076	3251856	REC_WORD_VV	7.282	n/a	<>	-999.0	16	n/a	n/a	pyFR	1	TJ055
3094.319	19.701	3255932	REC_WORD	11.358	n/a	SHIRT	-999.0	16	n/a	n/a	pyFR	1	TJ055
3114.02	1.0	3275632	REC_WORD_VV	31.059	n/a	<>	-999.0	16	n/a	n/a	pyFR	1	TJ055
3115.02	1.0	3276632	REC_WORD_VV	32.059	n/a	<>	-999.0	16	n/a	n/a	pyFR	1	TJ055
3116.02	763.849	3277632	REC_WORD_VV	33.059	n/a	<>	-999.0	16	n/a	n/a	pyFR	1	TJ055
3879.869	0.154	4041452	SESS_END	n/a	n/a	n/a	-999.0	16	n/a	n/a	pyFR	1	TJ055
3880.023	0.0	4041606	E	n/a	n/a	n/a	-999.0	16	n/a	n/a	pyFR	1	TJ055
