onset	duration	sample	trial_type	response_time	stim_file	item_name	serialpos	list	test	answer	experiment	session	subject
0.0	0.001	243063	B	n/a	n/a	n/a	-999	-999	n/a	n/a	pyFR	2	TJ013
0.001	136.699	243063	SESS_START	n/a	n/a	n/a	-999	-999	n/a	n/a	pyFR	2	TJ013
136.7	0.025	297741	START	n/a	n/a	n/a	n/a	0	[-999 -999 -999]	-999	pyFR	2	TJ013
136.725	4.491	297751	PROB	n/a	n/a	n/a	n/a	0	[6 1 6]	13	pyFR	2	TJ013
141.216	10.285	299547	PROB	n/a	n/a	n/a	n/a	0	[2 3 5]	10	pyFR	2	TJ013
151.501	2.605	303661	PROB	n/a	n/a	n/a	n/a	0	[4 4 5]	13	pyFR	2	TJ013
154.106	2.788	304703	PROB	n/a	n/a	n/a	n/a	0	[8 2 4]	14	pyFR	2	TJ013
156.894	3.49	305818	PROB	n/a	n/a	n/a	n/a	0	[3 9 2]	14	pyFR	2	TJ013
160.384	2.972	307214	PROB	n/a	n/a	n/a	n/a	0	[1 2 7]	10	pyFR	2	TJ013
163.356	3.073	308403	PROB	n/a	n/a	n/a	n/a	0	[8 6 8]	22	pyFR	2	TJ013
166.429	2.969	309632	PROB	n/a	n/a	n/a	n/a	0	[3 6 6]	15	pyFR	2	TJ013
169.398	35.653	310820	STOP	n/a	n/a	n/a	n/a	0	[-999 -999 -999]	-999	pyFR	2	TJ013
205.051	0.015	325080	TRIAL	n/a	n/a	n/a	-999	-999	n/a	n/a	pyFR	2	TJ013
205.066	2.756	325086	ORIENT	n/a	n/a	n/a	-999	-999	n/a	n/a	pyFR	2	TJ013
207.822	2.704	326189	WORD	n/a	wordpools/wordpool_EN.txt	DART	1	1	n/a	n/a	pyFR	2	TJ013
210.526	2.672	327270	WORD	n/a	wordpools/wordpool_EN.txt	KEY	2	1	n/a	n/a	pyFR	2	TJ013
213.198	2.621	328339	WORD	n/a	wordpools/wordpool_EN.txt	NOSE	3	1	n/a	n/a	pyFR	2	TJ013
215.819	2.522	329387	WORD	n/a	wordpools/wordpool_EN.txt	STICK	4	1	n/a	n/a	pyFR	2	TJ013
218.341	2.755	330396	WORD	n/a	wordpools/wordpool_EN.txt	BEAR	5	1	n/a	n/a	pyFR	2	TJ013
221.096	2.505	331498	WORD	n/a	wordpools/wordpool_EN.txt	PEARL	6	1	n/a	n/a	pyFR	2	TJ013
223.601	2.738	332500	WORD	n/a	wordpools/wordpool_EN.txt	PANTS	7	1	n/a	n/a	pyFR	2	TJ013
226.339	2.554	333595	WORD	n/a	wordpools/wordpool_EN.txt	SEED	8	1	n/a	n/a	pyFR	2	TJ013
228.893	2.655	334617	WORD	n/a	wordpools/wordpool_EN.txt	DAD	9	1	n/a	n/a	pyFR	2	TJ013
231.548	2.522	335679	WORD	n/a	wordpools/wordpool_EN.txt	STEAK	10	1	n/a	n/a	pyFR	2	TJ013
234.07	2.605	336687	WORD	n/a	wordpools/wordpool_EN.txt	CORN	11	1	n/a	n/a	pyFR	2	TJ013
236.675	2.755	337729	WORD	n/a	wordpools/wordpool_EN.txt	CLOTH	12	1	n/a	n/a	pyFR	2	TJ013
239.43	2.454	338831	WORD	n/a	wordpools/wordpool_EN.txt	SKY	13	1	n/a	n/a	pyFR	2	TJ013
241.884	2.538	339813	WORD	n/a	wordpools/wordpool_EN.txt	OAK	14	1	n/a	n/a	pyFR	2	TJ013
244.422	1.621	340828	WORD	n/a	wordpools/wordpool_EN.txt	MOON	15	1	n/a	n/a	pyFR	2	TJ013
246.043	1.117	341476	START	n/a	n/a	n/a	n/a	1	[-999 -999 -999]	-999	pyFR	2	TJ013
247.16	3.106	341923	PROB	n/a	n/a	n/a	n/a	1	[4 1 2]	7	pyFR	2	TJ013
250.266	1.87	343166	PROB	n/a	n/a	n/a	n/a	1	[9 1 1]	11	pyFR	2	TJ013
252.136	2.338	343913	PROB	n/a	n/a	n/a	n/a	1	[9 1 5]	15	pyFR	2	TJ013
254.474	2.404	344849	PROB	n/a	n/a	n/a	n/a	1	[2 3 3]	8	pyFR	2	TJ013
256.878	2.872	345810	PROB	n/a	n/a	n/a	n/a	1	[9 7 7]	23	pyFR	2	TJ013
259.75	2.672	346959	PROB	n/a	n/a	n/a	n/a	1	[9 4 6]	19	pyFR	2	TJ013
262.422	4.52	348028	PROB	n/a	n/a	n/a	n/a	1	[8 9 8]	25	pyFR	2	TJ013
266.942	1.19	349836	STOP	n/a	n/a	n/a	n/a	1	[-999 -999 -999]	-999	pyFR	2	TJ013
268.132	4.245	350312	REC_START	n/a	n/a	n/a	-999	-999	n/a	n/a	pyFR	2	TJ013
272.377	0.597	352010	REC_WORD	0.597	n/a	PEARL	-999	1	n/a	n/a	pyFR	2	TJ013
272.974	1.515	352248	REC_WORD	1.515	n/a	OAK	-999	1	n/a	n/a	pyFR	2	TJ013
274.489	4.256	352854	REC_WORD_VV	4.256	n/a	VV	-999	1	n/a	n/a	pyFR	2	TJ013
278.745	3.421	354557	REC_WORD	3.421	n/a	DART	-999	1	n/a	n/a	pyFR	2	TJ013
282.166	0.383	355925	REC_WORD	0.383	n/a	PEARL	-999	1	n/a	n/a	pyFR	2	TJ013
282.549	1.61	356078	REC_WORD	1.61	n/a	OAK	-999	1	n/a	n/a	pyFR	2	TJ013
284.159	5.813	356722	REC_WORD	5.813	n/a	DART	-999	1	n/a	n/a	pyFR	2	TJ013
289.972	9.286	359047	REC_WORD_VV	9.286	n/a	VV	-999	1	n/a	n/a	pyFR	2	TJ013
299.258	2.535	362762	REC_WORD	2.535	n/a	BEAR	-999	1	n/a	n/a	pyFR	2	TJ013
301.793	3.714	363776	REC_WORD_VV	3.714	n/a	VV	-999	1	n/a	n/a	pyFR	2	TJ013
305.507	1.355	365261	REC_WORD	1.355	n/a	PEARL	-999	1	n/a	n/a	pyFR	2	TJ013
306.862	5.406	365803	REC_WORD_VV	5.406	n/a	VV	-999	1	n/a	n/a	pyFR	2	TJ013
312.268	8.645	367965	REC_WORD_VV	8.645	n/a	VV	-999	1	n/a	n/a	pyFR	2	TJ013
320.913	0.016	371423	TRIAL	n/a	n/a	n/a	-999	-999	n/a	n/a	pyFR	2	TJ013
320.929	2.856	371430	ORIENT	n/a	n/a	n/a	-999	-999	n/a	n/a	pyFR	2	TJ013
323.785	2.755	372572	WORD	n/a	wordpools/wordpool_EN.txt	FLAG	1	2	n/a	n/a	pyFR	2	TJ013
326.54	2.554	373674	WORD	n/a	wordpools/wordpool_EN.txt	FRUIT	2	2	n/a	n/a	pyFR	2	TJ013
329.094	2.655	374696	WORD	n/a	wordpools/wordpool_EN.txt	BOOK	3	2	n/a	n/a	pyFR	2	TJ013
331.749	2.572	375758	WORD	n/a	wordpools/wordpool_EN.txt	BENCH	4	2	n/a	n/a	pyFR	2	TJ013
334.321	2.554	376786	WORD	n/a	wordpools/wordpool_EN.txt	SNAKE	5	2	n/a	n/a	pyFR	2	TJ013
336.875	2.455	377808	WORD	n/a	wordpools/wordpool_EN.txt	NEST	6	2	n/a	n/a	pyFR	2	TJ013
339.33	2.454	378790	WORD	n/a	wordpools/wordpool_EN.txt	CROWN	7	2	n/a	n/a	pyFR	2	TJ013
341.784	2.421	379771	WORD	n/a	wordpools/wordpool_EN.txt	SEAT	8	2	n/a	n/a	pyFR	2	TJ013
344.205	2.555	380740	WORD	n/a	wordpools/wordpool_EN.txt	HOLE	9	2	n/a	n/a	pyFR	2	TJ013
346.76	2.455	381762	WORD	n/a	wordpools/wordpool_EN.txt	TOOL	10	2	n/a	n/a	pyFR	2	TJ013
349.215	2.505	382744	WORD	n/a	wordpools/wordpool_EN.txt	BOARD	11	2	n/a	n/a	pyFR	2	TJ013
351.72	2.554	383746	WORD	n/a	wordpools/wordpool_EN.txt	WAVE	12	2	n/a	n/a	pyFR	2	TJ013
354.274	2.571	384767	WORD	n/a	wordpools/wordpool_EN.txt	FLAME	13	2	n/a	n/a	pyFR	2	TJ013
356.845	2.572	385796	WORD	n/a	wordpools/wordpool_EN.txt	MOUSE	14	2	n/a	n/a	pyFR	2	TJ013
359.417	1.621	386824	WORD	n/a	wordpools/wordpool_EN.txt	VASE	15	2	n/a	n/a	pyFR	2	TJ013
361.038	0.967	387473	START	n/a	n/a	n/a	n/a	2	[-999 -999 -999]	-999	pyFR	2	TJ013
362.005	2.922	387859	PROB	n/a	n/a	n/a	n/a	2	[4 1 6]	11	pyFR	2	TJ013
364.927	2.037	389028	PROB	n/a	n/a	n/a	n/a	2	[8 6 8]	22	pyFR	2	TJ013
366.964	1.987	389843	PROB	n/a	n/a	n/a	n/a	2	[6 4 4]	14	pyFR	2	TJ013
368.951	4.592	390638	PROB	n/a	n/a	n/a	n/a	2	[7 4 9]	20	pyFR	2	TJ013
373.543	2.855	392475	PROB	n/a	n/a	n/a	n/a	2	[3 4 2]	9	pyFR	2	TJ013
376.398	3.89	393616	PROB	n/a	n/a	n/a	n/a	2	[1 5 9]	15	pyFR	2	TJ013
380.288	1.982	395172	PROB	n/a	n/a	n/a	n/a	2	[1 8 2]	11	pyFR	2	TJ013
382.27	1.058	395965	STOP	n/a	n/a	n/a	n/a	2	[-999 -999 -999]	-999	pyFR	2	TJ013
383.328	2.321	396388	REC_START	n/a	n/a	n/a	-999	-999	n/a	n/a	pyFR	2	TJ013
385.649	0.305	397317	REC_WORD	0.305	n/a	FLAG	-999	2	n/a	n/a	pyFR	2	TJ013
385.954	0.413	397439	REC_WORD	0.413	n/a	FRUIT	-999	2	n/a	n/a	pyFR	2	TJ013
386.367	0.774	397604	REC_WORD	0.774	n/a	PEAR	-999	2	n/a	n/a	pyFR	2	TJ013
387.141	1.0	397914	REC_WORD_VV	1.0	n/a	VV	-999	2	n/a	n/a	pyFR	2	TJ013
388.141	3.312	398314	REC_WORD_VV	3.312	n/a	VV	-999	2	n/a	n/a	pyFR	2	TJ013
391.453	3.325	399638	REC_WORD	3.325	n/a	BENCH	-999	2	n/a	n/a	pyFR	2	TJ013
394.778	41.18	400968	REC_WORD_VV	41.18	n/a	VV	-999	2	n/a	n/a	pyFR	2	TJ013
435.958	0.016	417440	TRIAL	n/a	n/a	n/a	-999	-999	n/a	n/a	pyFR	2	TJ013
435.974	2.955	417446	ORIENT	n/a	n/a	n/a	-999	-999	n/a	n/a	pyFR	2	TJ013
438.929	2.572	418628	WORD	n/a	wordpools/wordpool_EN.txt	RICE	1	3	n/a	n/a	pyFR	2	TJ013
441.501	2.722	419657	WORD	n/a	wordpools/wordpool_EN.txt	SPRING	2	3	n/a	n/a	pyFR	2	TJ013
444.223	2.755	420745	WORD	n/a	wordpools/wordpool_EN.txt	BOOT	3	3	n/a	n/a	pyFR	2	TJ013
446.978	2.672	421847	WORD	n/a	wordpools/wordpool_EN.txt	PIN	4	3	n/a	n/a	pyFR	2	TJ013
449.65	2.621	422916	WORD	n/a	wordpools/wordpool_EN.txt	BOWL	5	3	n/a	n/a	pyFR	2	TJ013
452.271	2.704	423965	WORD	n/a	wordpools/wordpool_EN.txt	STREET	6	3	n/a	n/a	pyFR	2	TJ013
454.975	2.539	425046	WORD	n/a	wordpools/wordpool_EN.txt	GOAT	7	3	n/a	n/a	pyFR	2	TJ013
457.514	2.588	426062	WORD	n/a	wordpools/wordpool_EN.txt	GRASS	8	3	n/a	n/a	pyFR	2	TJ013
460.102	2.605	427097	WORD	n/a	wordpools/wordpool_EN.txt	CAGE	9	3	n/a	n/a	pyFR	2	TJ013
462.707	2.688	428139	WORD	n/a	wordpools/wordpool_EN.txt	SLIME	10	3	n/a	n/a	pyFR	2	TJ013
465.395	2.488	429214	WORD	n/a	wordpools/wordpool_EN.txt	BED	11	3	n/a	n/a	pyFR	2	TJ013
467.883	2.621	430209	WORD	n/a	wordpools/wordpool_EN.txt	PLANE	12	3	n/a	n/a	pyFR	2	TJ013
470.504	2.772	431258	WORD	n/a	wordpools/wordpool_EN.txt	TEETH	13	3	n/a	n/a	pyFR	2	TJ013
473.276	2.721	432366	WORD	n/a	wordpools/wordpool_EN.txt	WOLF	14	3	n/a	n/a	pyFR	2	TJ013
475.997	1.606	433455	WORD	n/a	wordpools/wordpool_EN.txt	PIE	15	3	n/a	n/a	pyFR	2	TJ013
477.603	1.017	434097	START	n/a	n/a	n/a	n/a	3	[-999 -999 -999]	-999	pyFR	2	TJ013
478.62	3.355	434504	PROB	n/a	n/a	n/a	n/a	3	[3 2 9]	14	pyFR	2	TJ013
481.975	1.688	435846	PROB	n/a	n/a	n/a	n/a	3	[6 4 1]	11	pyFR	2	TJ013
483.663	1.987	436521	PROB	n/a	n/a	n/a	n/a	3	[5 6 1]	12	pyFR	2	TJ013
485.65	3.94	437316	PROB	n/a	n/a	n/a	n/a	3	[4 9 3]	16	pyFR	2	TJ013
489.59	2.587	438892	PROB	n/a	n/a	n/a	n/a	3	[8 5 3]	16	pyFR	2	TJ013
492.177	2.855	439926	PROB	n/a	n/a	n/a	n/a	3	[5 5 5]	15	pyFR	2	TJ013
495.032	6.47	441068	PROB	n/a	n/a	n/a	n/a	3	[3 5 2]	10	pyFR	2	TJ013
501.502	1.196	443656	STOP	n/a	n/a	n/a	n/a	3	[-999 -999 -999]	-999	pyFR	2	TJ013
502.698	4.976	444135	REC_START	n/a	n/a	n/a	-999	-999	n/a	n/a	pyFR	2	TJ013
507.674	0.763	446125	REC_WORD	0.763	n/a	SPRING	-999	3	n/a	n/a	pyFR	2	TJ013
508.437	1.362	446430	REC_WORD	1.362	n/a	BOWL	-999	3	n/a	n/a	pyFR	2	TJ013
509.799	4.243	446975	REC_WORD_VV	4.243	n/a	VV	-999	3	n/a	n/a	pyFR	2	TJ013
514.042	10.754	448672	REC_WORD	10.754	n/a	PIE	-999	3	n/a	n/a	pyFR	2	TJ013
524.796	0.641	452974	REC_WORD	0.641	n/a	SPRING	-999	3	n/a	n/a	pyFR	2	TJ013
525.437	0.46	453230	REC_WORD	0.46	n/a	BOWL	-999	3	n/a	n/a	pyFR	2	TJ013
525.897	66.499	453414	REC_WORD	66.499	n/a	PIE	-999	3	n/a	n/a	pyFR	2	TJ013
592.396	0.015	480013	TRIAL	n/a	n/a	n/a	-999	-999	n/a	n/a	pyFR	2	TJ013
592.411	3.006	480019	ORIENT	n/a	n/a	n/a	-999	-999	n/a	n/a	pyFR	2	TJ013
595.417	2.488	481221	WORD	n/a	wordpools/wordpool_EN.txt	PEACH	1	4	n/a	n/a	pyFR	2	TJ013
597.905	2.689	482216	WORD	n/a	wordpools/wordpool_EN.txt	PLANT	2	4	n/a	n/a	pyFR	2	TJ013
600.594	2.788	483292	WORD	n/a	wordpools/wordpool_EN.txt	CAVE	3	4	n/a	n/a	pyFR	2	TJ013
603.382	2.721	484407	WORD	n/a	wordpools/wordpool_EN.txt	RAIN	4	4	n/a	n/a	pyFR	2	TJ013
606.103	2.556	485495	WORD	n/a	wordpools/wordpool_EN.txt	MOLE	5	4	n/a	n/a	pyFR	2	TJ013
608.659	2.704	486517	WORD	n/a	wordpools/wordpool_EN.txt	WEB	6	4	n/a	n/a	pyFR	2	TJ013
611.363	2.738	487599	WORD	n/a	wordpools/wordpool_EN.txt	LAKE	7	4	n/a	n/a	pyFR	2	TJ013
614.101	2.672	488694	WORD	n/a	wordpools/wordpool_EN.txt	AXE	8	4	n/a	n/a	pyFR	2	TJ013
616.773	2.738	489763	WORD	n/a	wordpools/wordpool_EN.txt	WORM	9	4	n/a	n/a	pyFR	2	TJ013
619.511	2.555	490858	WORD	n/a	wordpools/wordpool_EN.txt	CAPE	10	4	n/a	n/a	pyFR	2	TJ013
622.066	2.589	491880	WORD	n/a	wordpools/wordpool_EN.txt	JAIL	11	4	n/a	n/a	pyFR	2	TJ013
624.655	2.787	492916	WORD	n/a	wordpools/wordpool_EN.txt	BRUSH	12	4	n/a	n/a	pyFR	2	TJ013
627.442	2.689	494030	WORD	n/a	wordpools/wordpool_EN.txt	JUICE	13	4	n/a	n/a	pyFR	2	TJ013
630.131	2.489	495106	WORD	n/a	wordpools/wordpool_EN.txt	SOUP	14	4	n/a	n/a	pyFR	2	TJ013
632.62	1.62	496102	WORD	n/a	wordpools/wordpool_EN.txt	ROOT	15	4	n/a	n/a	pyFR	2	TJ013
634.24	0.9	496750	START	n/a	n/a	n/a	n/a	4	[-999 -999 -999]	-999	pyFR	2	TJ013
635.14	2.805	497109	PROB	n/a	n/a	n/a	n/a	4	[1 3 3]	7	pyFR	2	TJ013
637.945	1.738	498231	PROB	n/a	n/a	n/a	n/a	4	[3 3 3]	9	pyFR	2	TJ013
639.683	3.221	498927	PROB	n/a	n/a	n/a	n/a	4	[2 4 3]	9	pyFR	2	TJ013
642.904	3.607	500215	PROB	n/a	n/a	n/a	n/a	4	[6 7 2]	15	pyFR	2	TJ013
646.511	3.89	501658	PROB	n/a	n/a	n/a	n/a	4	[9 9 9]	27	pyFR	2	TJ013
650.401	3.54	503214	PROB	n/a	n/a	n/a	n/a	4	[7 9 7]	23	pyFR	2	TJ013
653.941	2.794	504630	PROB	n/a	n/a	n/a	n/a	4	[8 2 1]	11	pyFR	2	TJ013
656.735	1.198	505747	STOP	n/a	n/a	n/a	n/a	4	[-999 -999 -999]	-999	pyFR	2	TJ013
657.933	3.977	506226	REC_START	n/a	n/a	n/a	-999	-999	n/a	n/a	pyFR	2	TJ013
661.91	0.505	507817	REC_WORD	0.505	n/a	PEACH	-999	4	n/a	n/a	pyFR	2	TJ013
662.415	2.514	508019	REC_WORD	2.514	n/a	PLANT	-999	4	n/a	n/a	pyFR	2	TJ013
664.929	2.426	509025	REC_WORD	2.426	n/a	AXE	-999	4	n/a	n/a	pyFR	2	TJ013
667.355	2.895	509995	REC_WORD	2.895	n/a	SEED	-999	4	n/a	n/a	pyFR	2	TJ013
670.25	3.248	511153	REC_WORD	3.248	n/a	JAIL	-999	4	n/a	n/a	pyFR	2	TJ013
673.498	6.772	512452	REC_WORD_VV	6.772	n/a	VV	-999	4	n/a	n/a	pyFR	2	TJ013
680.27	3.693	515161	REC_WORD	3.693	n/a	CAGE	-999	4	n/a	n/a	pyFR	2	TJ013
683.963	15.418	516638	REC_WORD_VV	15.418	n/a	VV	-999	4	n/a	n/a	pyFR	2	TJ013
699.381	0.535	522805	REC_WORD	0.535	n/a	SEED	-999	4	n/a	n/a	pyFR	2	TJ013
699.916	0.726	523019	REC_WORD	0.726	n/a	PLANT	-999	4	n/a	n/a	pyFR	2	TJ013
700.642	17.618	523309	REC_WORD	17.618	n/a	CAGE	-999	4	n/a	n/a	pyFR	2	TJ013
718.26	0.016	530356	TRIAL	n/a	n/a	n/a	-999	-999	n/a	n/a	pyFR	2	TJ013
718.276	2.672	530363	ORIENT	n/a	n/a	n/a	-999	-999	n/a	n/a	pyFR	2	TJ013
720.948	2.437	531431	WORD	n/a	wordpools/wordpool_EN.txt	TOAD	1	5	n/a	n/a	pyFR	2	TJ013
723.385	2.555	532406	WORD	n/a	wordpools/wordpool_EN.txt	HEN	2	5	n/a	n/a	pyFR	2	TJ013
725.94	2.521	533428	WORD	n/a	wordpools/wordpool_EN.txt	CAR	3	5	n/a	n/a	pyFR	2	TJ013
728.461	2.739	534437	WORD	n/a	wordpools/wordpool_EN.txt	TOAST	4	5	n/a	n/a	pyFR	2	TJ013
731.2	2.705	535532	WORD	n/a	wordpools/wordpool_EN.txt	BARN	5	5	n/a	n/a	pyFR	2	TJ013
733.905	2.488	536614	WORD	n/a	wordpools/wordpool_EN.txt	FUR	6	5	n/a	n/a	pyFR	2	TJ013
736.393	2.538	537609	WORD	n/a	wordpools/wordpool_EN.txt	CALF	7	5	n/a	n/a	pyFR	2	TJ013
738.931	2.789	538624	WORD	n/a	wordpools/wordpool_EN.txt	FLEA	8	5	n/a	n/a	pyFR	2	TJ013
741.72	2.487	539740	WORD	n/a	wordpools/wordpool_EN.txt	KITE	9	5	n/a	n/a	pyFR	2	TJ013
744.207	2.672	540735	WORD	n/a	wordpools/wordpool_EN.txt	COW	10	5	n/a	n/a	pyFR	2	TJ013
746.879	2.537	541803	WORD	n/a	wordpools/wordpool_EN.txt	ZOO	11	5	n/a	n/a	pyFR	2	TJ013
749.416	2.622	542818	WORD	n/a	wordpools/wordpool_EN.txt	FOX	12	5	n/a	n/a	pyFR	2	TJ013
752.038	2.623	543867	WORD	n/a	wordpools/wordpool_EN.txt	SHEEP	13	5	n/a	n/a	pyFR	2	TJ013
754.661	2.603	544916	WORD	n/a	wordpools/wordpool_EN.txt	MULE	14	5	n/a	n/a	pyFR	2	TJ013
757.264	1.622	545957	WORD	n/a	wordpools/wordpool_EN.txt	TRAIN	15	5	n/a	n/a	pyFR	2	TJ013
758.886	1.133	546606	START	n/a	n/a	n/a	n/a	5	[-999 -999 -999]	-999	pyFR	2	TJ013
760.019	4.425	547059	PROB	n/a	n/a	n/a	n/a	5	[3 3 7]	13	pyFR	2	TJ013
764.444	2.455	548829	PROB	n/a	n/a	n/a	n/a	5	[9 7 7]	23	pyFR	2	TJ013
766.899	3.389	549811	PROB	n/a	n/a	n/a	n/a	5	[9 9 6]	24	pyFR	2	TJ013
770.288	3.441	551167	PROB	n/a	n/a	n/a	n/a	5	[3 3 3]	12	pyFR	2	TJ013
773.729	6.765	552543	PROB	n/a	n/a	n/a	n/a	5	[8 8 9]	25	pyFR	2	TJ013
780.494	1.067	555249	STOP	n/a	n/a	n/a	n/a	5	[-999 -999 -999]	-999	pyFR	2	TJ013
781.561	2.044	555676	REC_START	n/a	n/a	n/a	-999	-999	n/a	n/a	pyFR	2	TJ013
783.605	0.302	556493	REC_WORD	0.302	n/a	TOAD	-999	5	n/a	n/a	pyFR	2	TJ013
783.907	0.319	556614	REC_WORD	0.319	n/a	HEN	-999	5	n/a	n/a	pyFR	2	TJ013
784.226	1.108	556742	REC_WORD	1.108	n/a	SHEEP	-999	5	n/a	n/a	pyFR	2	TJ013
785.334	1.733	557185	REC_WORD	1.733	n/a	CAR	-999	5	n/a	n/a	pyFR	2	TJ013
787.067	0.806	557878	REC_WORD	0.806	n/a	ZOO	-999	5	n/a	n/a	pyFR	2	TJ013
787.873	2.424	558200	REC_WORD	2.424	n/a	MULE	-999	5	n/a	n/a	pyFR	2	TJ013
790.297	6.523	559170	REC_WORD_VV	6.523	n/a	VV	-999	5	n/a	n/a	pyFR	2	TJ013
796.82	1.012	561779	REC_WORD_VV	1.012	n/a	VV	-999	5	n/a	n/a	pyFR	2	TJ013
797.832	0.673	562184	REC_WORD	0.673	n/a	CAR	-999	5	n/a	n/a	pyFR	2	TJ013
798.505	1.818	562453	REC_WORD	1.818	n/a	ZOO	-999	5	n/a	n/a	pyFR	2	TJ013
800.323	7.743	563180	REC_WORD	7.743	n/a	TRAIN	-999	5	n/a	n/a	pyFR	2	TJ013
808.066	3.444	566277	REC_WORD_VV	3.444	n/a	VV	-999	5	n/a	n/a	pyFR	2	TJ013
811.51	3.139	567655	REC_WORD	3.139	n/a	CAR	-999	5	n/a	n/a	pyFR	2	TJ013
814.649	2.833	568910	REC_WORD	2.833	n/a	MOLE	-999	5	n/a	n/a	pyFR	2	TJ013
817.482	23.954	570044	REC_WORD_VV	23.954	n/a	VV	-999	5	n/a	n/a	pyFR	2	TJ013
841.436	0.016	579625	TRIAL	n/a	n/a	n/a	-999	-999	n/a	n/a	pyFR	2	TJ013
841.452	2.939	579631	ORIENT	n/a	n/a	n/a	-999	-999	n/a	n/a	pyFR	2	TJ013
844.391	2.555	580807	WORD	n/a	wordpools/wordpool_EN.txt	BELL	1	6	n/a	n/a	pyFR	2	TJ013
846.946	2.488	581829	WORD	n/a	wordpools/wordpool_EN.txt	SEAL	2	6	n/a	n/a	pyFR	2	TJ013
849.434	2.471	582824	WORD	n/a	wordpools/wordpool_EN.txt	SPEAR	3	6	n/a	n/a	pyFR	2	TJ013
851.905	2.571	583812	WORD	n/a	wordpools/wordpool_EN.txt	JUDGE	4	6	n/a	n/a	pyFR	2	TJ013
854.476	2.555	584841	WORD	n/a	wordpools/wordpool_EN.txt	POND	5	6	n/a	n/a	pyFR	2	TJ013
857.031	2.805	585863	WORD	n/a	wordpools/wordpool_EN.txt	SLUSH	6	6	n/a	n/a	pyFR	2	TJ013
859.836	2.455	586985	WORD	n/a	wordpools/wordpool_EN.txt	FILM	7	6	n/a	n/a	pyFR	2	TJ013
862.291	2.821	587967	WORD	n/a	wordpools/wordpool_EN.txt	DITCH	8	6	n/a	n/a	pyFR	2	TJ013
865.112	2.606	589095	WORD	n/a	wordpools/wordpool_EN.txt	SWAMP	9	6	n/a	n/a	pyFR	2	TJ013
867.718	2.754	590137	WORD	n/a	wordpools/wordpool_EN.txt	ANT	10	6	n/a	n/a	pyFR	2	TJ013
870.472	2.588	591239	WORD	n/a	wordpools/wordpool_EN.txt	SINK	11	6	n/a	n/a	pyFR	2	TJ013
873.06	2.772	592274	WORD	n/a	wordpools/wordpool_EN.txt	TRUCK	12	6	n/a	n/a	pyFR	2	TJ013
875.832	2.455	593383	WORD	n/a	wordpools/wordpool_EN.txt	VINE	13	6	n/a	n/a	pyFR	2	TJ013
878.287	2.554	594365	WORD	n/a	wordpools/wordpool_EN.txt	POLE	14	6	n/a	n/a	pyFR	2	TJ013
880.841	1.605	595386	WORD	n/a	wordpools/wordpool_EN.txt	PURSE	15	6	n/a	n/a	pyFR	2	TJ013
882.446	0.933	596028	START	n/a	n/a	n/a	n/a	6	[-999 -999 -999]	-999	pyFR	2	TJ013
883.379	4.492	596401	PROB	n/a	n/a	n/a	n/a	6	[8 9 7]	24	pyFR	2	TJ013
887.871	5.911	598198	PROB	n/a	n/a	n/a	n/a	6	[6 6 3]	15	pyFR	2	TJ013
893.782	3.122	600563	PROB	n/a	n/a	n/a	n/a	6	[1 9 8]	18	pyFR	2	TJ013
896.904	2.656	601811	PROB	n/a	n/a	n/a	n/a	6	[3 5 5]	13	pyFR	2	TJ013
899.56	2.47	602874	PROB	n/a	n/a	n/a	n/a	6	[6 4 2]	12	pyFR	2	TJ013
902.03	2.888	603862	PROB	n/a	n/a	n/a	n/a	6	[1 1 4]	6	pyFR	2	TJ013
904.918	1.152	605017	STOP	n/a	n/a	n/a	n/a	6	[-999 -999 -999]	-999	pyFR	2	TJ013
906.07	2.209	605478	REC_START	n/a	n/a	n/a	-999	-999	n/a	n/a	pyFR	2	TJ013
908.279	0.372	606361	REC_WORD	0.372	n/a	BELL	-999	6	n/a	n/a	pyFR	2	TJ013
908.651	1.623	606510	REC_WORD	1.623	n/a	POLE	-999	6	n/a	n/a	pyFR	2	TJ013
910.274	0.498	607159	REC_WORD_VV	0.498	n/a	VV	-999	6	n/a	n/a	pyFR	2	TJ013
910.772	2.422	607358	REC_WORD	2.422	n/a	SEAL	-999	6	n/a	n/a	pyFR	2	TJ013
913.194	7.76	608327	REC_WORD_VV	7.76	n/a	VV	-999	6	n/a	n/a	pyFR	2	TJ013
920.954	0.599	611431	REC_WORD_VV	0.599	n/a	VV	-999	6	n/a	n/a	pyFR	2	TJ013
921.553	0.316	611671	REC_WORD	0.316	n/a	BELL	-999	6	n/a	n/a	pyFR	2	TJ013
921.869	0.166	611797	REC_WORD	0.166	n/a	POLE	-999	6	n/a	n/a	pyFR	2	TJ013
922.035	1.018	611863	REC_WORD	1.018	n/a	SEAL	-999	6	n/a	n/a	pyFR	2	TJ013
923.053	0.735	612270	REC_WORD	0.735	n/a	VASE	-999	6	n/a	n/a	pyFR	2	TJ013
923.788	7.67	612564	REC_WORD_VV	7.67	n/a	VV	-999	6	n/a	n/a	pyFR	2	TJ013
931.458	0.928	615632	REC_WORD	0.928	n/a	SEAL	-999	6	n/a	n/a	pyFR	2	TJ013
932.386	29.672	616004	REC_WORD	29.672	n/a	POLE	-999	6	n/a	n/a	pyFR	2	TJ013
962.058	0.016	627872	TRIAL	n/a	n/a	n/a	-999	-999	n/a	n/a	pyFR	2	TJ013
962.074	3.005	627878	ORIENT	n/a	n/a	n/a	-999	-999	n/a	n/a	pyFR	2	TJ013
965.079	2.539	629080	WORD	n/a	wordpools/wordpool_EN.txt	DIME	1	7	n/a	n/a	pyFR	2	TJ013
967.618	2.738	630096	WORD	n/a	wordpools/wordpool_EN.txt	DEER	2	7	n/a	n/a	pyFR	2	TJ013
970.356	2.571	631191	WORD	n/a	wordpools/wordpool_EN.txt	FOG	3	7	n/a	n/a	pyFR	2	TJ013
972.927	2.471	632219	WORD	n/a	wordpools/wordpool_EN.txt	GLOVE	4	7	n/a	n/a	pyFR	2	TJ013
975.398	2.789	633208	WORD	n/a	wordpools/wordpool_EN.txt	ELF	5	7	n/a	n/a	pyFR	2	TJ013
978.187	2.671	634323	WORD	n/a	wordpools/wordpool_EN.txt	ROOM	6	7	n/a	n/a	pyFR	2	TJ013
980.858	2.589	635392	WORD	n/a	wordpools/wordpool_EN.txt	BEACH	7	7	n/a	n/a	pyFR	2	TJ013
983.447	2.487	636427	WORD	n/a	wordpools/wordpool_EN.txt	JET	8	7	n/a	n/a	pyFR	2	TJ013
985.934	2.74	637422	WORD	n/a	wordpools/wordpool_EN.txt	SHRIMP	9	7	n/a	n/a	pyFR	2	TJ013
988.674	2.754	638518	WORD	n/a	wordpools/wordpool_EN.txt	TOOTH	10	7	n/a	n/a	pyFR	2	TJ013
991.428	2.438	639619	WORD	n/a	wordpools/wordpool_EN.txt	MUD	11	7	n/a	n/a	pyFR	2	TJ013
993.866	2.521	640595	WORD	n/a	wordpools/wordpool_EN.txt	HOSE	12	7	n/a	n/a	pyFR	2	TJ013
996.387	2.688	641603	WORD	n/a	wordpools/wordpool_EN.txt	SIGN	13	7	n/a	n/a	pyFR	2	TJ013
999.075	2.522	642678	WORD	n/a	wordpools/wordpool_EN.txt	PEAR	14	7	n/a	n/a	pyFR	2	TJ013
1001.597	1.621	643687	WORD	n/a	wordpools/wordpool_EN.txt	DOG	15	7	n/a	n/a	pyFR	2	TJ013
1003.218	1.034	644335	START	n/a	n/a	n/a	n/a	7	[-999 -999 -999]	-999	pyFR	2	TJ013
1004.252	4.492	644749	PROB	n/a	n/a	n/a	n/a	7	[9 3 4]	16	pyFR	2	TJ013
1008.744	3.505	646546	PROB	n/a	n/a	n/a	n/a	7	[7 8 5]	20	pyFR	2	TJ013
1012.249	2.722	647948	PROB	n/a	n/a	n/a	n/a	7	[2 5 2]	9	pyFR	2	TJ013
1014.971	3.123	649036	PROB	n/a	n/a	n/a	n/a	7	[9 3 4]	16	pyFR	2	TJ013
1018.094	4.241	650285	PROB	n/a	n/a	n/a	n/a	7	[6 9 2]	17	pyFR	2	TJ013
1022.335	3.199	651982	PROB	n/a	n/a	n/a	n/a	7	[4 7 8]	19	pyFR	2	TJ013
1025.534	1.144	653261	STOP	n/a	n/a	n/a	n/a	7	[-999 -999 -999]	-999	pyFR	2	TJ013
1026.678	10.627	653719	REC_START	n/a	n/a	n/a	-999	-999	n/a	n/a	pyFR	2	TJ013
1037.305	24.285	657970	REC_WORD_VV	24.285	n/a	VV	-999	7	n/a	n/a	pyFR	2	TJ013
1061.59	3.26	667683	REC_WORD	3.26	n/a	ELF	-999	7	n/a	n/a	pyFR	2	TJ013
1064.85	26.479	668987	REC_WORD_VV	26.479	n/a	VV	-999	7	n/a	n/a	pyFR	2	TJ013
1091.329	0.016	679578	TRIAL	n/a	n/a	n/a	-999	-999	n/a	n/a	pyFR	2	TJ013
1091.345	2.989	679585	ORIENT	n/a	n/a	n/a	-999	-999	n/a	n/a	pyFR	2	TJ013
1094.334	2.638	680780	WORD	n/a	wordpools/wordpool_EN.txt	HORN	1	8	n/a	n/a	pyFR	2	TJ013
1096.972	2.739	681836	WORD	n/a	wordpools/wordpool_EN.txt	HOOK	2	8	n/a	n/a	pyFR	2	TJ013
1099.711	2.754	682931	WORD	n/a	wordpools/wordpool_EN.txt	TOE	3	8	n/a	n/a	pyFR	2	TJ013
1102.465	2.605	684033	WORD	n/a	wordpools/wordpool_EN.txt	SOCK	4	8	n/a	n/a	pyFR	2	TJ013
1105.07	2.421	685075	WORD	n/a	wordpools/wordpool_EN.txt	ROPE	5	8	n/a	n/a	pyFR	2	TJ013
1107.491	2.772	686043	WORD	n/a	wordpools/wordpool_EN.txt	STAIR	6	8	n/a	n/a	pyFR	2	TJ013
1110.263	2.688	687152	WORD	n/a	wordpools/wordpool_EN.txt	CRANE	7	8	n/a	n/a	pyFR	2	TJ013
1112.951	2.623	688227	WORD	n/a	wordpools/wordpool_EN.txt	TENT	8	8	n/a	n/a	pyFR	2	TJ013
1115.574	2.52	689276	WORD	n/a	wordpools/wordpool_EN.txt	SOAP	9	8	n/a	n/a	pyFR	2	TJ013
1118.094	2.589	690284	WORD	n/a	wordpools/wordpool_EN.txt	STOVE	10	8	n/a	n/a	pyFR	2	TJ013
1120.683	2.687	691320	WORD	n/a	wordpools/wordpool_EN.txt	BATH	11	8	n/a	n/a	pyFR	2	TJ013
1123.37	2.689	692394	WORD	n/a	wordpools/wordpool_EN.txt	STOOL	12	8	n/a	n/a	pyFR	2	TJ013
1126.059	2.622	693470	WORD	n/a	wordpools/wordpool_EN.txt	BRICK	13	8	n/a	n/a	pyFR	2	TJ013
1128.681	2.704	694519	WORD	n/a	wordpools/wordpool_EN.txt	FOOT	14	8	n/a	n/a	pyFR	2	TJ013
1131.385	1.621	695600	WORD	n/a	wordpools/wordpool_EN.txt	BAND	15	8	n/a	n/a	pyFR	2	TJ013
1133.006	0.85	696249	START	n/a	n/a	n/a	n/a	8	[-999 -999 -999]	-999	pyFR	2	TJ013
1133.856	8.032	696589	PROB	n/a	n/a	n/a	n/a	8	[6 3 5]	14	pyFR	2	TJ013
1141.888	2.337	699801	PROB	n/a	n/a	n/a	n/a	8	[7 3 7]	17	pyFR	2	TJ013
1144.225	2.406	700736	PROB	n/a	n/a	n/a	n/a	8	[4 7 3]	14	pyFR	2	TJ013
1146.631	2.253	701698	PROB	n/a	n/a	n/a	n/a	8	[3 8 4]	15	pyFR	2	TJ013
1148.884	3.924	702600	PROB	n/a	n/a	n/a	n/a	8	[6 8 3]	17	pyFR	2	TJ013
1152.808	2.526	704169	PROB	n/a	n/a	n/a	n/a	8	[4 6 5]	15	pyFR	2	TJ013
1155.334	1.114	705179	STOP	n/a	n/a	n/a	n/a	8	[-999 -999 -999]	-999	pyFR	2	TJ013
1156.448	1.748	705625	REC_START	n/a	n/a	n/a	-999	-999	n/a	n/a	pyFR	2	TJ013
1158.196	0.5	706324	REC_WORD	0.5	n/a	STOOL	-999	8	n/a	n/a	pyFR	2	TJ013
1158.696	0.488	706524	REC_WORD	0.488	n/a	BOOK	-999	8	n/a	n/a	pyFR	2	TJ013
1159.184	0.332	706719	REC_WORD	0.332	n/a	BRICK	-999	8	n/a	n/a	pyFR	2	TJ013
1159.516	1.047	706852	REC_WORD	1.047	n/a	YARD	-999	8	n/a	n/a	pyFR	2	TJ013
1160.563	1.229	707271	REC_WORD_VV	1.229	n/a	VV	-999	8	n/a	n/a	pyFR	2	TJ013
1161.792	2.206	707763	REC_WORD	2.206	n/a	TENT	-999	8	n/a	n/a	pyFR	2	TJ013
1163.998	8.37	708645	REC_WORD_VV	8.37	n/a	VV	-999	8	n/a	n/a	pyFR	2	TJ013
1172.368	0.521	711993	REC_WORD	0.521	n/a	TOE	-999	8	n/a	n/a	pyFR	2	TJ013
1172.889	2.818	712201	REC_WORD	2.818	n/a	SOCK	-999	8	n/a	n/a	pyFR	2	TJ013
1175.707	22.237	713328	REC_WORD	22.237	n/a	FOOT	-999	8	n/a	n/a	pyFR	2	TJ013
1197.944	8.53	722223	REC_WORD	8.53	n/a	BARN	-999	8	n/a	n/a	pyFR	2	TJ013
1206.474	0.016	725635	TRIAL	n/a	n/a	n/a	-999	-999	n/a	n/a	pyFR	2	TJ013
1206.49	2.688	725641	ORIENT	n/a	n/a	n/a	-999	-999	n/a	n/a	pyFR	2	TJ013
1209.178	2.439	726716	WORD	n/a	wordpools/wordpool_EN.txt	BRANCH	1	9	n/a	n/a	pyFR	2	TJ013
1211.617	2.72	727692	WORD	n/a	wordpools/wordpool_EN.txt	PLATE	2	9	n/a	n/a	pyFR	2	TJ013
1214.337	2.739	728780	WORD	n/a	wordpools/wordpool_EN.txt	SHELL	3	9	n/a	n/a	pyFR	2	TJ013
1217.076	2.788	729875	WORD	n/a	wordpools/wordpool_EN.txt	COUCH	4	9	n/a	n/a	pyFR	2	TJ013
1219.864	2.538	730991	WORD	n/a	wordpools/wordpool_EN.txt	SPONGE	5	9	n/a	n/a	pyFR	2	TJ013
1222.402	2.672	732006	WORD	n/a	wordpools/wordpool_EN.txt	SUN	6	9	n/a	n/a	pyFR	2	TJ013
1225.074	2.505	733074	WORD	n/a	wordpools/wordpool_EN.txt	PIPE	7	9	n/a	n/a	pyFR	2	TJ013
1227.579	2.671	734076	WORD	n/a	wordpools/wordpool_EN.txt	SAIL	8	9	n/a	n/a	pyFR	2	TJ013
1230.25	2.705	735145	WORD	n/a	wordpools/wordpool_EN.txt	CAT	9	9	n/a	n/a	pyFR	2	TJ013
1232.955	2.571	736227	WORD	n/a	wordpools/wordpool_EN.txt	NAIL	10	9	n/a	n/a	pyFR	2	TJ013
1235.526	2.689	737255	WORD	n/a	wordpools/wordpool_EN.txt	HOOF	11	9	n/a	n/a	pyFR	2	TJ013
1238.215	2.455	738331	WORD	n/a	wordpools/wordpool_EN.txt	SEA	12	9	n/a	n/a	pyFR	2	TJ013
1240.67	2.654	739313	WORD	n/a	wordpools/wordpool_EN.txt	FACE	13	9	n/a	n/a	pyFR	2	TJ013
1243.324	2.688	740374	WORD	n/a	wordpools/wordpool_EN.txt	THREAD	14	9	n/a	n/a	pyFR	2	TJ013
1246.012	1.606	741449	WORD	n/a	wordpools/wordpool_EN.txt	EAR	15	9	n/a	n/a	pyFR	2	TJ013
1247.618	1.183	742092	START	n/a	n/a	n/a	n/a	9	[-999 -999 -999]	-999	pyFR	2	TJ013
1248.801	5.828	742565	PROB	n/a	n/a	n/a	n/a	9	[2 6 9]	17	pyFR	2	TJ013
1254.629	3.006	744896	PROB	n/a	n/a	n/a	n/a	9	[1 6 7]	14	pyFR	2	TJ013
1257.635	3.94	746098	PROB	n/a	n/a	n/a	n/a	9	[8 8 4]	20	pyFR	2	TJ013
1261.575	3.84	747674	PROB	n/a	n/a	n/a	n/a	9	[8 6 1]	15	pyFR	2	TJ013
1265.415	2.423	749210	PROB	n/a	n/a	n/a	n/a	9	[7 6 6]	19	pyFR	2	TJ013
1267.838	1.1	750179	STOP	n/a	n/a	n/a	n/a	9	[-999 -999 -999]	-999	pyFR	2	TJ013
1268.938	2.062	750619	REC_START	n/a	n/a	n/a	-999	-999	n/a	n/a	pyFR	2	TJ013
1271.0	0.346	751444	REC_WORD	0.346	n/a	BRANCH	-999	9	n/a	n/a	pyFR	2	TJ013
1271.346	0.312	751583	REC_WORD	0.312	n/a	PIPE	-999	9	n/a	n/a	pyFR	2	TJ013
1271.658	0.558	751707	REC_WORD	0.558	n/a	PLATE	-999	9	n/a	n/a	pyFR	2	TJ013
1272.216	2.574	751931	REC_WORD_VV	2.574	n/a	VV	-999	9	n/a	n/a	pyFR	2	TJ013
1274.79	0.392	752960	REC_WORD	0.392	n/a	BRANCH	-999	9	n/a	n/a	pyFR	2	TJ013
1275.182	0.513	753117	REC_WORD	0.513	n/a	PIPE	-999	9	n/a	n/a	pyFR	2	TJ013
1275.695	3.629	753322	REC_WORD	3.629	n/a	PLATE	-999	9	n/a	n/a	pyFR	2	TJ013
1279.324	1.0	754774	REC_WORD_VV	1.0	n/a	VV	-999	9	n/a	n/a	pyFR	2	TJ013
1280.324	3.293	755174	REC_WORD_VV	3.293	n/a	VV	-999	9	n/a	n/a	pyFR	2	TJ013
1283.617	3.965	756491	REC_WORD	3.965	n/a	PEA	-999	9	n/a	n/a	pyFR	2	TJ013
1287.582	12.289	758077	REC_WORD_VV	12.289	n/a	VV	-999	9	n/a	n/a	pyFR	2	TJ013
1299.871	0.362	762992	REC_WORD	0.362	n/a	BRANCH	-999	9	n/a	n/a	pyFR	2	TJ013
1300.233	0.297	763137	REC_WORD	0.297	n/a	PIPE	-999	9	n/a	n/a	pyFR	2	TJ013
1300.53	21.64	763256	REC_WORD	21.64	n/a	PLATE	-999	9	n/a	n/a	pyFR	2	TJ013
1322.17	0.016	771911	TRIAL	n/a	n/a	n/a	-999	-999	n/a	n/a	pyFR	2	TJ013
1322.186	2.955	771918	ORIENT	n/a	n/a	n/a	-999	-999	n/a	n/a	pyFR	2	TJ013
1325.141	2.672	773100	WORD	n/a	wordpools/wordpool_EN.txt	BANK	1	10	n/a	n/a	pyFR	2	TJ013
1327.813	2.688	774169	WORD	n/a	wordpools/wordpool_EN.txt	OWL	2	10	n/a	n/a	pyFR	2	TJ013
1330.501	2.738	775244	WORD	n/a	wordpools/wordpool_EN.txt	BOMB	3	10	n/a	n/a	pyFR	2	TJ013
1333.239	2.472	776339	WORD	n/a	wordpools/wordpool_EN.txt	ARM	4	10	n/a	n/a	pyFR	2	TJ013
1335.711	2.587	777328	WORD	n/a	wordpools/wordpool_EN.txt	RIB	5	10	n/a	n/a	pyFR	2	TJ013
1338.298	2.505	778362	WORD	n/a	wordpools/wordpool_EN.txt	POOL	6	10	n/a	n/a	pyFR	2	TJ013
1340.803	2.605	779364	WORD	n/a	wordpools/wordpool_EN.txt	HAWK	7	10	n/a	n/a	pyFR	2	TJ013
1343.408	2.672	780406	WORD	n/a	wordpools/wordpool_EN.txt	APE	8	10	n/a	n/a	pyFR	2	TJ013
1346.08	2.755	781475	WORD	n/a	wordpools/wordpool_EN.txt	BAT	9	10	n/a	n/a	pyFR	2	TJ013
1348.835	2.739	782577	WORD	n/a	wordpools/wordpool_EN.txt	COIN	10	10	n/a	n/a	pyFR	2	TJ013
1351.574	2.487	783673	WORD	n/a	wordpools/wordpool_EN.txt	KING	11	10	n/a	n/a	pyFR	2	TJ013
1354.061	2.505	784667	WORD	n/a	wordpools/wordpool_EN.txt	FUDGE	12	10	n/a	n/a	pyFR	2	TJ013
1356.566	2.437	785669	WORD	n/a	wordpools/wordpool_EN.txt	CLIFF	13	10	n/a	n/a	pyFR	2	TJ013
1359.003	2.805	786644	WORD	n/a	wordpools/wordpool_EN.txt	DRESS	14	10	n/a	n/a	pyFR	2	TJ013
1361.808	1.605	787766	WORD	n/a	wordpools/wordpool_EN.txt	WAND	15	10	n/a	n/a	pyFR	2	TJ013
1363.413	1.151	788408	START	n/a	n/a	n/a	n/a	10	[-999 -999 -999]	-999	pyFR	2	TJ013
1364.564	3.289	788868	PROB	n/a	n/a	n/a	n/a	10	[1 6 6]	13	pyFR	2	TJ013
1367.853	4.174	790184	PROB	n/a	n/a	n/a	n/a	10	[2 2 6]	10	pyFR	2	TJ013
1372.027	2.755	791854	PROB	n/a	n/a	n/a	n/a	10	[2 5 8]	15	pyFR	2	TJ013
1374.782	2.288	792955	PROB	n/a	n/a	n/a	n/a	10	[5 1 1]	7	pyFR	2	TJ013
1377.07	1.786	793871	PROB	n/a	n/a	n/a	n/a	10	[5 5 3]	13	pyFR	2	TJ013
1378.856	2.807	794585	PROB	n/a	n/a	n/a	n/a	10	[5 9 1]	15	pyFR	2	TJ013
1381.663	3.263	795708	PROB	n/a	n/a	n/a	n/a	10	[9 7 6]	22	pyFR	2	TJ013
1384.926	1.144	797013	STOP	n/a	n/a	n/a	n/a	10	[-999 -999 -999]	-999	pyFR	2	TJ013
1386.07	3.258	797471	REC_START	n/a	n/a	n/a	-999	-999	n/a	n/a	pyFR	2	TJ013
1389.328	2.145	798774	REC_WORD_VV	2.145	n/a	VV	-999	10	n/a	n/a	pyFR	2	TJ013
1391.473	0.461	799632	REC_WORD	0.461	n/a	BRANCH	-999	10	n/a	n/a	pyFR	2	TJ013
1391.934	0.58	799816	REC_WORD	0.58	n/a	BANK	-999	10	n/a	n/a	pyFR	2	TJ013
1392.514	2.551	800048	REC_WORD	2.551	n/a	PLATE	-999	10	n/a	n/a	pyFR	2	TJ013
1395.065	3.818	801068	REC_WORD_VV	3.818	n/a	VV	-999	10	n/a	n/a	pyFR	2	TJ013
1398.883	2.583	802596	REC_WORD	2.583	n/a	COIN	-999	10	n/a	n/a	pyFR	2	TJ013
1401.466	1.837	803629	REC_WORD_VV	1.837	n/a	VV	-999	10	n/a	n/a	pyFR	2	TJ013
1403.303	2.895	804363	REC_WORD	2.895	n/a	OWL	-999	10	n/a	n/a	pyFR	2	TJ013
1406.198	0.682	805521	REC_WORD	0.682	n/a	COIN	-999	10	n/a	n/a	pyFR	2	TJ013
1406.88	2.938	805794	REC_WORD	2.938	n/a	OWL	-999	10	n/a	n/a	pyFR	2	TJ013
1409.818	7.646	806969	REC_WORD_VV	7.646	n/a	VV	-999	10	n/a	n/a	pyFR	2	TJ013
1417.464	0.606	810028	REC_WORD	0.606	n/a	BRANCH	-999	10	n/a	n/a	pyFR	2	TJ013
1418.07	16.006	810270	REC_WORD	16.006	n/a	PLATE	-999	10	n/a	n/a	pyFR	2	TJ013
1434.076	0.015	816672	TRIAL	n/a	n/a	n/a	-999	-999	n/a	n/a	pyFR	2	TJ013
1434.091	2.872	816678	ORIENT	n/a	n/a	n/a	-999	-999	n/a	n/a	pyFR	2	TJ013
1436.963	2.589	817827	WORD	n/a	wordpools/wordpool_EN.txt	HILL	1	11	n/a	n/a	pyFR	2	TJ013
1439.552	2.537	818863	WORD	n/a	wordpools/wordpool_EN.txt	DUCK	2	11	n/a	n/a	pyFR	2	TJ013
1442.089	2.455	819877	WORD	n/a	wordpools/wordpool_EN.txt	VAN	3	11	n/a	n/a	pyFR	2	TJ013
1444.544	2.621	820859	WORD	n/a	wordpools/wordpool_EN.txt	TRAY	4	11	n/a	n/a	pyFR	2	TJ013
1447.165	2.472	821908	WORD	n/a	wordpools/wordpool_EN.txt	DOLL	5	11	n/a	n/a	pyFR	2	TJ013
1449.637	2.554	822896	WORD	n/a	wordpools/wordpool_EN.txt	SKUNK	6	11	n/a	n/a	pyFR	2	TJ013
1452.191	2.605	823918	WORD	n/a	wordpools/wordpool_EN.txt	STEM	7	11	n/a	n/a	pyFR	2	TJ013
1454.796	2.571	824960	WORD	n/a	wordpools/wordpool_EN.txt	SQUARE	8	11	n/a	n/a	pyFR	2	TJ013
1457.367	2.739	825988	WORD	n/a	wordpools/wordpool_EN.txt	WING	9	11	n/a	n/a	pyFR	2	TJ013
1460.106	2.805	827084	WORD	n/a	wordpools/wordpool_EN.txt	DOOR	10	11	n/a	n/a	pyFR	2	TJ013
1462.911	2.656	828206	WORD	n/a	wordpools/wordpool_EN.txt	TIE	11	11	n/a	n/a	pyFR	2	TJ013
1465.567	2.587	829268	WORD	n/a	wordpools/wordpool_EN.txt	SALT	12	11	n/a	n/a	pyFR	2	TJ013
1468.154	2.655	830303	WORD	n/a	wordpools/wordpool_EN.txt	LAMP	13	11	n/a	n/a	pyFR	2	TJ013
1470.809	2.454	831365	WORD	n/a	wordpools/wordpool_EN.txt	SUIT	14	11	n/a	n/a	pyFR	2	TJ013
1473.263	1.621	832346	WORD	n/a	wordpools/wordpool_EN.txt	FISH	15	11	n/a	n/a	pyFR	2	TJ013
1474.884	1.151	832995	START	n/a	n/a	n/a	n/a	11	[-999 -999 -999]	-999	pyFR	2	TJ013
1476.035	5.226	833455	PROB	n/a	n/a	n/a	n/a	11	[9 4 9]	22	pyFR	2	TJ013
1481.261	3.557	835546	PROB	n/a	n/a	n/a	n/a	11	[6 8 8]	24	pyFR	2	TJ013
1484.818	3.841	836968	PROB	n/a	n/a	n/a	n/a	11	[2 2 9]	13	pyFR	2	TJ013
1488.659	3.088	838505	PROB	n/a	n/a	n/a	n/a	11	[4 8 2]	14	pyFR	2	TJ013
1491.747	2.538	839740	PROB	n/a	n/a	n/a	n/a	11	[7 4 3]	14	pyFR	2	TJ013
1494.285	1.977	840755	PROB	n/a	n/a	n/a	n/a	11	[1 2 2]	5	pyFR	2	TJ013
1496.262	1.18	841546	STOP	n/a	n/a	n/a	n/a	11	[-999 -999 -999]	-999	pyFR	2	TJ013
1497.442	4.759	842018	REC_START	n/a	n/a	n/a	-999	-999	n/a	n/a	pyFR	2	TJ013
1502.201	0.337	843921	REC_WORD	0.337	n/a	DUCK	-999	11	n/a	n/a	pyFR	2	TJ013
1502.538	0.23	844056	REC_WORD	0.23	n/a	LAMP	-999	11	n/a	n/a	pyFR	2	TJ013
1502.768	1.1	844148	REC_WORD	1.1	n/a	SUIT	-999	11	n/a	n/a	pyFR	2	TJ013
1503.868	3.46	844588	REC_WORD	3.46	n/a	HILL	-999	11	n/a	n/a	pyFR	2	TJ013
1507.328	0.791	845972	REC_WORD_VV	0.791	n/a	VV	-999	11	n/a	n/a	pyFR	2	TJ013
1508.119	0.287	846288	REC_WORD	0.287	n/a	DUCK	-999	11	n/a	n/a	pyFR	2	TJ013
1508.406	0.199	846403	REC_WORD	0.199	n/a	LAMP	-999	11	n/a	n/a	pyFR	2	TJ013
1508.605	0.308	846483	REC_WORD	0.308	n/a	SUIT	-999	11	n/a	n/a	pyFR	2	TJ013
1508.913	7.311	846606	REC_WORD	7.311	n/a	HILL	-999	11	n/a	n/a	pyFR	2	TJ013
1516.224	5.114	849530	REC_WORD	5.114	n/a	SALT	-999	11	n/a	n/a	pyFR	2	TJ013
1521.338	5.995	851576	REC_WORD	5.995	n/a	SUIT	-999	11	n/a	n/a	pyFR	2	TJ013
1527.333	4.537	853974	REC_WORD	4.537	n/a	SHEEP	-999	11	n/a	n/a	pyFR	2	TJ013
1531.87	16.515	855788	REC_WORD_VV	16.515	n/a	VV	-999	11	n/a	n/a	pyFR	2	TJ013
1548.385	0.016	862394	TRIAL	n/a	n/a	n/a	-999	-999	n/a	n/a	pyFR	2	TJ013
1548.401	2.856	862401	ORIENT	n/a	n/a	n/a	-999	-999	n/a	n/a	pyFR	2	TJ013
1551.257	2.504	863543	WORD	n/a	wordpools/wordpool_EN.txt	BUSH	1	12	n/a	n/a	pyFR	2	TJ013
1553.761	2.789	864544	WORD	n/a	wordpools/wordpool_EN.txt	RAKE	2	12	n/a	n/a	pyFR	2	TJ013
1556.55	2.504	865660	WORD	n/a	wordpools/wordpool_EN.txt	BLOOM	3	12	n/a	n/a	pyFR	2	TJ013
1559.054	2.689	866662	WORD	n/a	wordpools/wordpool_EN.txt	CORD	4	12	n/a	n/a	pyFR	2	TJ013
1561.743	2.721	867737	WORD	n/a	wordpools/wordpool_EN.txt	SMOKE	5	12	n/a	n/a	pyFR	2	TJ013
1564.464	2.521	868826	WORD	n/a	wordpools/wordpool_EN.txt	CHAIR	6	12	n/a	n/a	pyFR	2	TJ013
1566.985	2.538	869834	WORD	n/a	wordpools/wordpool_EN.txt	SPARK	7	12	n/a	n/a	pyFR	2	TJ013
1569.523	2.739	870849	WORD	n/a	wordpools/wordpool_EN.txt	DESK	8	12	n/a	n/a	pyFR	2	TJ013
1572.262	2.688	871945	WORD	n/a	wordpools/wordpool_EN.txt	MOTH	9	12	n/a	n/a	pyFR	2	TJ013
1574.95	2.571	873020	WORD	n/a	wordpools/wordpool_EN.txt	STRAW	10	12	n/a	n/a	pyFR	2	TJ013
1577.521	2.488	874048	WORD	n/a	wordpools/wordpool_EN.txt	FOAM	11	12	n/a	n/a	pyFR	2	TJ013
1580.009	2.472	875043	WORD	n/a	wordpools/wordpool_EN.txt	JAR	12	12	n/a	n/a	pyFR	2	TJ013
1582.481	2.671	876032	WORD	n/a	wordpools/wordpool_EN.txt	LEG	13	12	n/a	n/a	pyFR	2	TJ013
1585.152	2.705	877100	WORD	n/a	wordpools/wordpool_EN.txt	NET	14	12	n/a	n/a	pyFR	2	TJ013
1587.857	1.604	878182	WORD	n/a	wordpools/wordpool_EN.txt	PARK	15	12	n/a	n/a	pyFR	2	TJ013
1589.461	1.084	878824	START	n/a	n/a	n/a	n/a	12	[-999 -999 -999]	-999	pyFR	2	TJ013
1590.545	5.711	879258	PROB	n/a	n/a	n/a	n/a	12	[9 5 2]	16	pyFR	2	TJ013
1596.256	3.206	881542	PROB	n/a	n/a	n/a	n/a	12	[6 5 6]	17	pyFR	2	TJ013
1599.462	3.957	882824	PROB	n/a	n/a	n/a	n/a	12	[4 1 8]	13	pyFR	2	TJ013
1603.419	2.788	884407	PROB	n/a	n/a	n/a	n/a	12	[1 1 6]	8	pyFR	2	TJ013
1606.207	2.221	885522	PROB	n/a	n/a	n/a	n/a	12	[2 1 2]	5	pyFR	2	TJ013
1608.428	3.106	886410	PROB	n/a	n/a	n/a	n/a	12	[6 3 3]	12	pyFR	2	TJ013
1611.534	1.104	887653	STOP	n/a	n/a	n/a	n/a	12	[-999 -999 -999]	-999	pyFR	2	TJ013
1612.638	6.99	888094	REC_START	n/a	n/a	n/a	-999	-999	n/a	n/a	pyFR	2	TJ013
1619.628	7.068	890890	REC_WORD	7.068	n/a	LEG	-999	12	n/a	n/a	pyFR	2	TJ013
1626.696	0.892	893717	REC_WORD	0.892	n/a	SHIFT	-999	12	n/a	n/a	pyFR	2	TJ013
1627.588	3.452	894074	REC_WORD_VV	3.452	n/a	VV	-999	12	n/a	n/a	pyFR	2	TJ013
1631.04	4.449	895455	REC_WORD	4.449	n/a	ARM	-999	12	n/a	n/a	pyFR	2	TJ013
1635.489	17.572	897234	REC_WORD_VV	17.572	n/a	VV	-999	12	n/a	n/a	pyFR	2	TJ013
1653.061	16.881	904263	REC_WORD	16.881	n/a	NAIL	-999	12	n/a	n/a	pyFR	2	TJ013
1669.942	0.016	911015	TRIAL	n/a	n/a	n/a	-999	-999	n/a	n/a	pyFR	2	TJ013
1669.958	2.773	911022	ORIENT	n/a	n/a	n/a	-999	-999	n/a	n/a	pyFR	2	TJ013
1672.731	2.72	912131	WORD	n/a	wordpools/wordpool_EN.txt	DOCK	1	13	n/a	n/a	pyFR	2	TJ013
1675.451	2.622	913219	WORD	n/a	wordpools/wordpool_EN.txt	BEE	2	13	n/a	n/a	pyFR	2	TJ013
1678.073	2.438	914267	WORD	n/a	wordpools/wordpool_EN.txt	FLUTE	3	13	n/a	n/a	pyFR	2	TJ013
1680.511	2.538	915243	WORD	n/a	wordpools/wordpool_EN.txt	SMILE	4	13	n/a	n/a	pyFR	2	TJ013
1683.049	2.689	916258	WORD	n/a	wordpools/wordpool_EN.txt	SNAIL	5	13	n/a	n/a	pyFR	2	TJ013
1685.738	2.787	917333	WORD	n/a	wordpools/wordpool_EN.txt	MOOSE	6	13	n/a	n/a	pyFR	2	TJ013
1688.525	2.572	918448	WORD	n/a	wordpools/wordpool_EN.txt	JEEP	7	13	n/a	n/a	pyFR	2	TJ013
1691.097	2.455	919477	WORD	n/a	wordpools/wordpool_EN.txt	CARD	8	13	n/a	n/a	pyFR	2	TJ013
1693.552	2.738	920459	WORD	n/a	wordpools/wordpool_EN.txt	CLOWN	9	13	n/a	n/a	pyFR	2	TJ013
1696.29	2.805	921554	WORD	n/a	wordpools/wordpool_EN.txt	BALL	10	13	n/a	n/a	pyFR	2	TJ013
1699.095	2.505	922676	WORD	n/a	wordpools/wordpool_EN.txt	OAR	11	13	n/a	n/a	pyFR	2	TJ013
1701.6	2.521	923678	WORD	n/a	wordpools/wordpool_EN.txt	WEED	12	13	n/a	n/a	pyFR	2	TJ013
1704.121	2.721	924686	WORD	n/a	wordpools/wordpool_EN.txt	STORM	13	13	n/a	n/a	pyFR	2	TJ013
1706.842	2.757	925775	WORD	n/a	wordpools/wordpool_EN.txt	FENCE	14	13	n/a	n/a	pyFR	2	TJ013
1709.599	1.62	926877	WORD	n/a	wordpools/wordpool_EN.txt	FROG	15	13	n/a	n/a	pyFR	2	TJ013
1711.219	0.85	927525	START	n/a	n/a	n/a	n/a	13	[-999 -999 -999]	-999	pyFR	2	TJ013
1712.069	3.205	927865	PROB	n/a	n/a	n/a	n/a	13	[5 1 1]	7	pyFR	2	TJ013
1715.274	4.091	929147	PROB	n/a	n/a	n/a	n/a	13	[5 8 5]	18	pyFR	2	TJ013
1719.365	4.091	930784	PROB	n/a	n/a	n/a	n/a	13	[3 2 4]	9	pyFR	2	TJ013
1723.456	3.306	932420	PROB	n/a	n/a	n/a	n/a	13	[1 2 7]	10	pyFR	2	TJ013
1726.762	5.052	933742	PROB	n/a	n/a	n/a	n/a	13	[9 9 7]	25	pyFR	2	TJ013
1731.814	1.094	935763	STOP	n/a	n/a	n/a	n/a	13	[-999 -999 -999]	-999	pyFR	2	TJ013
1732.908	5.216	936201	REC_START	n/a	n/a	n/a	-999	-999	n/a	n/a	pyFR	2	TJ013
1738.124	1.201	938287	REC_WORD	1.201	n/a	MOOSE	-999	13	n/a	n/a	pyFR	2	TJ013
1739.325	12.803	938767	REC_WORD_VV	12.803	n/a	VV	-999	13	n/a	n/a	pyFR	2	TJ013
1752.128	0.445	943888	REC_WORD	0.445	n/a	MOOSE	-999	13	n/a	n/a	pyFR	2	TJ013
1752.573	2.424	944066	REC_WORD	2.424	n/a	VAN	-999	13	n/a	n/a	pyFR	2	TJ013
1754.997	35.584	945036	REC_WORD_VV	35.584	n/a	VV	-999	13	n/a	n/a	pyFR	2	TJ013
1790.581	0.016	959269	TRIAL	n/a	n/a	n/a	-999	-999	n/a	n/a	pyFR	2	TJ013
1790.597	2.854	959275	ORIENT	n/a	n/a	n/a	-999	-999	n/a	n/a	pyFR	2	TJ013
1793.451	2.472	960417	WORD	n/a	wordpools/wordpool_EN.txt	SHIRT	1	14	n/a	n/a	pyFR	2	TJ013
1795.923	2.621	961406	WORD	n/a	wordpools/wordpool_EN.txt	BADGE	2	14	n/a	n/a	pyFR	2	TJ013
1798.544	2.622	962454	WORD	n/a	wordpools/wordpool_EN.txt	CLOCK	3	14	n/a	n/a	pyFR	2	TJ013
1801.166	2.755	963503	WORD	n/a	wordpools/wordpool_EN.txt	BIRD	4	14	n/a	n/a	pyFR	2	TJ013
1803.921	2.521	964605	WORD	n/a	wordpools/wordpool_EN.txt	ROSE	5	14	n/a	n/a	pyFR	2	TJ013
1806.442	2.455	965613	WORD	n/a	wordpools/wordpool_EN.txt	MOUTH	6	14	n/a	n/a	pyFR	2	TJ013
1808.897	2.504	966595	WORD	n/a	wordpools/wordpool_EN.txt	WALL	7	14	n/a	n/a	pyFR	2	TJ013
1811.401	2.805	967597	WORD	n/a	wordpools/wordpool_EN.txt	FOOD	8	14	n/a	n/a	pyFR	2	TJ013
1814.206	2.605	968719	WORD	n/a	wordpools/wordpool_EN.txt	LEAF	9	14	n/a	n/a	pyFR	2	TJ013
1816.811	2.705	969761	WORD	n/a	wordpools/wordpool_EN.txt	CASH	10	14	n/a	n/a	pyFR	2	TJ013
1819.516	2.555	970843	WORD	n/a	wordpools/wordpool_EN.txt	FAN	11	14	n/a	n/a	pyFR	2	TJ013
1822.071	2.755	971865	WORD	n/a	wordpools/wordpool_EN.txt	STRING	12	14	n/a	n/a	pyFR	2	TJ013
1824.826	2.554	972967	WORD	n/a	wordpools/wordpool_EN.txt	HAT	13	14	n/a	n/a	pyFR	2	TJ013
1827.38	2.655	973988	WORD	n/a	wordpools/wordpool_EN.txt	PHONE	14	14	n/a	n/a	pyFR	2	TJ013
1830.035	1.606	975050	WORD	n/a	wordpools/wordpool_EN.txt	TAIL	15	14	n/a	n/a	pyFR	2	TJ013
1831.641	1.033	975692	START	n/a	n/a	n/a	n/a	14	[-999 -999 -999]	-999	pyFR	2	TJ013
1832.674	4.341	976106	PROB	n/a	n/a	n/a	n/a	14	[3 3 6]	12	pyFR	2	TJ013
1837.015	2.972	977842	PROB	n/a	n/a	n/a	n/a	14	[5 4 8]	17	pyFR	2	TJ013
1839.987	2.589	979031	PROB	n/a	n/a	n/a	n/a	14	[6 8 8]	22	pyFR	2	TJ013
1842.576	2.62	980066	PROB	n/a	n/a	n/a	n/a	14	[2 8 2]	12	pyFR	2	TJ013
1845.196	3.741	981114	PROB	n/a	n/a	n/a	n/a	14	[4 8 8]	20	pyFR	2	TJ013
1848.937	1.837	982611	PROB	n/a	n/a	n/a	n/a	14	[4 6 1]	11	pyFR	2	TJ013
1850.774	2.304	983345	PROB	n/a	n/a	n/a	n/a	14	[1 2 2]	5	pyFR	2	TJ013
1853.078	1.186	984267	STOP	n/a	n/a	n/a	n/a	14	[-999 -999 -999]	-999	pyFR	2	TJ013
1854.264	1.681	984741	REC_START	n/a	n/a	n/a	-999	-999	n/a	n/a	pyFR	2	TJ013
1855.945	0.28	985414	REC_WORD	0.28	n/a	ROSE	-999	14	n/a	n/a	pyFR	2	TJ013
1856.225	0.302	985526	REC_WORD	0.302	n/a	LEAF	-999	14	n/a	n/a	pyFR	2	TJ013
1856.527	1.366	985646	REC_WORD	1.366	n/a	WALL	-999	14	n/a	n/a	pyFR	2	TJ013
1857.893	1.0	986193	REC_WORD_VV	1.0	n/a	VV	-999	14	n/a	n/a	pyFR	2	TJ013
1858.893	0.006	986593	REC_WORD_VV	0.006	n/a	VV	-999	14	n/a	n/a	pyFR	2	TJ013
1858.899	1.0	986595	REC_WORD	1.0	n/a	SPOON	-999	14	n/a	n/a	pyFR	2	TJ013
1859.899	1.0	986995	REC_WORD_VV	1.0	n/a	VV	-999	14	n/a	n/a	pyFR	2	TJ013
1860.899	1.288	987395	REC_WORD_VV	1.288	n/a	VV	-999	14	n/a	n/a	pyFR	2	TJ013
1862.187	10.488	987910	REC_WORD_VV	10.488	n/a	VV	-999	14	n/a	n/a	pyFR	2	TJ013
1872.675	0.916	992105	REC_WORD	0.916	n/a	SEED	-999	14	n/a	n/a	pyFR	2	TJ013
1873.591	28.327	992472	REC_WORD_VV	28.327	n/a	VV	-999	14	n/a	n/a	pyFR	2	TJ013
1901.918	0.016	1003802	TRIAL	n/a	n/a	n/a	-999	-999	n/a	n/a	pyFR	2	TJ013
1901.934	2.855	1003809	ORIENT	n/a	n/a	n/a	-999	-999	n/a	n/a	pyFR	2	TJ013
1904.789	2.572	1004951	WORD	n/a	wordpools/wordpool_EN.txt	GEESE	1	15	n/a	n/a	pyFR	2	TJ013
1907.361	2.772	1005979	WORD	n/a	wordpools/wordpool_EN.txt	TOY	2	15	n/a	n/a	pyFR	2	TJ013
1910.133	2.621	1007088	WORD	n/a	wordpools/wordpool_EN.txt	CHIN	3	15	n/a	n/a	pyFR	2	TJ013
1912.754	2.438	1008136	WORD	n/a	wordpools/wordpool_EN.txt	DRUM	4	15	n/a	n/a	pyFR	2	TJ013
1915.192	2.588	1009112	WORD	n/a	wordpools/wordpool_EN.txt	PIG	5	15	n/a	n/a	pyFR	2	TJ013
1917.78	2.621	1010147	WORD	n/a	wordpools/wordpool_EN.txt	CAKE	6	15	n/a	n/a	pyFR	2	TJ013
1920.401	2.639	1011195	WORD	n/a	wordpools/wordpool_EN.txt	SPOON	7	15	n/a	n/a	pyFR	2	TJ013
1923.04	2.721	1012251	WORD	n/a	wordpools/wordpool_EN.txt	LAWN	8	15	n/a	n/a	pyFR	2	TJ013
1925.761	2.806	1013339	WORD	n/a	wordpools/wordpool_EN.txt	CHIEF	9	15	n/a	n/a	pyFR	2	TJ013
1928.567	2.621	1014461	WORD	n/a	wordpools/wordpool_EN.txt	CONE	10	15	n/a	n/a	pyFR	2	TJ013
1931.188	2.805	1015510	WORD	n/a	wordpools/wordpool_EN.txt	SHEET	11	15	n/a	n/a	pyFR	2	TJ013
1933.993	2.505	1016632	WORD	n/a	wordpools/wordpool_EN.txt	BREAD	12	15	n/a	n/a	pyFR	2	TJ013
1936.498	2.671	1017634	WORD	n/a	wordpools/wordpool_EN.txt	VEST	13	15	n/a	n/a	pyFR	2	TJ013
1939.169	2.755	1018702	WORD	n/a	wordpools/wordpool_EN.txt	CLAY	14	15	n/a	n/a	pyFR	2	TJ013
1941.924	1.605	1019804	WORD	n/a	wordpools/wordpool_EN.txt	MAIL	15	15	n/a	n/a	pyFR	2	TJ013
1943.529	0.95	1020446	START	n/a	n/a	n/a	n/a	15	[-999 -999 -999]	-999	pyFR	2	TJ013
1944.479	3.573	1020826	PROB	n/a	n/a	n/a	n/a	15	[3 9 2]	14	pyFR	2	TJ013
1948.052	1.937	1022255	PROB	n/a	n/a	n/a	n/a	15	[4 5 3]	12	pyFR	2	TJ013
1949.989	2.488	1023030	PROB	n/a	n/a	n/a	n/a	15	[4 1 3]	8	pyFR	2	TJ013
1952.477	4.007	1024025	PROB	n/a	n/a	n/a	n/a	15	[8 8 9]	25	pyFR	2	TJ013
1956.484	3.023	1025628	PROB	n/a	n/a	n/a	n/a	15	[8 3 4]	15	pyFR	2	TJ013
1959.507	2.671	1026837	PROB	n/a	n/a	n/a	n/a	15	[5 4 6]	15	pyFR	2	TJ013
1962.178	2.453	1027905	PROB	n/a	n/a	n/a	n/a	15	[5 5 9]	19	pyFR	2	TJ013
1964.631	1.089	1028886	STOP	n/a	n/a	n/a	n/a	15	[-999 -999 -999]	-999	pyFR	2	TJ013
1965.72	2.058	1029322	REC_START	n/a	n/a	n/a	-999	-999	n/a	n/a	pyFR	2	TJ013
1967.778	0.314	1030145	REC_WORD	0.314	n/a	LAWN	-999	15	n/a	n/a	pyFR	2	TJ013
1968.092	1.502	1030271	REC_WORD	1.502	n/a	SHEET	-999	15	n/a	n/a	pyFR	2	TJ013
1969.594	1.859	1030872	REC_WORD	1.859	n/a	CONE	-999	15	n/a	n/a	pyFR	2	TJ013
1971.453	15.853	1031615	REC_WORD_VV	15.853	n/a	VV	-999	15	n/a	n/a	pyFR	2	TJ013
1987.306	0.33	1037956	REC_WORD	0.33	n/a	LAWN	-999	15	n/a	n/a	pyFR	2	TJ013
1987.636	21.94	1038088	REC_WORD	21.94	n/a	SHEET	-999	15	n/a	n/a	pyFR	2	TJ013
2009.576	3.647	1046864	REC_WORD_VV	3.647	n/a	VV	-999	15	n/a	n/a	pyFR	2	TJ013
2013.223	0.016	1048323	TRIAL	n/a	n/a	n/a	-999	-999	n/a	n/a	pyFR	2	TJ013
2013.239	2.805	1048329	ORIENT	n/a	n/a	n/a	-999	-999	n/a	n/a	pyFR	2	TJ013
2016.044	2.421	1049451	WORD	n/a	wordpools/wordpool_EN.txt	FORK	1	16	n/a	n/a	pyFR	2	TJ013
2018.465	2.822	1050419	WORD	n/a	wordpools/wordpool_EN.txt	MAT	2	16	n/a	n/a	pyFR	2	TJ013
2021.287	2.788	1051548	WORD	n/a	wordpools/wordpool_EN.txt	BEAN	3	16	n/a	n/a	pyFR	2	TJ013
2024.075	2.438	1052663	WORD	n/a	wordpools/wordpool_EN.txt	LAMB	4	16	n/a	n/a	pyFR	2	TJ013
2026.513	2.521	1053638	WORD	n/a	wordpools/wordpool_EN.txt	SLEEVE	5	16	n/a	n/a	pyFR	2	TJ013
2029.034	2.789	1054647	WORD	n/a	wordpools/wordpool_EN.txt	TAPE	6	16	n/a	n/a	pyFR	2	TJ013
2031.823	2.554	1055762	WORD	n/a	wordpools/wordpool_EN.txt	INK	7	16	n/a	n/a	pyFR	2	TJ013
2034.377	2.639	1056784	WORD	n/a	wordpools/wordpool_EN.txt	WHEEL	8	16	n/a	n/a	pyFR	2	TJ013
2037.016	2.622	1057839	WORD	n/a	wordpools/wordpool_EN.txt	PEA	9	16	n/a	n/a	pyFR	2	TJ013
2039.638	2.587	1058888	WORD	n/a	wordpools/wordpool_EN.txt	STONE	10	16	n/a	n/a	pyFR	2	TJ013
2042.225	2.638	1059923	WORD	n/a	wordpools/wordpool_EN.txt	CROW	11	16	n/a	n/a	pyFR	2	TJ013
2044.863	2.672	1060978	WORD	n/a	wordpools/wordpool_EN.txt	COAT	12	16	n/a	n/a	pyFR	2	TJ013
2047.535	2.805	1062047	WORD	n/a	wordpools/wordpool_EN.txt	BLUSH	13	16	n/a	n/a	pyFR	2	TJ013
2050.34	2.688	1063169	WORD	n/a	wordpools/wordpool_EN.txt	TEA	14	16	n/a	n/a	pyFR	2	TJ013
2053.028	1.606	1064244	WORD	n/a	wordpools/wordpool_EN.txt	SKI	15	16	n/a	n/a	pyFR	2	TJ013
2054.634	1.034	1064886	START	n/a	n/a	n/a	n/a	16	[-999 -999 -999]	-999	pyFR	2	TJ013
2055.668	3.89	1065300	PROB	n/a	n/a	n/a	n/a	16	[4 1 2]	7	pyFR	2	TJ013
2059.558	3.539	1066856	PROB	n/a	n/a	n/a	n/a	16	[5 9 3]	17	pyFR	2	TJ013
2063.097	2.606	1068271	PROB	n/a	n/a	n/a	n/a	16	[4 5 9]	18	pyFR	2	TJ013
2065.703	2.737	1069314	PROB	n/a	n/a	n/a	n/a	16	[1 3 2]	6	pyFR	2	TJ013
2068.44	2.822	1070409	PROB	n/a	n/a	n/a	n/a	16	[9 2 5]	16	pyFR	2	TJ013
2071.262	3.512	1071537	PROB	n/a	n/a	n/a	n/a	16	[7 6 2]	15	pyFR	2	TJ013
2074.774	1.131	1072942	STOP	n/a	n/a	n/a	n/a	16	[-999 -999 -999]	-999	pyFR	2	TJ013
2075.905	5.608	1073394	REC_START	n/a	n/a	n/a	-999	-999	n/a	n/a	pyFR	2	TJ013
2081.513	0.599	1075638	REC_WORD	0.599	n/a	TOY	-999	16	n/a	n/a	pyFR	2	TJ013
2082.112	1.151	1075877	REC_WORD	1.151	n/a	COAT	-999	16	n/a	n/a	pyFR	2	TJ013
2083.263	7.051	1076338	REC_WORD_VV	7.051	n/a	VV	-999	16	n/a	n/a	pyFR	2	TJ013
2090.314	4.775	1079158	REC_WORD	4.775	n/a	SLEEVE	-999	16	n/a	n/a	pyFR	2	TJ013
2095.089	1.626	1081068	REC_WORD	1.626	n/a	PEA	-999	16	n/a	n/a	pyFR	2	TJ013
2096.715	4.038	1081718	REC_WORD	4.038	n/a	PEARL	-999	16	n/a	n/a	pyFR	2	TJ013
2100.753	588.078	1083333	REC_WORD_VV	588.078	n/a	VV	-999	16	n/a	n/a	pyFR	2	TJ013
2688.831	0.1	1318556	SESS_END	n/a	n/a	n/a	-999	-999	n/a	n/a	pyFR	2	TJ013
2688.931	0.0	1318596	E	n/a	n/a	n/a	-999	-999	n/a	n/a	pyFR	2	TJ013
