onset	duration	sample	trial_type	response_time	stim_file	item_name	serialpos	list	test	answer	experiment	session	subject
0.0	0.0	34255	SESS_START	n/a	n/a	n/a	-999	-999	n/a	n/a	pyFR	2	UP046
0.0	16.426	34255	B	n/a	n/a	n/a	-999	-999	n/a	n/a	pyFR	2	UP046
16.426	0.02	38362	START	n/a	n/a	n/a	n/a	0	[-999 -999 -999]	-999	pyFR	2	UP046
16.446	11.166	38367	PROB	11.143	n/a	n/a	n/a	0	[1 7 3]	11	pyFR	2	UP046
27.612	8.368	41158	PROB	8.346	n/a	n/a	n/a	0	[4 9 4]	17	pyFR	2	UP046
35.98	9.819	43250	PROB	9.793	n/a	n/a	n/a	0	[5 7 8]	19	pyFR	2	UP046
45.799	5.486	45705	PROB	5.486	n/a	n/a	n/a	0	[6 3 4]	13	pyFR	2	UP046
51.285	18.982	47076	STOP	n/a	n/a	n/a	n/a	0	[-999 -999 -999]	-999	pyFR	2	UP046
70.267	0.016	51822	TRIAL	n/a	n/a	n/a	-999	1	n/a	n/a	pyFR	2	UP046
70.283	2.867	51826	ORIENT	n/a	n/a	n/a	-999	1	n/a	n/a	pyFR	2	UP046
73.15	2.817	52543	WORD	n/a	wordpools/wordpool_EN.txt	ROPE	1	1	n/a	n/a	pyFR	2	UP046
75.967	2.632	53247	WORD	n/a	wordpools/wordpool_EN.txt	STICK	2	1	n/a	n/a	pyFR	2	UP046
78.599	2.768	53905	WORD	n/a	wordpools/wordpool_EN.txt	CROW	3	1	n/a	n/a	pyFR	2	UP046
81.367	2.633	54597	WORD	n/a	wordpools/wordpool_EN.txt	SLEEVE	4	1	n/a	n/a	pyFR	2	UP046
84.0	2.75	55255	WORD	n/a	wordpools/wordpool_EN.txt	HOLE	5	1	n/a	n/a	pyFR	2	UP046
86.75	2.75	55943	WORD	n/a	wordpools/wordpool_EN.txt	FOOT	6	1	n/a	n/a	pyFR	2	UP046
89.5	2.434	56630	WORD	n/a	wordpools/wordpool_EN.txt	CLIFF	7	1	n/a	n/a	pyFR	2	UP046
91.934	2.616	57239	WORD	n/a	wordpools/wordpool_EN.txt	RAKE	8	1	n/a	n/a	pyFR	2	UP046
94.55	2.451	57893	WORD	n/a	wordpools/wordpool_EN.txt	KEY	9	1	n/a	n/a	pyFR	2	UP046
97.001	2.582	58505	WORD	n/a	wordpools/wordpool_EN.txt	PEAR	10	1	n/a	n/a	pyFR	2	UP046
99.583	2.801	59151	WORD	n/a	wordpools/wordpool_EN.txt	MOON	11	1	n/a	n/a	pyFR	2	UP046
102.384	2.6	59851	WORD	n/a	wordpools/wordpool_EN.txt	LAMB	12	1	n/a	n/a	pyFR	2	UP046
104.984	2.633	60501	WORD	n/a	wordpools/wordpool_EN.txt	CLOWN	13	1	n/a	n/a	pyFR	2	UP046
107.617	2.784	61159	WORD	n/a	wordpools/wordpool_EN.txt	CROWN	14	1	n/a	n/a	pyFR	2	UP046
110.401	1.618	61855	WORD	n/a	wordpools/wordpool_EN.txt	THUMB	15	1	n/a	n/a	pyFR	2	UP046
112.019	1.13	62260	START	n/a	n/a	n/a	n/a	1	[-999 -999 -999]	-999	pyFR	2	UP046
113.149	4.368	62542	PROB	4.34	n/a	n/a	n/a	1	[3 3 5]	11	pyFR	2	UP046
117.517	19.813	63634	PROB	19.813	n/a	n/a	n/a	1	[7 9 5]	21	pyFR	2	UP046
137.33	1.228	68588	STOP	n/a	n/a	n/a	n/a	1	[-999 -999 -999]	-999	pyFR	2	UP046
138.558	7.364	68895	REC_START	n/a	n/a	n/a	-999	1	n/a	n/a	pyFR	2	UP046
145.922	2.442	70736	REC_WORD_VV	7.364	n/a	<>	-999	1	n/a	n/a	pyFR	2	UP046
148.364	19.742	71346	REC_WORD_VV	9.806	n/a	<>	-999	1	n/a	n/a	pyFR	2	UP046
168.106	29.065	76281	REC_WORD_VV	29.548	n/a	<>	-999	1	n/a	n/a	pyFR	2	UP046
197.171	0.016	83548	TRIAL	n/a	n/a	n/a	-999	2	n/a	n/a	pyFR	2	UP046
197.187	2.801	83552	ORIENT	n/a	n/a	n/a	-999	2	n/a	n/a	pyFR	2	UP046
199.988	2.75	84252	WORD	n/a	wordpools/wordpool_EN.txt	TEA	1	2	n/a	n/a	pyFR	2	UP046
202.738	2.682	84939	WORD	n/a	wordpools/wordpool_EN.txt	FOG	2	2	n/a	n/a	pyFR	2	UP046
205.42	2.684	85610	WORD	n/a	wordpools/wordpool_EN.txt	POLE	3	2	n/a	n/a	pyFR	2	UP046
208.104	2.567	86281	WORD	n/a	wordpools/wordpool_EN.txt	TOAST	4	2	n/a	n/a	pyFR	2	UP046
210.671	2.584	86923	WORD	n/a	wordpools/wordpool_EN.txt	FILM	5	2	n/a	n/a	pyFR	2	UP046
213.255	2.483	87569	WORD	n/a	wordpools/wordpool_EN.txt	BELL	6	2	n/a	n/a	pyFR	2	UP046
215.738	2.433	88189	WORD	n/a	wordpools/wordpool_EN.txt	TIE	7	2	n/a	n/a	pyFR	2	UP046
218.171	2.701	88798	WORD	n/a	wordpools/wordpool_EN.txt	DEER	8	2	n/a	n/a	pyFR	2	UP046
220.872	2.665	89473	WORD	n/a	wordpools/wordpool_EN.txt	BEACH	9	2	n/a	n/a	pyFR	2	UP046
223.537	2.568	90139	WORD	n/a	wordpools/wordpool_EN.txt	SCHOOL	10	2	n/a	n/a	pyFR	2	UP046
226.105	2.784	90781	WORD	n/a	wordpools/wordpool_EN.txt	BOX	11	2	n/a	n/a	pyFR	2	UP046
228.889	2.816	91477	WORD	n/a	wordpools/wordpool_EN.txt	CHALK	12	2	n/a	n/a	pyFR	2	UP046
231.705	2.55	92181	WORD	n/a	wordpools/wordpool_EN.txt	CANE	13	2	n/a	n/a	pyFR	2	UP046
234.255	2.534	92819	WORD	n/a	wordpools/wordpool_EN.txt	PURSE	14	2	n/a	n/a	pyFR	2	UP046
236.789	1.618	93452	WORD	n/a	wordpools/wordpool_EN.txt	STAIR	15	2	n/a	n/a	pyFR	2	UP046
238.407	0.897	93857	START	n/a	n/a	n/a	n/a	2	[-999 -999 -999]	-999	pyFR	2	UP046
239.304	6.383	94081	PROB	6.358	n/a	n/a	n/a	2	[8 6 2]	16	pyFR	2	UP046
245.687	6.967	95677	PROB	6.943	n/a	n/a	n/a	2	[8 3 9]	20	pyFR	2	UP046
252.654	30.047	97418	PROB	30.047	n/a	n/a	n/a	2	[3 7 7]	17	pyFR	2	UP046
282.701	1.057	104930	STOP	n/a	n/a	n/a	n/a	2	[-999 -999 -999]	-999	pyFR	2	UP046
283.758	13.534	105194	REC_START	n/a	n/a	n/a	-999	2	n/a	n/a	pyFR	2	UP046
297.292	2.786	108578	REC_WORD_VV	13.534	n/a	<>	-999	2	n/a	n/a	pyFR	2	UP046
300.078	2.694	109274	REC_WORD_VV	16.32	n/a	<>	-999	2	n/a	n/a	pyFR	2	UP046
302.772	12.522	109948	REC_WORD_VV	19.014	n/a	<>	-999	2	n/a	n/a	pyFR	2	UP046
315.294	4.972	113078	REC_WORD_VV	31.536	n/a	<>	-999	2	n/a	n/a	pyFR	2	UP046
320.266	2.365	114321	REC_WORD_VV	36.508	n/a	<>	-999	2	n/a	n/a	pyFR	2	UP046
322.631	3.265	114913	REC_WORD_VV	38.873	n/a	<>	-999	2	n/a	n/a	pyFR	2	UP046
325.896	49.032	115729	REC_WORD_VV	42.138	n/a	<>	-999	2	n/a	n/a	pyFR	2	UP046
374.928	1.114	127987	START	n/a	n/a	n/a	n/a	3	[-999 -999 -999]	-999	pyFR	2	UP046
376.042	9.768	128265	PROB	9.736	n/a	n/a	n/a	3	[2 9 4]	15	pyFR	2	UP046
385.81	3.082	130707	PROB	3.055	n/a	n/a	n/a	3	[9 5 5]	19	pyFR	2	UP046
388.892	5.716	131478	PROB	5.692	n/a	n/a	n/a	3	[4 5 1]	10	pyFR	2	UP046
394.608	75.238	132907	PROB	4.385	n/a	n/a	n/a	3	[3 6 3]	11	pyFR	2	UP046
469.846	0.017	151716	TRIAL	n/a	n/a	n/a	-999	3	n/a	n/a	pyFR	2	UP046
469.863	2.632	151721	ORIENT	n/a	n/a	n/a	-999	3	n/a	n/a	pyFR	2	UP046
472.495	2.817	152379	WORD	n/a	wordpools/wordpool_EN.txt	WORM	1	3	n/a	n/a	pyFR	2	UP046
475.312	2.751	153083	WORD	n/a	wordpools/wordpool_EN.txt	VINE	2	3	n/a	n/a	pyFR	2	UP046
478.063	2.482	153771	WORD	n/a	wordpools/wordpool_EN.txt	POOL	3	3	n/a	n/a	pyFR	2	UP046
480.545	2.75	154391	WORD	n/a	wordpools/wordpool_EN.txt	MOUSE	4	3	n/a	n/a	pyFR	2	UP046
483.295	2.535	155079	WORD	n/a	wordpools/wordpool_EN.txt	DITCH	5	3	n/a	n/a	pyFR	2	UP046
485.83	2.665	155712	WORD	n/a	wordpools/wordpool_EN.txt	DESK	6	3	n/a	n/a	pyFR	2	UP046
488.495	2.684	156379	WORD	n/a	wordpools/wordpool_EN.txt	CAKE	7	3	n/a	n/a	pyFR	2	UP046
491.179	2.651	157050	WORD	n/a	wordpools/wordpool_EN.txt	DOOR	8	3	n/a	n/a	pyFR	2	UP046
493.83	2.482	157712	WORD	n/a	wordpools/wordpool_EN.txt	SMOKE	9	3	n/a	n/a	pyFR	2	UP046
496.312	2.485	158333	WORD	n/a	wordpools/wordpool_EN.txt	GATE	10	3	n/a	n/a	pyFR	2	UP046
498.797	2.499	158954	WORD	n/a	wordpools/wordpool_EN.txt	PHONE	11	3	n/a	n/a	pyFR	2	UP046
501.296	2.701	159579	WORD	n/a	wordpools/wordpool_EN.txt	GRASS	12	3	n/a	n/a	pyFR	2	UP046
503.997	2.767	160254	WORD	n/a	wordpools/wordpool_EN.txt	MOOSE	13	3	n/a	n/a	pyFR	2	UP046
506.764	2.597	160946	WORD	n/a	wordpools/wordpool_EN.txt	FORT	14	3	n/a	n/a	pyFR	2	UP046
509.361	1.621	161595	WORD	n/a	wordpools/wordpool_EN.txt	BAND	15	3	n/a	n/a	pyFR	2	UP046
510.982	0.847	162000	START	n/a	n/a	n/a	n/a	4	[-999 -999 -999]	-999	pyFR	2	UP046
511.829	8.682	162212	PROB	8.654	n/a	n/a	n/a	4	[5 3 4]	12	pyFR	2	UP046
520.511	5.836	164383	PROB	5.804	n/a	n/a	n/a	4	[7 1 3]	11	pyFR	2	UP046
526.347	4.148	165842	PROB	4.112	n/a	n/a	n/a	4	[1 1 5]	7	pyFR	2	UP046
530.495	17.011	166879	PROB	17.011	n/a	n/a	n/a	4	[7 6 3]	16	pyFR	2	UP046
547.506	1.127	171131	STOP	n/a	n/a	n/a	n/a	4	[-999 -999 -999]	-999	pyFR	2	UP046
548.633	3.077	171413	REC_START	n/a	n/a	n/a	-999	3	n/a	n/a	pyFR	2	UP046
551.71	0.451	172182	REC_WORD	3.077	n/a	MOOSE	-999	3	n/a	n/a	pyFR	2	UP046
552.161	2.941	172295	REC_WORD	3.528	n/a	GRASS	-999	3	n/a	n/a	pyFR	2	UP046
555.102	12.525	173030	REC_WORD	6.469	n/a	SCHOOL	-999	3	n/a	n/a	pyFR	2	UP046
567.627	23.455	176162	REC_WORD	18.994	n/a	SMOKE	-999	3	n/a	n/a	pyFR	2	UP046
591.082	7.501	182025	REC_WORD	42.449	n/a	PEAR	-999	3	n/a	n/a	pyFR	2	UP046
598.583	0.016	183901	TRIAL	n/a	n/a	n/a	-999	4	n/a	n/a	pyFR	2	UP046
598.599	2.767	183905	ORIENT	n/a	n/a	n/a	-999	4	n/a	n/a	pyFR	2	UP046
601.366	2.618	184596	WORD	n/a	wordpools/wordpool_EN.txt	PALM	1	4	n/a	n/a	pyFR	2	UP046
603.984	2.465	185251	WORD	n/a	wordpools/wordpool_EN.txt	CRANE	2	4	n/a	n/a	pyFR	2	UP046
606.449	2.667	185867	WORD	n/a	wordpools/wordpool_EN.txt	COUCH	3	4	n/a	n/a	pyFR	2	UP046
609.116	2.484	186534	WORD	n/a	wordpools/wordpool_EN.txt	STORM	4	4	n/a	n/a	pyFR	2	UP046
611.6	2.583	187155	WORD	n/a	wordpools/wordpool_EN.txt	FENCE	5	4	n/a	n/a	pyFR	2	UP046
614.183	2.701	187801	WORD	n/a	wordpools/wordpool_EN.txt	BOOT	6	4	n/a	n/a	pyFR	2	UP046
616.884	2.566	188476	WORD	n/a	wordpools/wordpool_EN.txt	PLATE	7	4	n/a	n/a	pyFR	2	UP046
619.45	2.816	189117	WORD	n/a	wordpools/wordpool_EN.txt	OAR	8	4	n/a	n/a	pyFR	2	UP046
622.266	2.435	189821	WORD	n/a	wordpools/wordpool_EN.txt	GEESE	9	4	n/a	n/a	pyFR	2	UP046
624.701	2.549	190430	WORD	n/a	wordpools/wordpool_EN.txt	BEAK	10	4	n/a	n/a	pyFR	2	UP046
627.25	2.484	191067	WORD	n/a	wordpools/wordpool_EN.txt	RAIN	11	4	n/a	n/a	pyFR	2	UP046
629.734	2.666	191688	WORD	n/a	wordpools/wordpool_EN.txt	VEST	12	4	n/a	n/a	pyFR	2	UP046
632.4	2.584	192355	WORD	n/a	wordpools/wordpool_EN.txt	POND	13	4	n/a	n/a	pyFR	2	UP046
634.984	2.533	193001	WORD	n/a	wordpools/wordpool_EN.txt	GLOVE	14	4	n/a	n/a	pyFR	2	UP046
637.517	1.618	193634	WORD	n/a	wordpools/wordpool_EN.txt	MAP	15	4	n/a	n/a	pyFR	2	UP046
639.135	0.833	194038	START	n/a	n/a	n/a	n/a	5	[-999 -999 -999]	-999	pyFR	2	UP046
639.968	10.481	194247	PROB	10.455	n/a	n/a	n/a	5	[7 9 2]	18	pyFR	2	UP046
650.449	17.254	196867	PROB	17.254	n/a	n/a	n/a	5	[5 9 8]	22	pyFR	2	UP046
667.703	1.067	201180	STOP	n/a	n/a	n/a	n/a	5	[-999 -999 -999]	-999	pyFR	2	UP046
668.77	5.618	201447	REC_START	n/a	n/a	n/a	-999	4	n/a	n/a	pyFR	2	UP046
674.388	2.839	202852	REC_WORD	5.618	n/a	TEA	-999	4	n/a	n/a	pyFR	2	UP046
677.227	0.83	203561	REC_WORD	8.457	n/a	OAK	-999	4	n/a	n/a	pyFR	2	UP046
678.057	5.092	203769	REC_WORD	9.287	n/a	POND	-999	4	n/a	n/a	pyFR	2	UP046
683.149	34.054	205042	REC_WORD	14.379	n/a	WRAP	-999	4	n/a	n/a	pyFR	2	UP046
717.203	0.017	213555	TRIAL	n/a	n/a	n/a	-999	5	n/a	n/a	pyFR	2	UP046
717.22	2.668	213560	ORIENT	n/a	n/a	n/a	-999	5	n/a	n/a	pyFR	2	UP046
719.888	2.766	214227	WORD	n/a	wordpools/wordpool_EN.txt	HOOK	1	5	n/a	n/a	pyFR	2	UP046
722.654	2.516	214918	WORD	n/a	wordpools/wordpool_EN.txt	PEACH	2	5	n/a	n/a	pyFR	2	UP046
725.17	2.45	215547	WORD	n/a	wordpools/wordpool_EN.txt	LIP	3	5	n/a	n/a	pyFR	2	UP046
727.62	2.617	216160	WORD	n/a	wordpools/wordpool_EN.txt	DART	4	5	n/a	n/a	pyFR	2	UP046
730.237	2.601	216814	WORD	n/a	wordpools/wordpool_EN.txt	COW	5	5	n/a	n/a	pyFR	2	UP046
732.838	2.817	217464	WORD	n/a	wordpools/wordpool_EN.txt	PIG	6	5	n/a	n/a	pyFR	2	UP046
735.655	2.665	218168	WORD	n/a	wordpools/wordpool_EN.txt	PEA	7	5	n/a	n/a	pyFR	2	UP046
738.32	2.817	218835	WORD	n/a	wordpools/wordpool_EN.txt	COAT	8	5	n/a	n/a	pyFR	2	UP046
741.137	2.467	219539	WORD	n/a	wordpools/wordpool_EN.txt	TAPE	9	5	n/a	n/a	pyFR	2	UP046
743.604	2.717	220156	WORD	n/a	wordpools/wordpool_EN.txt	COIN	10	5	n/a	n/a	pyFR	2	UP046
746.321	2.734	220835	WORD	n/a	wordpools/wordpool_EN.txt	ZOO	11	5	n/a	n/a	pyFR	2	UP046
749.055	2.733	221518	WORD	n/a	wordpools/wordpool_EN.txt	WING	12	5	n/a	n/a	pyFR	2	UP046
751.788	2.766	222202	WORD	n/a	wordpools/wordpool_EN.txt	CHAIR	13	5	n/a	n/a	pyFR	2	UP046
754.554	2.634	222893	WORD	n/a	wordpools/wordpool_EN.txt	TANK	14	5	n/a	n/a	pyFR	2	UP046
757.188	1.619	223552	WORD	n/a	wordpools/wordpool_EN.txt	LEG	15	5	n/a	n/a	pyFR	2	UP046
758.807	1.03	223956	START	n/a	n/a	n/a	n/a	6	[-999 -999 -999]	-999	pyFR	2	UP046
759.837	12.333	224214	PROB	12.301	n/a	n/a	n/a	6	[8 6 7]	21	pyFR	2	UP046
772.17	4.45	227297	PROB	4.424	n/a	n/a	n/a	6	[4 6 5]	15	pyFR	2	UP046
776.62	4.654	228410	PROB	4.654	n/a	n/a	n/a	6	[1 7 3]	11	pyFR	2	UP046
781.274	1.099	229573	STOP	n/a	n/a	n/a	n/a	6	[-999 -999 -999]	-999	pyFR	2	UP046
782.373	1.211	229848	REC_START	n/a	n/a	n/a	-999	5	n/a	n/a	pyFR	2	UP046
783.584	0.402	230151	REC_WORD	1.211	n/a	HOOK	-999	5	n/a	n/a	pyFR	2	UP046
783.986	0.45	230251	REC_WORD	1.613	n/a	LIP	-999	5	n/a	n/a	pyFR	2	UP046
784.436	0.583	230364	REC_WORD	2.063	n/a	CHOKE	-999	5	n/a	n/a	pyFR	2	UP046
785.019	6.98	230509	REC_WORD	2.646	n/a	CHAIR	-999	5	n/a	n/a	pyFR	2	UP046
791.999	18.233	232254	REC_WORD	9.626	n/a	ZOO	-999	5	n/a	n/a	pyFR	2	UP046
810.232	23.61	236813	REC_WORD	27.859	n/a	DART	-999	5	n/a	n/a	pyFR	2	UP046
833.842	0.016	242715	TRIAL	n/a	n/a	n/a	-999	6	n/a	n/a	pyFR	2	UP046
833.858	2.732	242719	ORIENT	n/a	n/a	n/a	-999	6	n/a	n/a	pyFR	2	UP046
836.59	2.534	243402	WORD	n/a	wordpools/wordpool_EN.txt	MUG	1	6	n/a	n/a	pyFR	2	UP046
839.124	2.466	244036	WORD	n/a	wordpools/wordpool_EN.txt	GIRL	2	6	n/a	n/a	pyFR	2	UP046
841.59	2.617	244652	WORD	n/a	wordpools/wordpool_EN.txt	CLOCK	3	6	n/a	n/a	pyFR	2	UP046
844.207	2.535	245306	WORD	n/a	wordpools/wordpool_EN.txt	VASE	4	6	n/a	n/a	pyFR	2	UP046
846.742	2.815	245940	WORD	n/a	wordpools/wordpool_EN.txt	GOAT	5	6	n/a	n/a	pyFR	2	UP046
849.557	2.617	246644	WORD	n/a	wordpools/wordpool_EN.txt	PET	6	6	n/a	n/a	pyFR	2	UP046
852.174	2.618	247298	WORD	n/a	wordpools/wordpool_EN.txt	CALF	7	6	n/a	n/a	pyFR	2	UP046
854.792	2.716	247953	WORD	n/a	wordpools/wordpool_EN.txt	PLANE	8	6	n/a	n/a	pyFR	2	UP046
857.508	2.682	248632	WORD	n/a	wordpools/wordpool_EN.txt	HEN	9	6	n/a	n/a	pyFR	2	UP046
860.19	2.619	249302	WORD	n/a	wordpools/wordpool_EN.txt	TREE	10	6	n/a	n/a	pyFR	2	UP046
862.809	2.499	249957	WORD	n/a	wordpools/wordpool_EN.txt	BLUSH	11	6	n/a	n/a	pyFR	2	UP046
865.308	2.434	250582	WORD	n/a	wordpools/wordpool_EN.txt	ICE	12	6	n/a	n/a	pyFR	2	UP046
867.742	2.599	251190	WORD	n/a	wordpools/wordpool_EN.txt	ROOF	13	6	n/a	n/a	pyFR	2	UP046
870.341	2.585	251840	WORD	n/a	wordpools/wordpool_EN.txt	CUBE	14	6	n/a	n/a	pyFR	2	UP046
872.926	1.617	252486	WORD	n/a	wordpools/wordpool_EN.txt	QUEEN	15	6	n/a	n/a	pyFR	2	UP046
874.543	1.214	252890	START	n/a	n/a	n/a	n/a	7	[-999 -999 -999]	-999	pyFR	2	UP046
875.757	3.917	253194	PROB	3.89	n/a	n/a	n/a	7	[1 9 3]	13	pyFR	2	UP046
879.674	3.916	254173	PROB	3.892	n/a	n/a	n/a	7	[2 6 3]	11	pyFR	2	UP046
883.59	3.517	255152	PROB	3.489	n/a	n/a	n/a	7	[5 5 1]	11	pyFR	2	UP046
887.107	17.466	256031	PROB	17.466	n/a	n/a	n/a	7	[7 6 8]	21	pyFR	2	UP046
904.573	1.124	260398	STOP	n/a	n/a	n/a	n/a	7	[-999 -999 -999]	-999	pyFR	2	UP046
905.697	1.455	260679	REC_START	n/a	n/a	n/a	-999	6	n/a	n/a	pyFR	2	UP046
907.152	0.476	261043	REC_WORD	1.455	n/a	ICE	-999	6	n/a	n/a	pyFR	2	UP046
907.628	0.546	261162	REC_WORD	1.931	n/a	CUBE	-999	6	n/a	n/a	pyFR	2	UP046
908.174	0.382	261298	REC_WORD	2.477	n/a	HOOK	-999	6	n/a	n/a	pyFR	2	UP046
908.556	8.632	261394	REC_WORD	2.859	n/a	QUEEN	-999	6	n/a	n/a	pyFR	2	UP046
917.188	8.31	263552	REC_WORD_VV	11.491	n/a	<>	-999	6	n/a	n/a	pyFR	2	UP046
925.498	28.113	265629	REC_WORD	19.801	n/a	AIR	-999	6	n/a	n/a	pyFR	2	UP046
953.611	0.018	272657	TRIAL	n/a	n/a	n/a	-999	7	n/a	n/a	pyFR	2	UP046
953.629	2.766	272662	ORIENT	n/a	n/a	n/a	-999	7	n/a	n/a	pyFR	2	UP046
956.395	2.517	273353	WORD	n/a	wordpools/wordpool_EN.txt	FUR	1	7	n/a	n/a	pyFR	2	UP046
958.912	2.616	273983	WORD	n/a	wordpools/wordpool_EN.txt	SLUSH	2	7	n/a	n/a	pyFR	2	UP046
961.528	2.583	274637	WORD	n/a	wordpools/wordpool_EN.txt	SOUP	3	7	n/a	n/a	pyFR	2	UP046
964.111	2.518	275282	WORD	n/a	wordpools/wordpool_EN.txt	RICE	4	7	n/a	n/a	pyFR	2	UP046
966.629	2.516	275912	WORD	n/a	wordpools/wordpool_EN.txt	STREET	5	7	n/a	n/a	pyFR	2	UP046
969.145	2.45	276541	WORD	n/a	wordpools/wordpool_EN.txt	SUIT	6	7	n/a	n/a	pyFR	2	UP046
971.595	2.517	277153	WORD	n/a	wordpools/wordpool_EN.txt	JUDGE	7	7	n/a	n/a	pyFR	2	UP046
974.112	2.767	277783	WORD	n/a	wordpools/wordpool_EN.txt	FARM	8	7	n/a	n/a	pyFR	2	UP046
976.879	2.583	278474	WORD	n/a	wordpools/wordpool_EN.txt	SPONGE	9	7	n/a	n/a	pyFR	2	UP046
979.462	2.534	279120	WORD	n/a	wordpools/wordpool_EN.txt	TOE	10	7	n/a	n/a	pyFR	2	UP046
981.996	2.632	279754	WORD	n/a	wordpools/wordpool_EN.txt	FLUTE	11	7	n/a	n/a	pyFR	2	UP046
984.628	2.617	280412	WORD	n/a	wordpools/wordpool_EN.txt	CLOTH	12	7	n/a	n/a	pyFR	2	UP046
987.245	2.501	281066	WORD	n/a	wordpools/wordpool_EN.txt	PLANT	13	7	n/a	n/a	pyFR	2	UP046
989.746	2.75	281691	WORD	n/a	wordpools/wordpool_EN.txt	MOUTH	14	7	n/a	n/a	pyFR	2	UP046
992.496	1.618	282379	WORD	n/a	wordpools/wordpool_EN.txt	SHEET	15	7	n/a	n/a	pyFR	2	UP046
994.114	1.13	282783	START	n/a	n/a	n/a	n/a	8	[-999 -999 -999]	-999	pyFR	2	UP046
995.244	6.117	283066	PROB	6.086	n/a	n/a	n/a	8	[3 9 3]	15	pyFR	2	UP046
1001.361	4.484	284595	PROB	4.45	n/a	n/a	n/a	8	[2 3 5]	10	pyFR	2	UP046
1005.845	5.002	285716	PROB	4.974	n/a	n/a	n/a	8	[3 5 2]	10	pyFR	2	UP046
1010.847	4.036	286966	PROB	4.036	n/a	n/a	n/a	8	[4 2 4]	10	pyFR	2	UP046
1014.883	1.182	287975	STOP	n/a	n/a	n/a	n/a	8	[-999 -999 -999]	-999	pyFR	2	UP046
1016.065	1.005	288271	REC_START	n/a	n/a	n/a	-999	7	n/a	n/a	pyFR	2	UP046
1017.07	0.558	288522	REC_WORD	1.005	n/a	SUIT	-999	7	n/a	n/a	pyFR	2	UP046
1017.628	0.517	288662	REC_WORD	1.563	n/a	RIGHT	-999	7	n/a	n/a	pyFR	2	UP046
1018.145	2.48	288791	REC_WORD	2.08	n/a	STREET	-999	7	n/a	n/a	pyFR	2	UP046
1020.625	1.888	289411	REC_WORD	4.56	n/a	JUDGE	-999	7	n/a	n/a	pyFR	2	UP046
1022.513	1.157	289883	REC_WORD	6.448	n/a	QUEEN	-999	7	n/a	n/a	pyFR	2	UP046
1023.67	8.475	290172	REC_WORD	7.605	n/a	TOE	-999	7	n/a	n/a	pyFR	2	UP046
1032.145	35.287	292291	REC_WORD	16.08	n/a	RAIN	-999	7	n/a	n/a	pyFR	2	UP046
1067.432	0.016	301113	TRIAL	n/a	n/a	n/a	-999	8	n/a	n/a	pyFR	2	UP046
1067.448	2.917	301117	ORIENT	n/a	n/a	n/a	-999	8	n/a	n/a	pyFR	2	UP046
1070.365	2.733	301846	WORD	n/a	wordpools/wordpool_EN.txt	MAIL	1	8	n/a	n/a	pyFR	2	UP046
1073.098	2.718	302529	WORD	n/a	wordpools/wordpool_EN.txt	LAKE	2	8	n/a	n/a	pyFR	2	UP046
1075.816	2.616	303208	WORD	n/a	wordpools/wordpool_EN.txt	TOOTH	3	8	n/a	n/a	pyFR	2	UP046
1078.432	2.733	303862	WORD	n/a	wordpools/wordpool_EN.txt	STRAW	4	8	n/a	n/a	pyFR	2	UP046
1081.165	2.551	304546	WORD	n/a	wordpools/wordpool_EN.txt	BALL	5	8	n/a	n/a	pyFR	2	UP046
1083.716	2.499	305183	WORD	n/a	wordpools/wordpool_EN.txt	DOLL	6	8	n/a	n/a	pyFR	2	UP046
1086.215	2.535	305808	WORD	n/a	wordpools/wordpool_EN.txt	SPRING	7	8	n/a	n/a	pyFR	2	UP046
1088.75	2.432	306442	WORD	n/a	wordpools/wordpool_EN.txt	RAT	8	8	n/a	n/a	pyFR	2	UP046
1091.182	2.535	307050	WORD	n/a	wordpools/wordpool_EN.txt	SOCK	9	8	n/a	n/a	pyFR	2	UP046
1093.717	2.682	307684	WORD	n/a	wordpools/wordpool_EN.txt	STOOL	10	8	n/a	n/a	pyFR	2	UP046
1096.399	2.767	308354	WORD	n/a	wordpools/wordpool_EN.txt	WALL	11	8	n/a	n/a	pyFR	2	UP046
1099.166	2.801	309046	WORD	n/a	wordpools/wordpool_EN.txt	STONE	12	8	n/a	n/a	pyFR	2	UP046
1101.967	2.783	309746	WORD	n/a	wordpools/wordpool_EN.txt	JEEP	13	8	n/a	n/a	pyFR	2	UP046
1104.75	2.499	310442	WORD	n/a	wordpools/wordpool_EN.txt	SAIL	14	8	n/a	n/a	pyFR	2	UP046
1107.249	1.62	311067	WORD	n/a	wordpools/wordpool_EN.txt	ROCK	15	8	n/a	n/a	pyFR	2	UP046
1108.869	1.196	311472	START	n/a	n/a	n/a	n/a	9	[-999 -999 -999]	-999	pyFR	2	UP046
1110.065	13.068	311771	PROB	13.03	n/a	n/a	n/a	9	[2 7 6]	17	pyFR	2	UP046
1123.133	6.305	315038	PROB	6.305	n/a	n/a	n/a	9	[9 7 3]	19	pyFR	2	UP046
1129.438	1.231	316614	STOP	n/a	n/a	n/a	n/a	9	[-999 -999 -999]	-999	pyFR	2	UP046
1130.669	2.882	316922	REC_START	n/a	n/a	n/a	-999	8	n/a	n/a	pyFR	2	UP046
1133.551	1.066	317642	REC_WORD	2.882	n/a	MAT	-999	8	n/a	n/a	pyFR	2	UP046
1134.617	0.751	317909	REC_WORD	3.948	n/a	MAP	-999	8	n/a	n/a	pyFR	2	UP046
1135.368	2.203	318096	REC_WORD	4.699	n/a	ROPE	-999	8	n/a	n/a	pyFR	2	UP046
1137.571	1.874	318647	REC_WORD	6.902	n/a	SUIT	-999	8	n/a	n/a	pyFR	2	UP046
1139.445	3.532	319116	REC_WORD	8.776	n/a	STREET	-999	8	n/a	n/a	pyFR	2	UP046
1142.977	35.793	319999	REC_WORD	12.308	n/a	TOE	-999	8	n/a	n/a	pyFR	2	UP046
1178.77	0.016	328947	TRIAL	n/a	n/a	n/a	-999	9	n/a	n/a	pyFR	2	UP046
1178.786	3.017	328951	ORIENT	n/a	n/a	n/a	-999	9	n/a	n/a	pyFR	2	UP046
1181.803	2.816	329705	WORD	n/a	wordpools/wordpool_EN.txt	MUD	1	9	n/a	n/a	pyFR	2	UP046
1184.619	2.75	330409	WORD	n/a	wordpools/wordpool_EN.txt	EGG	2	9	n/a	n/a	pyFR	2	UP046
1187.369	2.8	331097	WORD	n/a	wordpools/wordpool_EN.txt	PIPE	3	9	n/a	n/a	pyFR	2	UP046
1190.169	2.467	331797	WORD	n/a	wordpools/wordpool_EN.txt	HOUSE	4	9	n/a	n/a	pyFR	2	UP046
1192.636	2.732	332413	WORD	n/a	wordpools/wordpool_EN.txt	BEE	5	9	n/a	n/a	pyFR	2	UP046
1195.368	2.834	333096	WORD	n/a	wordpools/wordpool_EN.txt	GUARD	6	9	n/a	n/a	pyFR	2	UP046
1198.202	2.435	333805	WORD	n/a	wordpools/wordpool_EN.txt	LEAF	7	9	n/a	n/a	pyFR	2	UP046
1200.637	2.549	334414	WORD	n/a	wordpools/wordpool_EN.txt	HORSE	8	9	n/a	n/a	pyFR	2	UP046
1203.186	2.484	335051	WORD	n/a	wordpools/wordpool_EN.txt	SHRIMP	9	9	n/a	n/a	pyFR	2	UP046
1205.67	2.583	335672	WORD	n/a	wordpools/wordpool_EN.txt	MAZE	10	9	n/a	n/a	pyFR	2	UP046
1208.253	2.768	336318	WORD	n/a	wordpools/wordpool_EN.txt	BRIDGE	11	9	n/a	n/a	pyFR	2	UP046
1211.021	2.716	337010	WORD	n/a	wordpools/wordpool_EN.txt	ROOM	12	9	n/a	n/a	pyFR	2	UP046
1213.737	2.716	337689	WORD	n/a	wordpools/wordpool_EN.txt	KITE	13	9	n/a	n/a	pyFR	2	UP046
1216.453	2.833	338368	WORD	n/a	wordpools/wordpool_EN.txt	ROAD	14	9	n/a	n/a	pyFR	2	UP046
1219.286	1.62	339076	WORD	n/a	wordpools/wordpool_EN.txt	WAVE	15	9	n/a	n/a	pyFR	2	UP046
1220.906	1.113	339481	START	n/a	n/a	n/a	n/a	10	[-999 -999 -999]	-999	pyFR	2	UP046
1222.019	4.201	339759	PROB	4.167	n/a	n/a	n/a	10	[2 4 8]	14	pyFR	2	UP046
1226.22	7.382	340809	PROB	7.358	n/a	n/a	n/a	10	[6 3 5]	14	pyFR	2	UP046
1233.602	10.169	342655	PROB	10.169	n/a	n/a	n/a	10	[7 3 2]	12	pyFR	2	UP046
1243.771	1.053	345197	STOP	n/a	n/a	n/a	n/a	10	[-999 -999 -999]	-999	pyFR	2	UP046
1244.824	1.369	345460	REC_START	n/a	n/a	n/a	-999	9	n/a	n/a	pyFR	2	UP046
1246.193	0.616	345803	REC_WORD	1.369	n/a	MUD	-999	9	n/a	n/a	pyFR	2	UP046
1246.809	0.676	345957	REC_WORD	1.985	n/a	EGG	-999	9	n/a	n/a	pyFR	2	UP046
1247.485	0.646	346126	REC_WORD	2.661	n/a	PIPE	-999	9	n/a	n/a	pyFR	2	UP046
1248.131	1.702	346287	REC_WORD	3.307	n/a	WAVE	-999	9	n/a	n/a	pyFR	2	UP046
1249.833	1.208	346713	REC_WORD	5.009	n/a	ROPE	-999	9	n/a	n/a	pyFR	2	UP046
1251.041	41.531	347015	REC_WORD	6.217	n/a	STREET	-999	9	n/a	n/a	pyFR	2	UP046
1292.572	0.017	357397	TRIAL	n/a	n/a	n/a	-999	10	n/a	n/a	pyFR	2	UP046
1292.589	3.017	357402	ORIENT	n/a	n/a	n/a	-999	10	n/a	n/a	pyFR	2	UP046
1295.606	2.566	358156	WORD	n/a	wordpools/wordpool_EN.txt	CLOUD	1	10	n/a	n/a	pyFR	2	UP046
1298.172	2.468	358797	WORD	n/a	wordpools/wordpool_EN.txt	TEETH	2	10	n/a	n/a	pyFR	2	UP046
1300.64	2.783	359414	WORD	n/a	wordpools/wordpool_EN.txt	CORD	3	10	n/a	n/a	pyFR	2	UP046
1303.423	2.567	360110	WORD	n/a	wordpools/wordpool_EN.txt	BADGE	4	10	n/a	n/a	pyFR	2	UP046
1305.99	2.65	360752	WORD	n/a	wordpools/wordpool_EN.txt	BUSH	5	10	n/a	n/a	pyFR	2	UP046
1308.64	2.466	361414	WORD	n/a	wordpools/wordpool_EN.txt	BANK	6	10	n/a	n/a	pyFR	2	UP046
1311.106	2.684	362031	WORD	n/a	wordpools/wordpool_EN.txt	FOOD	7	10	n/a	n/a	pyFR	2	UP046
1313.79	2.733	362702	WORD	n/a	wordpools/wordpool_EN.txt	JET	8	10	n/a	n/a	pyFR	2	UP046
1316.523	2.518	363385	WORD	n/a	wordpools/wordpool_EN.txt	HAWK	9	10	n/a	n/a	pyFR	2	UP046
1319.041	2.449	364015	WORD	n/a	wordpools/wordpool_EN.txt	SQUARE	10	10	n/a	n/a	pyFR	2	UP046
1321.49	2.65	364627	WORD	n/a	wordpools/wordpool_EN.txt	WHALE	11	10	n/a	n/a	pyFR	2	UP046
1324.14	2.501	365289	WORD	n/a	wordpools/wordpool_EN.txt	EEL	12	10	n/a	n/a	pyFR	2	UP046
1326.641	2.766	365915	WORD	n/a	wordpools/wordpool_EN.txt	SHARK	13	10	n/a	n/a	pyFR	2	UP046
1329.407	2.783	366606	WORD	n/a	wordpools/wordpool_EN.txt	LOCK	14	10	n/a	n/a	pyFR	2	UP046
1332.19	1.62	367302	WORD	n/a	wordpools/wordpool_EN.txt	JAIL	15	10	n/a	n/a	pyFR	2	UP046
1333.81	0.846	367707	START	n/a	n/a	n/a	n/a	11	[-999 -999 -999]	-999	pyFR	2	UP046
1334.656	11.034	367918	PROB	10.999	n/a	n/a	n/a	11	[2 9 4]	15	pyFR	2	UP046
1345.69	9.932	370677	PROB	9.932	n/a	n/a	n/a	11	[5 1 1]	7	pyFR	2	UP046
1355.622	1.188	373160	STOP	n/a	n/a	n/a	n/a	11	[-999 -999 -999]	-999	pyFR	2	UP046
1356.81	8.355	373457	REC_START	n/a	n/a	n/a	-999	10	n/a	n/a	pyFR	2	UP046
1365.165	0.632	375546	REC_WORD	8.355	n/a	JET	-999	10	n/a	n/a	pyFR	2	UP046
1365.797	0.472	375704	REC_WORD	8.987	n/a	EGG	-999	10	n/a	n/a	pyFR	2	UP046
1366.269	0.588	375822	REC_WORD	9.459	n/a	HAWK	-999	10	n/a	n/a	pyFR	2	UP046
1366.857	16.928	375969	REC_WORD	10.047	n/a	WHEEL	-999	10	n/a	n/a	pyFR	2	UP046
1383.785	9.02	380201	REC_WORD	26.975	n/a	STREET	-999	10	n/a	n/a	pyFR	2	UP046
1392.805	13.521	382456	REC_WORD	35.995	n/a	EEL	-999	10	n/a	n/a	pyFR	2	UP046
1406.326	0.017	385836	TRIAL	n/a	n/a	n/a	-999	11	n/a	n/a	pyFR	2	UP046
1406.343	2.966	385840	ORIENT	n/a	n/a	n/a	-999	11	n/a	n/a	pyFR	2	UP046
1409.309	2.451	386582	WORD	n/a	wordpools/wordpool_EN.txt	FAN	1	11	n/a	n/a	pyFR	2	UP046
1411.76	2.533	387194	WORD	n/a	wordpools/wordpool_EN.txt	FACE	2	11	n/a	n/a	pyFR	2	UP046
1414.293	2.618	387828	WORD	n/a	wordpools/wordpool_EN.txt	HAND	3	11	n/a	n/a	pyFR	2	UP046
1416.911	2.582	388482	WORD	n/a	wordpools/wordpool_EN.txt	SEED	4	11	n/a	n/a	pyFR	2	UP046
1419.493	2.551	389128	WORD	n/a	wordpools/wordpool_EN.txt	WORLD	5	11	n/a	n/a	pyFR	2	UP046
1422.044	2.566	389765	WORD	n/a	wordpools/wordpool_EN.txt	BRICK	6	11	n/a	n/a	pyFR	2	UP046
1424.61	2.6	390407	WORD	n/a	wordpools/wordpool_EN.txt	CUP	7	11	n/a	n/a	pyFR	2	UP046
1427.21	2.768	391057	WORD	n/a	wordpools/wordpool_EN.txt	SOAP	8	11	n/a	n/a	pyFR	2	UP046
1429.978	2.532	391749	WORD	n/a	wordpools/wordpool_EN.txt	TRAIN	9	11	n/a	n/a	pyFR	2	UP046
1432.51	2.716	392382	WORD	n/a	wordpools/wordpool_EN.txt	FLEA	10	11	n/a	n/a	pyFR	2	UP046
1435.226	2.519	393061	WORD	n/a	wordpools/wordpool_EN.txt	GRAPE	11	11	n/a	n/a	pyFR	2	UP046
1437.745	2.515	393691	WORD	n/a	wordpools/wordpool_EN.txt	FLAME	12	11	n/a	n/a	pyFR	2	UP046
1440.26	2.535	394319	WORD	n/a	wordpools/wordpool_EN.txt	CONE	13	11	n/a	n/a	pyFR	2	UP046
1442.795	2.499	394953	WORD	n/a	wordpools/wordpool_EN.txt	TENT	14	11	n/a	n/a	pyFR	2	UP046
1445.294	1.619	395578	WORD	n/a	wordpools/wordpool_EN.txt	TOY	15	11	n/a	n/a	pyFR	2	UP046
1446.913	1.13	395983	START	n/a	n/a	n/a	n/a	12	[-999 -999 -999]	-999	pyFR	2	UP046
1448.043	8.617	396265	PROB	8.584	n/a	n/a	n/a	12	[6 3 3]	12	pyFR	2	UP046
1456.66	4.119	398419	PROB	4.095	n/a	n/a	n/a	12	[8 6 9]	23	pyFR	2	UP046
1460.779	26.75	399449	PROB	26.75	n/a	n/a	n/a	12	[7 2 5]	14	pyFR	2	UP046
1487.529	1.084	406137	STOP	n/a	n/a	n/a	n/a	12	[-999 -999 -999]	-999	pyFR	2	UP046
1488.613	2.142	406408	REC_START	n/a	n/a	n/a	-999	11	n/a	n/a	pyFR	2	UP046
1490.755	0.847	406943	REC_WORD	2.142	n/a	FLEA	-999	11	n/a	n/a	pyFR	2	UP046
1491.602	4.173	407155	REC_WORD	2.989	n/a	EGG	-999	11	n/a	n/a	pyFR	2	UP046
1495.775	4.975	408198	REC_WORD	7.162	n/a	FLAME	-999	11	n/a	n/a	pyFR	2	UP046
1500.75	9.224	409442	REC_WORD	12.137	n/a	BRICK	-999	11	n/a	n/a	pyFR	2	UP046
1509.974	11.893	411748	REC_WORD	21.361	n/a	TOY	-999	11	n/a	n/a	pyFR	2	UP046
1521.867	17.898	414721	REC_WORD_VV	33.254	n/a	<>	-999	11	n/a	n/a	pyFR	2	UP046
1539.765	0.017	419195	TRIAL	n/a	n/a	n/a	-999	12	n/a	n/a	pyFR	2	UP046
1539.782	2.699	419200	ORIENT	n/a	n/a	n/a	-999	12	n/a	n/a	pyFR	2	UP046
1542.481	2.601	419874	WORD	n/a	wordpools/wordpool_EN.txt	WOLF	1	12	n/a	n/a	pyFR	2	UP046
1545.082	2.633	420525	WORD	n/a	wordpools/wordpool_EN.txt	STEAK	2	12	n/a	n/a	pyFR	2	UP046
1547.715	2.749	421183	WORD	n/a	wordpools/wordpool_EN.txt	PIE	3	12	n/a	n/a	pyFR	2	UP046
1550.464	2.75	421870	WORD	n/a	wordpools/wordpool_EN.txt	DOCK	4	12	n/a	n/a	pyFR	2	UP046
1553.214	2.551	422558	WORD	n/a	wordpools/wordpool_EN.txt	FLAG	5	12	n/a	n/a	pyFR	2	UP046
1555.765	2.583	423195	WORD	n/a	wordpools/wordpool_EN.txt	TOAD	6	12	n/a	n/a	pyFR	2	UP046
1558.348	2.75	423841	WORD	n/a	wordpools/wordpool_EN.txt	TOOL	7	12	n/a	n/a	pyFR	2	UP046
1561.098	2.534	424529	WORD	n/a	wordpools/wordpool_EN.txt	TRASH	8	12	n/a	n/a	pyFR	2	UP046
1563.632	2.666	425162	WORD	n/a	wordpools/wordpool_EN.txt	MAT	9	12	n/a	n/a	pyFR	2	UP046
1566.298	2.484	425829	WORD	n/a	wordpools/wordpool_EN.txt	WEB	10	12	n/a	n/a	pyFR	2	UP046
1568.782	2.45	426450	WORD	n/a	wordpools/wordpool_EN.txt	STORE	11	12	n/a	n/a	pyFR	2	UP046
1571.232	2.584	427062	WORD	n/a	wordpools/wordpool_EN.txt	HEART	12	12	n/a	n/a	pyFR	2	UP046
1573.816	2.833	427708	WORD	n/a	wordpools/wordpool_EN.txt	BLOOM	13	12	n/a	n/a	pyFR	2	UP046
1576.649	2.731	428416	WORD	n/a	wordpools/wordpool_EN.txt	NET	14	12	n/a	n/a	pyFR	2	UP046
1579.38	1.621	429099	WORD	n/a	wordpools/wordpool_EN.txt	MILK	15	12	n/a	n/a	pyFR	2	UP046
1581.001	0.863	429504	START	n/a	n/a	n/a	n/a	13	[-999 -999 -999]	-999	pyFR	2	UP046
1581.864	5.5	429720	PROB	5.462	n/a	n/a	n/a	13	[3 1 7]	11	pyFR	2	UP046
1587.364	13.586	431095	PROB	13.554	n/a	n/a	n/a	13	[8 4 4]	16	pyFR	2	UP046
1600.95	4.335	434492	PROB	4.335	n/a	n/a	n/a	13	[9 3 9]	21	pyFR	2	UP046
1605.285	1.15	435575	STOP	n/a	n/a	n/a	n/a	13	[-999 -999 -999]	-999	pyFR	2	UP046
1606.435	2.791	435863	REC_START	n/a	n/a	n/a	-999	12	n/a	n/a	pyFR	2	UP046
1609.226	0.583	436561	REC_WORD	2.791	n/a	HEART	-999	12	n/a	n/a	pyFR	2	UP046
1609.809	3.389	436706	REC_WORD	3.374	n/a	WOOL	-999	12	n/a	n/a	pyFR	2	UP046
1613.198	9.425	437554	REC_WORD	6.763	n/a	DECK	-999	12	n/a	n/a	pyFR	2	UP046
1622.623	35.578	439910	REC_WORD	16.188	n/a	REP	-999	12	n/a	n/a	pyFR	2	UP046
1658.201	0.017	448804	TRIAL	n/a	n/a	n/a	-999	13	n/a	n/a	pyFR	2	UP046
1658.218	2.917	448809	ORIENT	n/a	n/a	n/a	-999	13	n/a	n/a	pyFR	2	UP046
1661.135	2.801	449538	WORD	n/a	wordpools/wordpool_EN.txt	BAT	1	13	n/a	n/a	pyFR	2	UP046
1663.936	2.649	450238	WORD	n/a	wordpools/wordpool_EN.txt	STOVE	2	13	n/a	n/a	pyFR	2	UP046
1666.585	2.484	450900	WORD	n/a	wordpools/wordpool_EN.txt	MOTH	3	13	n/a	n/a	pyFR	2	UP046
1669.069	2.817	451521	WORD	n/a	wordpools/wordpool_EN.txt	AXE	4	13	n/a	n/a	pyFR	2	UP046
1671.886	2.632	452226	WORD	n/a	wordpools/wordpool_EN.txt	CLAY	5	13	n/a	n/a	pyFR	2	UP046
1674.518	2.501	452884	WORD	n/a	wordpools/wordpool_EN.txt	PEN	6	13	n/a	n/a	pyFR	2	UP046
1677.019	2.566	453509	WORD	n/a	wordpools/wordpool_EN.txt	HORN	7	13	n/a	n/a	pyFR	2	UP046
1679.585	2.451	454150	WORD	n/a	wordpools/wordpool_EN.txt	FLOOR	8	13	n/a	n/a	pyFR	2	UP046
1682.036	2.717	454763	WORD	n/a	wordpools/wordpool_EN.txt	SKY	9	13	n/a	n/a	pyFR	2	UP046
1684.753	2.766	455442	WORD	n/a	wordpools/wordpool_EN.txt	DOG	10	13	n/a	n/a	pyFR	2	UP046
1687.519	2.782	456134	WORD	n/a	wordpools/wordpool_EN.txt	THREAD	11	13	n/a	n/a	pyFR	2	UP046
1690.301	2.586	456829	WORD	n/a	wordpools/wordpool_EN.txt	HILL	12	13	n/a	n/a	pyFR	2	UP046
1692.887	2.766	457476	WORD	n/a	wordpools/wordpool_EN.txt	NAIL	13	13	n/a	n/a	pyFR	2	UP046
1695.653	2.699	458167	WORD	n/a	wordpools/wordpool_EN.txt	VAN	14	13	n/a	n/a	pyFR	2	UP046
1698.352	1.62	458842	WORD	n/a	wordpools/wordpool_EN.txt	TRUCK	15	13	n/a	n/a	pyFR	2	UP046
1699.972	1.129	459247	START	n/a	n/a	n/a	n/a	14	[-999 -999 -999]	-999	pyFR	2	UP046
1701.101	3.719	459529	PROB	3.694	n/a	n/a	n/a	14	[5 1 5]	11	pyFR	2	UP046
1704.82	4.314	460459	PROB	4.286	n/a	n/a	n/a	14	[1 9 7]	17	pyFR	2	UP046
1709.134	14.115	461538	PROB	14.115	n/a	n/a	n/a	14	[2 7 6]	15	pyFR	2	UP046
1723.249	1.09	465066	STOP	n/a	n/a	n/a	n/a	14	[-999 -999 -999]	-999	pyFR	2	UP046
1724.339	2.317	465339	REC_START	n/a	n/a	n/a	-999	13	n/a	n/a	pyFR	2	UP046
1726.656	0.468	465918	REC_WORD	2.317	n/a	BAT	-999	13	n/a	n/a	pyFR	2	UP046
1727.124	0.593	466035	REC_WORD	2.785	n/a	MOTH	-999	13	n/a	n/a	pyFR	2	UP046
1727.717	0.668	466183	REC_WORD	3.378	n/a	AXE	-999	13	n/a	n/a	pyFR	2	UP046
1728.385	0.851	466350	REC_WORD	4.046	n/a	PEN	-999	13	n/a	n/a	pyFR	2	UP046
1729.236	4.676	466563	REC_WORD	4.897	n/a	PAN	-999	13	n/a	n/a	pyFR	2	UP046
1733.912	41.327	467732	REC_WORD	9.573	n/a	STREET	-999	13	n/a	n/a	pyFR	2	UP046
1775.239	0.016	478064	TRIAL	n/a	n/a	n/a	-999	14	n/a	n/a	pyFR	2	UP046
1775.255	2.834	478068	ORIENT	n/a	n/a	n/a	-999	14	n/a	n/a	pyFR	2	UP046
1778.089	2.584	478776	WORD	n/a	wordpools/wordpool_EN.txt	ROOT	1	14	n/a	n/a	pyFR	2	UP046
1780.673	2.432	479422	WORD	n/a	wordpools/wordpool_EN.txt	BAG	2	14	n/a	n/a	pyFR	2	UP046
1783.105	2.434	480030	WORD	n/a	wordpools/wordpool_EN.txt	BRANCH	3	14	n/a	n/a	pyFR	2	UP046
1785.539	2.65	480639	WORD	n/a	wordpools/wordpool_EN.txt	YARD	4	14	n/a	n/a	pyFR	2	UP046
1788.189	2.668	481301	WORD	n/a	wordpools/wordpool_EN.txt	CASH	5	14	n/a	n/a	pyFR	2	UP046
1790.857	2.765	481968	WORD	n/a	wordpools/wordpool_EN.txt	APE	6	14	n/a	n/a	pyFR	2	UP046
1793.622	2.734	482660	WORD	n/a	wordpools/wordpool_EN.txt	DRUM	7	14	n/a	n/a	pyFR	2	UP046
1796.356	2.601	483343	WORD	n/a	wordpools/wordpool_EN.txt	SUN	8	14	n/a	n/a	pyFR	2	UP046
1798.957	2.733	483993	WORD	n/a	wordpools/wordpool_EN.txt	NOSE	9	14	n/a	n/a	pyFR	2	UP046
1801.69	2.483	484677	WORD	n/a	wordpools/wordpool_EN.txt	ELF	10	14	n/a	n/a	pyFR	2	UP046
1804.173	2.767	485297	WORD	n/a	wordpools/wordpool_EN.txt	STEAM	11	14	n/a	n/a	pyFR	2	UP046
1806.94	2.734	485989	WORD	n/a	wordpools/wordpool_EN.txt	SEAT	12	14	n/a	n/a	pyFR	2	UP046
1809.674	2.649	486673	WORD	n/a	wordpools/wordpool_EN.txt	SHIP	13	14	n/a	n/a	pyFR	2	UP046
1812.323	2.798	487335	WORD	n/a	wordpools/wordpool_EN.txt	SWORD	14	14	n/a	n/a	pyFR	2	UP046
1815.121	1.621	488034	WORD	n/a	wordpools/wordpool_EN.txt	TAIL	15	14	n/a	n/a	pyFR	2	UP046
1816.742	0.846	488440	START	n/a	n/a	n/a	n/a	15	[-999 -999 -999]	-999	pyFR	2	UP046
1817.588	4.253	488651	PROB	4.219	n/a	n/a	n/a	15	[8 2 2]	12	pyFR	2	UP046
1821.841	12.281	489714	PROB	12.253	n/a	n/a	n/a	15	[3 5 9]	17	pyFR	2	UP046
1834.122	5.628	492785	PROB	5.628	n/a	n/a	n/a	15	[6 8 9]	23	pyFR	2	UP046
1839.75	1.159	494192	STOP	n/a	n/a	n/a	n/a	15	[-999 -999 -999]	-999	pyFR	2	UP046
1840.909	11.379	494481	REC_START	n/a	n/a	n/a	-999	14	n/a	n/a	pyFR	2	UP046
1852.288	3.024	497326	REC_WORD	11.379	n/a	BRICK	-999	14	n/a	n/a	pyFR	2	UP046
1855.312	5.627	498082	REC_WORD	14.403	n/a	SAIL	-999	14	n/a	n/a	pyFR	2	UP046
1860.939	28.553	499489	REC_WORD	20.03	n/a	TAIL	-999	14	n/a	n/a	pyFR	2	UP046
1889.492	0.017	506627	TRIAL	n/a	n/a	n/a	-999	15	n/a	n/a	pyFR	2	UP046
1889.509	2.75	506631	ORIENT	n/a	n/a	n/a	-999	15	n/a	n/a	pyFR	2	UP046
1892.259	2.701	507319	WORD	n/a	wordpools/wordpool_EN.txt	SWAMP	1	15	n/a	n/a	pyFR	2	UP046
1894.96	2.717	507994	WORD	n/a	wordpools/wordpool_EN.txt	PRINCE	2	15	n/a	n/a	pyFR	2	UP046
1897.677	2.649	508673	WORD	n/a	wordpools/wordpool_EN.txt	SNAKE	3	15	n/a	n/a	pyFR	2	UP046
1900.326	2.798	509336	WORD	n/a	wordpools/wordpool_EN.txt	DRESS	4	15	n/a	n/a	pyFR	2	UP046
1903.124	2.452	510035	WORD	n/a	wordpools/wordpool_EN.txt	HOSE	5	15	n/a	n/a	pyFR	2	UP046
1905.576	2.65	510648	WORD	n/a	wordpools/wordpool_EN.txt	SKUNK	6	15	n/a	n/a	pyFR	2	UP046
1908.226	2.784	511311	WORD	n/a	wordpools/wordpool_EN.txt	DAD	7	15	n/a	n/a	pyFR	2	UP046
1911.01	2.433	512007	WORD	n/a	wordpools/wordpool_EN.txt	SNOW	8	15	n/a	n/a	pyFR	2	UP046
1913.443	2.501	512615	WORD	n/a	wordpools/wordpool_EN.txt	PIT	9	15	n/a	n/a	pyFR	2	UP046
1915.944	2.783	513240	WORD	n/a	wordpools/wordpool_EN.txt	PIN	10	15	n/a	n/a	pyFR	2	UP046
1918.727	2.533	513936	WORD	n/a	wordpools/wordpool_EN.txt	SEA	11	15	n/a	n/a	pyFR	2	UP046
1921.26	2.783	514569	WORD	n/a	wordpools/wordpool_EN.txt	JAR	12	15	n/a	n/a	pyFR	2	UP046
1924.043	2.75	515265	WORD	n/a	wordpools/wordpool_EN.txt	SHOE	13	15	n/a	n/a	pyFR	2	UP046
1926.793	2.534	515952	WORD	n/a	wordpools/wordpool_EN.txt	CART	14	15	n/a	n/a	pyFR	2	UP046
1929.327	1.619	516586	WORD	n/a	wordpools/wordpool_EN.txt	MOLE	15	15	n/a	n/a	pyFR	2	UP046
1930.946	1.08	516991	START	n/a	n/a	n/a	n/a	16	[-999 -999 -999]	-999	pyFR	2	UP046
1932.026	17.216	517261	PROB	17.183	n/a	n/a	n/a	16	[8 1 6]	15	pyFR	2	UP046
1949.242	4.52	521565	PROB	4.52	n/a	n/a	n/a	16	[1 2 9]	12	pyFR	2	UP046
1953.762	1.201	522695	STOP	n/a	n/a	n/a	n/a	16	[-999 -999 -999]	-999	pyFR	2	UP046
1954.963	1.332	522995	REC_START	n/a	n/a	n/a	-999	15	n/a	n/a	pyFR	2	UP046
1956.295	0.41	523328	REC_WORD	1.332	n/a	DAD	-999	15	n/a	n/a	pyFR	2	UP046
1956.705	0.773	523430	REC_WORD	1.742	n/a	SNOW	-999	15	n/a	n/a	pyFR	2	UP046
1957.478	0.49	523624	REC_WORD	2.515	n/a	PIT	-999	15	n/a	n/a	pyFR	2	UP046
1957.968	0.593	523746	REC_WORD	3.005	n/a	PEN	-999	15	n/a	n/a	pyFR	2	UP046
1958.561	2.344	523894	REC_WORD	3.598	n/a	MOLE	-999	15	n/a	n/a	pyFR	2	UP046
1960.905	5.677	524480	REC_WORD	5.942	n/a	SNAIL	-999	15	n/a	n/a	pyFR	2	UP046
1966.582	37.315	525900	REC_WORD	11.619	n/a	BRICK	-999	15	n/a	n/a	pyFR	2	UP046
2003.897	0.017	535228	TRIAL	n/a	n/a	n/a	-999	16	n/a	n/a	pyFR	2	UP046
2003.914	2.699	535232	ORIENT	n/a	n/a	n/a	-999	16	n/a	n/a	pyFR	2	UP046
2006.613	2.566	535907	WORD	n/a	wordpools/wordpool_EN.txt	TRAY	1	16	n/a	n/a	pyFR	2	UP046
2009.179	2.668	536549	WORD	n/a	wordpools/wordpool_EN.txt	SPEAR	2	16	n/a	n/a	pyFR	2	UP046
2011.847	2.499	537216	WORD	n/a	wordpools/wordpool_EN.txt	JUICE	3	16	n/a	n/a	pyFR	2	UP046
2014.346	2.716	537840	WORD	n/a	wordpools/wordpool_EN.txt	SINK	4	16	n/a	n/a	pyFR	2	UP046
2017.062	2.635	538519	WORD	n/a	wordpools/wordpool_EN.txt	CORN	5	16	n/a	n/a	pyFR	2	UP046
2019.697	2.483	539178	WORD	n/a	wordpools/wordpool_EN.txt	RIB	6	16	n/a	n/a	pyFR	2	UP046
2022.18	2.818	539799	WORD	n/a	wordpools/wordpool_EN.txt	PANTS	7	16	n/a	n/a	pyFR	2	UP046
2024.998	2.565	540503	WORD	n/a	wordpools/wordpool_EN.txt	LAMP	8	16	n/a	n/a	pyFR	2	UP046
2027.563	2.6	541145	WORD	n/a	wordpools/wordpool_EN.txt	STRING	9	16	n/a	n/a	pyFR	2	UP046
2030.163	2.785	541795	WORD	n/a	wordpools/wordpool_EN.txt	CAR	10	16	n/a	n/a	pyFR	2	UP046
2032.948	2.431	542491	WORD	n/a	wordpools/wordpool_EN.txt	ROSE	11	16	n/a	n/a	pyFR	2	UP046
2035.379	2.602	543099	WORD	n/a	wordpools/wordpool_EN.txt	WAND	12	16	n/a	n/a	pyFR	2	UP046
2037.981	2.616	543749	WORD	n/a	wordpools/wordpool_EN.txt	BATH	13	16	n/a	n/a	pyFR	2	UP046
2040.597	2.7	544403	WORD	n/a	wordpools/wordpool_EN.txt	FORK	14	16	n/a	n/a	pyFR	2	UP046
2043.297	1.62	545078	WORD	n/a	wordpools/wordpool_EN.txt	WEED	15	16	n/a	n/a	pyFR	2	UP046
2044.917	1.063	545483	START	n/a	n/a	n/a	n/a	17	[-999 -999 -999]	-999	pyFR	2	UP046
2045.98	6.0	545749	PROB	5.97	n/a	n/a	n/a	17	[7 7 2]	16	pyFR	2	UP046
2051.98	7.75	547249	PROB	7.714	n/a	n/a	n/a	17	[9 8 4]	21	pyFR	2	UP046
2059.73	18.9	549186	PROB	18.9	n/a	n/a	n/a	17	[2 9 5]	16	pyFR	2	UP046
2078.63	1.104	553911	STOP	n/a	n/a	n/a	n/a	17	[-999 -999 -999]	-999	pyFR	2	UP046
2079.734	0.868	554187	REC_START	n/a	n/a	n/a	-999	16	n/a	n/a	pyFR	2	UP046
2080.602	0.557	554404	REC_WORD	0.868	n/a	CAR	-999	16	n/a	n/a	pyFR	2	UP046
2081.159	0.565	554544	REC_WORD	1.425	n/a	ROSE	-999	16	n/a	n/a	pyFR	2	UP046
2081.724	0.551	554685	REC_WORD	1.99	n/a	WAND	-999	16	n/a	n/a	pyFR	2	UP046
2082.275	0.62	554823	REC_WORD	2.541	n/a	BATH	-999	16	n/a	n/a	pyFR	2	UP046
2082.895	0.561	554978	REC_WORD	3.161	n/a	WEED	-999	16	n/a	n/a	pyFR	2	UP046
2083.456	598.565	555118	REC_WORD	3.722	n/a	HOOK	-999	16	n/a	n/a	pyFR	2	UP046
2682.021	0.08	704759	SESS_END	n/a	n/a	n/a	-999	16	n/a	n/a	pyFR	2	UP046
2682.101	0.0	704779	E	n/a	n/a	n/a	-999	16	n/a	n/a	pyFR	2	UP046
