onset	duration	sample	trial_type	response_time	stim_file	item_name	serialpos	list	test	answer	experiment	session	subject
0.0	0.0	224684	SESS_START	n/a	n/a	n/a	-999	-999	n/a	n/a	pyFR	0	TJ001
0.0	45.448	224684	B	n/a	n/a	n/a	-999	-999	n/a	n/a	pyFR	0	TJ001
45.448	0.05	242861	START	n/a	n/a	n/a	n/a	0	[-999 -999 -999]	-999	pyFR	0	TJ001
45.498	4.014	242881	PROB	n/a	n/a	n/a	n/a	0	[1 4 2]	7	pyFR	0	TJ001
49.512	5.219	244487	PROB	n/a	n/a	n/a	n/a	0	[1 2 3]	6	pyFR	0	TJ001
54.731	3.997	246575	PROB	n/a	n/a	n/a	n/a	0	[5 5 3]	13	pyFR	0	TJ001
58.728	3.412	248173	PROB	n/a	n/a	n/a	n/a	0	[8 3 4]	15	pyFR	0	TJ001
62.14	3.797	249538	PROB	n/a	n/a	n/a	n/a	0	[3 2 9]	14	pyFR	0	TJ001
65.937	2.894	251057	PROB	n/a	n/a	n/a	n/a	0	[8 9 9]	27	pyFR	0	TJ001
68.831	3.613	252215	PROB	n/a	n/a	n/a	n/a	0	[1 9 1]	11	pyFR	0	TJ001
72.444	2.942	253660	PROB	n/a	n/a	n/a	n/a	0	[3 6 6]	15	pyFR	0	TJ001
75.386	2.379	254837	PROB	n/a	n/a	n/a	n/a	0	[4 7 2]	13	pyFR	0	TJ001
77.765	64.627	255788	STOP	n/a	n/a	n/a	n/a	0	[-999 -999 -999]	-999	pyFR	0	TJ001
142.392	0.016	281641	TRIAL	n/a	n/a	n/a	-999	-999	n/a	n/a	pyFR	0	TJ001
142.408	2.911	281648	ORIENT	n/a	n/a	n/a	-999	-999	n/a	n/a	pyFR	0	TJ001
145.319	2.443	282812	WORD	n/a	wordpools/wordpool_EN.txt	SAIL	1	1	n/a	n/a	pyFR	0	TJ001
147.762	2.625	283789	WORD	n/a	wordpools/wordpool_EN.txt	VAN	2	1	n/a	n/a	pyFR	0	TJ001
150.387	2.794	284839	WORD	n/a	wordpools/wordpool_EN.txt	FOOD	3	1	n/a	n/a	pyFR	0	TJ001
153.181	2.794	285957	WORD	n/a	wordpools/wordpool_EN.txt	FISH	4	1	n/a	n/a	pyFR	0	TJ001
155.975	2.743	287074	WORD	n/a	wordpools/wordpool_EN.txt	TOOL	5	1	n/a	n/a	pyFR	0	TJ001
158.718	2.475	288172	WORD	n/a	wordpools/wordpool_EN.txt	ANT	6	1	n/a	n/a	pyFR	0	TJ001
161.193	2.559	289162	WORD	n/a	wordpools/wordpool_EN.txt	PEACH	7	1	n/a	n/a	pyFR	0	TJ001
163.752	2.492	290185	WORD	n/a	wordpools/wordpool_EN.txt	SNAIL	8	1	n/a	n/a	pyFR	0	TJ001
166.244	2.643	291182	WORD	n/a	wordpools/wordpool_EN.txt	SUIT	9	1	n/a	n/a	pyFR	0	TJ001
168.887	2.559	292239	WORD	n/a	wordpools/wordpool_EN.txt	MOUSE	10	1	n/a	n/a	pyFR	0	TJ001
171.446	2.643	293263	WORD	n/a	wordpools/wordpool_EN.txt	BOOT	11	1	n/a	n/a	pyFR	0	TJ001
174.089	2.76	294320	WORD	n/a	wordpools/wordpool_EN.txt	TENT	12	1	n/a	n/a	pyFR	0	TJ001
176.849	2.458	295424	WORD	n/a	wordpools/wordpool_EN.txt	SLEEVE	13	1	n/a	n/a	pyFR	0	TJ001
179.307	2.66	296407	WORD	n/a	wordpools/wordpool_EN.txt	SCHOOL	14	1	n/a	n/a	pyFR	0	TJ001
181.967	1.609	297471	WORD	n/a	wordpools/wordpool_EN.txt	CANE	15	1	n/a	n/a	pyFR	0	TJ001
183.576	0.933	298113	START	n/a	n/a	n/a	n/a	1	[-999 -999 -999]	-999	pyFR	0	TJ001
184.509	3.546	298486	PROB	n/a	n/a	n/a	n/a	1	[5 6 6]	17	pyFR	0	TJ001
188.055	8.43	299905	PROB	n/a	n/a	n/a	n/a	1	[6 9 6]	21	pyFR	0	TJ001
196.485	3.145	303277	PROB	n/a	n/a	n/a	n/a	1	[5 3 7]	15	pyFR	0	TJ001
199.63	1.772	304535	PROB	n/a	n/a	n/a	n/a	1	[9 1 4]	14	pyFR	0	TJ001
201.402	3.27	305244	PROB	n/a	n/a	n/a	n/a	1	[1 4 7]	12	pyFR	0	TJ001
204.672	1.065	306552	STOP	n/a	n/a	n/a	n/a	1	[-999 -999 -999]	-999	pyFR	0	TJ001
205.737	1.153	306979	REC_START	n/a	n/a	n/a	-999	-999	n/a	n/a	pyFR	0	TJ001
206.89	1.042	307441	REC_WORD	1.042	n/a	SAIL	-999	1	n/a	n/a	pyFR	0	TJ001
207.932	0.676	307857	REC_WORD	0.676	n/a	ANT	-999	1	n/a	n/a	pyFR	0	TJ001
208.608	2.034	308128	REC_WORD	2.034	n/a	SUIT	-999	1	n/a	n/a	pyFR	0	TJ001
210.642	1.297	308941	REC_WORD	1.297	n/a	TOOL	-999	1	n/a	n/a	pyFR	0	TJ001
211.939	2.533	309460	REC_WORD	2.533	n/a	BOOT	-999	1	n/a	n/a	pyFR	0	TJ001
214.472	2.099	310473	REC_WORD	2.099	n/a	MOUSE	-999	1	n/a	n/a	pyFR	0	TJ001
216.571	44.93	311313	REC_WORD	44.93	n/a	TOOL	-999	1	n/a	n/a	pyFR	0	TJ001
261.501	0.016	329285	TRIAL	n/a	n/a	n/a	-999	-999	n/a	n/a	pyFR	0	TJ001
261.517	2.776	329291	ORIENT	n/a	n/a	n/a	-999	-999	n/a	n/a	pyFR	0	TJ001
264.293	2.744	330402	WORD	n/a	wordpools/wordpool_EN.txt	VINE	1	2	n/a	n/a	pyFR	0	TJ001
267.037	2.509	331499	WORD	n/a	wordpools/wordpool_EN.txt	RICE	2	2	n/a	n/a	pyFR	0	TJ001
269.546	2.575	332503	WORD	n/a	wordpools/wordpool_EN.txt	VEST	3	2	n/a	n/a	pyFR	0	TJ001
272.121	2.76	333533	WORD	n/a	wordpools/wordpool_EN.txt	WAVE	4	2	n/a	n/a	pyFR	0	TJ001
274.881	2.76	334637	WORD	n/a	wordpools/wordpool_EN.txt	NEST	5	2	n/a	n/a	pyFR	0	TJ001
277.641	2.81	335741	WORD	n/a	wordpools/wordpool_EN.txt	DOCK	6	2	n/a	n/a	pyFR	0	TJ001
280.451	2.76	336865	WORD	n/a	wordpools/wordpool_EN.txt	WOLF	7	2	n/a	n/a	pyFR	0	TJ001
283.211	2.459	337969	WORD	n/a	wordpools/wordpool_EN.txt	FOOT	8	2	n/a	n/a	pyFR	0	TJ001
285.67	2.81	338953	WORD	n/a	wordpools/wordpool_EN.txt	MUD	9	2	n/a	n/a	pyFR	0	TJ001
288.48	2.709	340077	WORD	n/a	wordpools/wordpool_EN.txt	WEED	10	2	n/a	n/a	pyFR	0	TJ001
291.189	2.693	341160	WORD	n/a	wordpools/wordpool_EN.txt	FACE	11	2	n/a	n/a	pyFR	0	TJ001
293.882	2.61	342238	WORD	n/a	wordpools/wordpool_EN.txt	CORN	12	2	n/a	n/a	pyFR	0	TJ001
296.492	2.642	343282	WORD	n/a	wordpools/wordpool_EN.txt	RAIN	13	2	n/a	n/a	pyFR	0	TJ001
299.134	2.794	344338	WORD	n/a	wordpools/wordpool_EN.txt	PET	14	2	n/a	n/a	pyFR	0	TJ001
301.928	1.609	345456	WORD	n/a	wordpools/wordpool_EN.txt	PALM	15	2	n/a	n/a	pyFR	0	TJ001
303.537	1.134	346098	START	n/a	n/a	n/a	n/a	2	[-999 -999 -999]	-999	pyFR	0	TJ001
304.671	4.499	346551	PROB	n/a	n/a	n/a	n/a	2	[6 7 8]	22	pyFR	0	TJ001
309.17	2.927	348351	PROB	n/a	n/a	n/a	n/a	2	[9 7 9]	26	pyFR	0	TJ001
312.097	3.647	349522	PROB	n/a	n/a	n/a	n/a	2	[7 5 3]	15	pyFR	0	TJ001
315.744	2.174	350981	PROB	n/a	n/a	n/a	n/a	2	[9 5 1]	15	pyFR	0	TJ001
317.918	3.178	351850	PROB	n/a	n/a	n/a	n/a	2	[1 7 8]	16	pyFR	0	TJ001
321.096	2.631	353121	PROB	n/a	n/a	n/a	n/a	2	[3 7 7]	17	pyFR	0	TJ001
323.727	1.067	354174	STOP	n/a	n/a	n/a	n/a	2	[-999 -999 -999]	-999	pyFR	0	TJ001
324.794	1.906	354602	REC_START	n/a	n/a	n/a	-999	-999	n/a	n/a	pyFR	0	TJ001
326.7	1.002	355365	REC_WORD	1.002	n/a	VINE	-999	2	n/a	n/a	pyFR	0	TJ001
327.702	18.438	355766	REC_WORD	18.438	n/a	REST	-999	2	n/a	n/a	pyFR	0	TJ001
346.14	6.554	363141	REC_WORD	6.554	n/a	NEST	-999	2	n/a	n/a	pyFR	0	TJ001
352.694	8.996	365762	REC_WORD	8.996	n/a	WEED	-999	2	n/a	n/a	pyFR	0	TJ001
361.69	6.759	369361	REC_WORD	6.759	n/a	MUD	-999	2	n/a	n/a	pyFR	0	TJ001
368.449	5.101	372064	REC_WORD	5.101	n/a	PET	-999	2	n/a	n/a	pyFR	0	TJ001
373.55	0.016	374105	TRIAL	n/a	n/a	n/a	-999	-999	n/a	n/a	pyFR	0	TJ001
373.566	2.927	374111	ORIENT	n/a	n/a	n/a	-999	-999	n/a	n/a	pyFR	0	TJ001
376.493	2.442	375282	WORD	n/a	wordpools/wordpool_EN.txt	SNAKE	1	3	n/a	n/a	pyFR	0	TJ001
378.935	2.458	376259	WORD	n/a	wordpools/wordpool_EN.txt	PEN	2	3	n/a	n/a	pyFR	0	TJ001
381.393	2.661	377242	WORD	n/a	wordpools/wordpool_EN.txt	FUR	3	3	n/a	n/a	pyFR	0	TJ001
384.054	2.475	378307	WORD	n/a	wordpools/wordpool_EN.txt	WHALE	4	3	n/a	n/a	pyFR	0	TJ001
386.529	2.576	379297	WORD	n/a	wordpools/wordpool_EN.txt	GUARD	5	3	n/a	n/a	pyFR	0	TJ001
389.105	2.526	380327	WORD	n/a	wordpools/wordpool_EN.txt	CONE	6	3	n/a	n/a	pyFR	0	TJ001
391.631	2.792	381337	WORD	n/a	wordpools/wordpool_EN.txt	SNOW	7	3	n/a	n/a	pyFR	0	TJ001
394.423	2.727	382454	WORD	n/a	wordpools/wordpool_EN.txt	BEAN	8	3	n/a	n/a	pyFR	0	TJ001
397.15	2.76	383545	WORD	n/a	wordpools/wordpool_EN.txt	WOOD	9	3	n/a	n/a	pyFR	0	TJ001
399.91	2.424	384649	WORD	n/a	wordpools/wordpool_EN.txt	BRIDGE	10	3	n/a	n/a	pyFR	0	TJ001
402.334	2.46	385619	WORD	n/a	wordpools/wordpool_EN.txt	BROOM	11	3	n/a	n/a	pyFR	0	TJ001
404.794	2.743	386603	WORD	n/a	wordpools/wordpool_EN.txt	SHIRT	12	3	n/a	n/a	pyFR	0	TJ001
407.537	2.676	387700	WORD	n/a	wordpools/wordpool_EN.txt	EGG	13	3	n/a	n/a	pyFR	0	TJ001
410.213	2.509	388770	WORD	n/a	wordpools/wordpool_EN.txt	WALL	14	3	n/a	n/a	pyFR	0	TJ001
412.722	1.609	389774	WORD	n/a	wordpools/wordpool_EN.txt	CHALK	15	3	n/a	n/a	pyFR	0	TJ001
414.331	1.201	390416	START	n/a	n/a	n/a	n/a	3	[-999 -999 -999]	-999	pyFR	0	TJ001
415.532	6.323	390896	PROB	n/a	n/a	n/a	n/a	3	[6 5 7]	19	pyFR	0	TJ001
421.855	3.813	393425	PROB	n/a	n/a	n/a	n/a	3	[6 5 9]	20	pyFR	0	TJ001
425.668	3.513	394951	PROB	n/a	n/a	n/a	n/a	3	[1 9 9]	19	pyFR	0	TJ001
429.181	1.84	396356	PROB	n/a	n/a	n/a	n/a	3	[4 6 3]	13	pyFR	0	TJ001
431.021	1.823	397092	PROB	n/a	n/a	n/a	n/a	3	[9 1 4]	14	pyFR	0	TJ001
432.844	4.201	397821	PROB	n/a	n/a	n/a	n/a	3	[6 2 9]	17	pyFR	0	TJ001
437.045	1.103	399501	STOP	n/a	n/a	n/a	n/a	3	[-999 -999 -999]	-999	pyFR	0	TJ001
438.148	3.275	399944	REC_START	n/a	n/a	n/a	-999	-999	n/a	n/a	pyFR	0	TJ001
441.423	0.876	401254	REC_WORD	0.876	n/a	GUARD	-999	3	n/a	n/a	pyFR	0	TJ001
442.299	2.009	401605	REC_WORD	2.009	n/a	SNAKE	-999	3	n/a	n/a	pyFR	0	TJ001
444.308	1.316	402408	REC_WORD	1.316	n/a	PEN	-999	3	n/a	n/a	pyFR	0	TJ001
445.624	25.892	402935	REC_WORD	25.892	n/a	FUR	-999	3	n/a	n/a	pyFR	0	TJ001
471.516	0.994	413292	REC_WORD	0.994	n/a	BRIDGE	-999	3	n/a	n/a	pyFR	0	TJ001
472.51	14.26	413689	REC_WORD	14.26	n/a	BROOM	-999	3	n/a	n/a	pyFR	0	TJ001
486.77	0.016	419393	TRIAL	n/a	n/a	n/a	-999	-999	n/a	n/a	pyFR	0	TJ001
486.786	3.011	419400	ORIENT	n/a	n/a	n/a	-999	-999	n/a	n/a	pyFR	0	TJ001
489.797	2.491	420604	WORD	n/a	wordpools/wordpool_EN.txt	COUCH	1	4	n/a	n/a	pyFR	0	TJ001
492.288	2.46	421600	WORD	n/a	wordpools/wordpool_EN.txt	WORLD	2	4	n/a	n/a	pyFR	0	TJ001
494.748	2.776	422584	WORD	n/a	wordpools/wordpool_EN.txt	VASE	3	4	n/a	n/a	pyFR	0	TJ001
497.524	2.559	423695	WORD	n/a	wordpools/wordpool_EN.txt	ROOT	4	4	n/a	n/a	pyFR	0	TJ001
500.083	2.61	424718	WORD	n/a	wordpools/wordpool_EN.txt	BEAR	5	4	n/a	n/a	pyFR	0	TJ001
502.693	2.425	425762	WORD	n/a	wordpools/wordpool_EN.txt	CAPE	6	4	n/a	n/a	pyFR	0	TJ001
505.118	2.476	426732	WORD	n/a	wordpools/wordpool_EN.txt	PIG	7	4	n/a	n/a	pyFR	0	TJ001
507.594	2.659	427723	WORD	n/a	wordpools/wordpool_EN.txt	SHRIMP	8	4	n/a	n/a	pyFR	0	TJ001
510.253	2.81	428786	WORD	n/a	wordpools/wordpool_EN.txt	FLEA	9	4	n/a	n/a	pyFR	0	TJ001
513.063	2.542	429910	WORD	n/a	wordpools/wordpool_EN.txt	GLASS	10	4	n/a	n/a	pyFR	0	TJ001
515.605	2.593	430927	WORD	n/a	wordpools/wordpool_EN.txt	BOOK	11	4	n/a	n/a	pyFR	0	TJ001
518.198	2.425	431964	WORD	n/a	wordpools/wordpool_EN.txt	STEAK	12	4	n/a	n/a	pyFR	0	TJ001
520.623	2.559	432934	WORD	n/a	wordpools/wordpool_EN.txt	SKI	13	4	n/a	n/a	pyFR	0	TJ001
523.182	2.543	433958	WORD	n/a	wordpools/wordpool_EN.txt	MAP	14	4	n/a	n/a	pyFR	0	TJ001
525.725	1.608	434975	WORD	n/a	wordpools/wordpool_EN.txt	SLIME	15	4	n/a	n/a	pyFR	0	TJ001
527.333	1.034	435617	START	n/a	n/a	n/a	n/a	4	[-999 -999 -999]	-999	pyFR	0	TJ001
528.367	3.178	436031	PROB	n/a	n/a	n/a	n/a	4	[8 8 8]	24	pyFR	0	TJ001
531.545	4.065	437302	PROB	n/a	n/a	n/a	n/a	4	[4 4 2]	10	pyFR	0	TJ001
535.61	2.208	438928	PROB	n/a	n/a	n/a	n/a	4	[6 4 7]	17	pyFR	0	TJ001
537.818	2.575	439811	PROB	n/a	n/a	n/a	n/a	4	[3 5 3]	11	pyFR	0	TJ001
540.393	3.68	440841	PROB	n/a	n/a	n/a	n/a	4	[2 4 9]	13	pyFR	0	TJ001
544.073	2.241	442313	PROB	n/a	n/a	n/a	n/a	4	[2 9 1]	12	pyFR	0	TJ001
546.314	3.378	443209	PROB	n/a	n/a	n/a	n/a	4	[3 8 6]	17	pyFR	0	TJ001
549.692	1.207	444561	STOP	n/a	n/a	n/a	n/a	4	[-999 -999 -999]	-999	pyFR	0	TJ001
550.899	3.333	445045	REC_START	n/a	n/a	n/a	-999	-999	n/a	n/a	pyFR	0	TJ001
554.232	2.198	446378	REC_WORD	2.198	n/a	COUCH	-999	4	n/a	n/a	pyFR	0	TJ001
556.43	1.651	447257	REC_WORD	1.651	n/a	SLIME	-999	4	n/a	n/a	pyFR	0	TJ001
558.081	41.725	447918	REC_WORD	41.725	n/a	BEAR	-999	4	n/a	n/a	pyFR	0	TJ001
599.806	0.016	464608	TRIAL	n/a	n/a	n/a	-999	-999	n/a	n/a	pyFR	0	TJ001
599.822	2.76	464614	ORIENT	n/a	n/a	n/a	-999	-999	n/a	n/a	pyFR	0	TJ001
602.582	2.759	465718	WORD	n/a	wordpools/wordpool_EN.txt	NOSE	1	5	n/a	n/a	pyFR	0	TJ001
605.341	2.61	466822	WORD	n/a	wordpools/wordpool_EN.txt	ELF	2	5	n/a	n/a	pyFR	0	TJ001
607.951	2.676	467866	WORD	n/a	wordpools/wordpool_EN.txt	RAKE	3	5	n/a	n/a	pyFR	0	TJ001
610.627	2.742	468936	WORD	n/a	wordpools/wordpool_EN.txt	SPOON	4	5	n/a	n/a	pyFR	0	TJ001
613.369	2.627	470033	WORD	n/a	wordpools/wordpool_EN.txt	FILM	5	5	n/a	n/a	pyFR	0	TJ001
615.996	2.676	471084	WORD	n/a	wordpools/wordpool_EN.txt	HOOF	6	5	n/a	n/a	pyFR	0	TJ001
618.672	2.709	472154	WORD	n/a	wordpools/wordpool_EN.txt	SHELL	7	5	n/a	n/a	pyFR	0	TJ001
621.381	2.61	473238	WORD	n/a	wordpools/wordpool_EN.txt	HAWK	8	5	n/a	n/a	pyFR	0	TJ001
623.991	2.626	474282	WORD	n/a	wordpools/wordpool_EN.txt	TRUCK	9	5	n/a	n/a	pyFR	0	TJ001
626.617	2.66	475332	WORD	n/a	wordpools/wordpool_EN.txt	BOWL	10	5	n/a	n/a	pyFR	0	TJ001
629.277	2.509	476396	WORD	n/a	wordpools/wordpool_EN.txt	DRUM	11	5	n/a	n/a	pyFR	0	TJ001
631.786	2.71	477400	WORD	n/a	wordpools/wordpool_EN.txt	LEG	12	5	n/a	n/a	pyFR	0	TJ001
634.496	2.442	478484	WORD	n/a	wordpools/wordpool_EN.txt	BENCH	13	5	n/a	n/a	pyFR	0	TJ001
636.938	2.525	479461	WORD	n/a	wordpools/wordpool_EN.txt	BREAD	14	5	n/a	n/a	pyFR	0	TJ001
639.463	1.609	480471	WORD	n/a	wordpools/wordpool_EN.txt	LAMP	15	5	n/a	n/a	pyFR	0	TJ001
641.072	1.201	481113	START	n/a	n/a	n/a	n/a	5	[-999 -999 -999]	-999	pyFR	0	TJ001
642.273	3.027	481593	PROB	n/a	n/a	n/a	n/a	5	[1 9 2]	12	pyFR	0	TJ001
645.3	2.393	482804	PROB	n/a	n/a	n/a	n/a	5	[1 8 9]	18	pyFR	0	TJ001
647.693	2.09	483761	PROB	n/a	n/a	n/a	n/a	5	[5 7 5]	17	pyFR	0	TJ001
649.783	3.396	484597	PROB	n/a	n/a	n/a	n/a	5	[1 3 5]	9	pyFR	0	TJ001
653.179	2.074	485956	PROB	n/a	n/a	n/a	n/a	5	[1 1 2]	4	pyFR	0	TJ001
655.253	4.147	486785	PROB	n/a	n/a	n/a	n/a	5	[6 6 8]	20	pyFR	0	TJ001
659.4	4.019	488444	PROB	n/a	n/a	n/a	n/a	5	[7 9 4]	20	pyFR	0	TJ001
663.419	1.185	490052	STOP	n/a	n/a	n/a	n/a	5	[-999 -999 -999]	-999	pyFR	0	TJ001
664.604	1.124	490527	REC_START	n/a	n/a	n/a	-999	-999	n/a	n/a	pyFR	0	TJ001
665.728	1.268	490977	REC_WORD	1.268	n/a	TRUCK	-999	5	n/a	n/a	pyFR	0	TJ001
666.996	2.778	491484	REC_WORD	2.778	n/a	BOWL	-999	5	n/a	n/a	pyFR	0	TJ001
669.774	1.104	492595	REC_WORD	1.104	n/a	LAMP	-999	5	n/a	n/a	pyFR	0	TJ001
670.878	49.892	493037	REC_WORD	49.892	n/a	BREAD	-999	5	n/a	n/a	pyFR	0	TJ001
720.77	0.016	512994	TRIAL	n/a	n/a	n/a	-999	-999	n/a	n/a	pyFR	0	TJ001
720.786	2.961	513000	ORIENT	n/a	n/a	n/a	-999	-999	n/a	n/a	pyFR	0	TJ001
723.747	2.693	514184	WORD	n/a	wordpools/wordpool_EN.txt	CLOWN	1	6	n/a	n/a	pyFR	0	TJ001
726.44	2.492	515262	WORD	n/a	wordpools/wordpool_EN.txt	BIRD	2	6	n/a	n/a	pyFR	0	TJ001
728.932	2.626	516258	WORD	n/a	wordpools/wordpool_EN.txt	STRING	3	6	n/a	n/a	pyFR	0	TJ001
731.558	2.592	517309	WORD	n/a	wordpools/wordpool_EN.txt	SHIELD	4	6	n/a	n/a	pyFR	0	TJ001
734.15	2.543	518346	WORD	n/a	wordpools/wordpool_EN.txt	WORM	5	6	n/a	n/a	pyFR	0	TJ001
736.693	2.642	519363	WORD	n/a	wordpools/wordpool_EN.txt	LAND	6	6	n/a	n/a	pyFR	0	TJ001
739.335	2.576	520420	WORD	n/a	wordpools/wordpool_EN.txt	CAGE	7	6	n/a	n/a	pyFR	0	TJ001
741.911	2.441	521450	WORD	n/a	wordpools/wordpool_EN.txt	EEL	8	6	n/a	n/a	pyFR	0	TJ001
744.352	2.795	522426	WORD	n/a	wordpools/wordpool_EN.txt	DOLL	9	6	n/a	n/a	pyFR	0	TJ001
747.147	2.81	523544	WORD	n/a	wordpools/wordpool_EN.txt	ROPE	10	6	n/a	n/a	pyFR	0	TJ001
749.957	2.709	524669	WORD	n/a	wordpools/wordpool_EN.txt	PEA	11	6	n/a	n/a	pyFR	0	TJ001
752.666	2.625	525752	WORD	n/a	wordpools/wordpool_EN.txt	GLOVE	12	6	n/a	n/a	pyFR	0	TJ001
755.291	2.678	526802	WORD	n/a	wordpools/wordpool_EN.txt	POND	13	6	n/a	n/a	pyFR	0	TJ001
757.969	2.475	527873	WORD	n/a	wordpools/wordpool_EN.txt	CAR	14	6	n/a	n/a	pyFR	0	TJ001
760.444	1.609	528863	WORD	n/a	wordpools/wordpool_EN.txt	SHARK	15	6	n/a	n/a	pyFR	0	TJ001
762.053	1.0	529506	START	n/a	n/a	n/a	n/a	6	[-999 -999 -999]	-999	pyFR	0	TJ001
763.053	3.68	529906	PROB	n/a	n/a	n/a	n/a	6	[9 6 9]	24	pyFR	0	TJ001
766.733	4.499	531378	PROB	n/a	n/a	n/a	n/a	6	[8 7 9]	24	pyFR	0	TJ001
771.232	3.094	533177	PROB	n/a	n/a	n/a	n/a	6	[6 9 5]	20	pyFR	0	TJ001
774.326	3.179	534415	PROB	n/a	n/a	n/a	n/a	6	[7 1 4]	12	pyFR	0	TJ001
777.505	2.76	535686	PROB	n/a	n/a	n/a	n/a	6	[3 5 3]	11	pyFR	0	TJ001
780.265	3.799	536790	PROB	n/a	n/a	n/a	n/a	6	[8 5 7]	20	pyFR	0	TJ001
784.064	1.136	538310	STOP	n/a	n/a	n/a	n/a	6	[-999 -999 -999]	-999	pyFR	0	TJ001
785.2	5.965	538766	REC_START	n/a	n/a	n/a	-999	-999	n/a	n/a	pyFR	0	TJ001
791.165	1.068	541152	REC_WORD	1.068	n/a	ELF	-999	6	n/a	n/a	pyFR	0	TJ001
792.233	41.288	541579	REC_WORD	41.288	n/a	EEL	-999	6	n/a	n/a	pyFR	0	TJ001
833.521	0.017	558094	TRIAL	n/a	n/a	n/a	-999	-999	n/a	n/a	pyFR	0	TJ001
833.538	2.743	558101	ORIENT	n/a	n/a	n/a	-999	-999	n/a	n/a	pyFR	0	TJ001
836.281	2.442	559198	WORD	n/a	wordpools/wordpool_EN.txt	BADGE	1	7	n/a	n/a	pyFR	0	TJ001
838.723	2.442	560175	WORD	n/a	wordpools/wordpool_EN.txt	FOAM	2	7	n/a	n/a	pyFR	0	TJ001
841.165	2.726	561152	WORD	n/a	wordpools/wordpool_EN.txt	STOOL	3	7	n/a	n/a	pyFR	0	TJ001
843.891	2.643	562242	WORD	n/a	wordpools/wordpool_EN.txt	CHIN	4	7	n/a	n/a	pyFR	0	TJ001
846.534	2.743	563300	WORD	n/a	wordpools/wordpool_EN.txt	HOOK	5	7	n/a	n/a	pyFR	0	TJ001
849.277	2.593	564397	WORD	n/a	wordpools/wordpool_EN.txt	BEACH	6	7	n/a	n/a	pyFR	0	TJ001
851.87	2.524	565434	WORD	n/a	wordpools/wordpool_EN.txt	JAIL	7	7	n/a	n/a	pyFR	0	TJ001
854.394	2.728	566444	WORD	n/a	wordpools/wordpool_EN.txt	SPEAR	8	7	n/a	n/a	pyFR	0	TJ001
857.122	2.492	567535	WORD	n/a	wordpools/wordpool_EN.txt	PLATE	9	7	n/a	n/a	pyFR	0	TJ001
859.614	2.809	568532	WORD	n/a	wordpools/wordpool_EN.txt	OWL	10	7	n/a	n/a	pyFR	0	TJ001
862.423	2.727	569655	WORD	n/a	wordpools/wordpool_EN.txt	QUEEN	11	7	n/a	n/a	pyFR	0	TJ001
865.15	2.426	570746	WORD	n/a	wordpools/wordpool_EN.txt	FLAME	12	7	n/a	n/a	pyFR	0	TJ001
867.576	2.542	571716	WORD	n/a	wordpools/wordpool_EN.txt	HOSE	13	7	n/a	n/a	pyFR	0	TJ001
870.118	2.609	572733	WORD	n/a	wordpools/wordpool_EN.txt	DEER	14	7	n/a	n/a	pyFR	0	TJ001
872.727	1.608	573777	WORD	n/a	wordpools/wordpool_EN.txt	PHONE	15	7	n/a	n/a	pyFR	0	TJ001
874.335	1.152	574419	START	n/a	n/a	n/a	n/a	7	[-999 -999 -999]	-999	pyFR	0	TJ001
875.487	2.175	574880	PROB	n/a	n/a	n/a	n/a	7	[2 2 2]	6	pyFR	0	TJ001
877.662	2.442	575750	PROB	n/a	n/a	n/a	n/a	7	[6 4 7]	17	pyFR	0	TJ001
880.104	2.592	576726	PROB	n/a	n/a	n/a	n/a	7	[6 2 5]	13	pyFR	0	TJ001
882.696	3.396	577763	PROB	n/a	n/a	n/a	n/a	7	[9 3 6]	19	pyFR	0	TJ001
886.092	2.927	579122	PROB	n/a	n/a	n/a	n/a	7	[4 6 7]	17	pyFR	0	TJ001
889.019	4.148	580292	PROB	n/a	n/a	n/a	n/a	7	[7 9 8]	24	pyFR	0	TJ001
893.167	3.223	581952	PROB	n/a	n/a	n/a	n/a	7	[6 1 7]	14	pyFR	0	TJ001
896.39	1.06	583241	STOP	n/a	n/a	n/a	n/a	7	[-999 -999 -999]	-999	pyFR	0	TJ001
897.45	1.174	583666	REC_START	n/a	n/a	n/a	-999	-999	n/a	n/a	pyFR	0	TJ001
898.624	1.046	584136	REC_WORD	1.046	n/a	OWL	-999	7	n/a	n/a	pyFR	0	TJ001
899.67	1.341	584554	REC_WORD	1.341	n/a	QUEEN	-999	7	n/a	n/a	pyFR	0	TJ001
901.011	14.659	585090	REC_WORD	14.659	n/a	FOAM	-999	7	n/a	n/a	pyFR	0	TJ001
915.67	29.415	590954	REC_WORD	29.415	n/a	STOOL	-999	7	n/a	n/a	pyFR	0	TJ001
945.085	0.017	602720	TRIAL	n/a	n/a	n/a	-999	-999	n/a	n/a	pyFR	0	TJ001
945.102	2.827	602727	ORIENT	n/a	n/a	n/a	-999	-999	n/a	n/a	pyFR	0	TJ001
947.929	2.726	603858	WORD	n/a	wordpools/wordpool_EN.txt	FORT	1	8	n/a	n/a	pyFR	0	TJ001
950.655	2.793	604948	WORD	n/a	wordpools/wordpool_EN.txt	CLOTH	2	8	n/a	n/a	pyFR	0	TJ001
953.448	2.609	606065	WORD	n/a	wordpools/wordpool_EN.txt	GIRL	3	8	n/a	n/a	pyFR	0	TJ001
956.057	2.794	607109	WORD	n/a	wordpools/wordpool_EN.txt	CHIEF	4	8	n/a	n/a	pyFR	0	TJ001
958.851	2.558	608227	WORD	n/a	wordpools/wordpool_EN.txt	CORD	5	8	n/a	n/a	pyFR	0	TJ001
961.409	2.426	609250	WORD	n/a	wordpools/wordpool_EN.txt	DART	6	8	n/a	n/a	pyFR	0	TJ001
963.835	2.475	610220	WORD	n/a	wordpools/wordpool_EN.txt	BOY	7	8	n/a	n/a	pyFR	0	TJ001
966.31	2.493	611210	WORD	n/a	wordpools/wordpool_EN.txt	SHEEP	8	8	n/a	n/a	pyFR	0	TJ001
968.803	2.459	612207	WORD	n/a	wordpools/wordpool_EN.txt	LOCK	9	8	n/a	n/a	pyFR	0	TJ001
971.262	2.776	613191	WORD	n/a	wordpools/wordpool_EN.txt	SINK	10	8	n/a	n/a	pyFR	0	TJ001
974.038	2.643	614301	WORD	n/a	wordpools/wordpool_EN.txt	SEED	11	8	n/a	n/a	pyFR	0	TJ001
976.681	2.592	615359	WORD	n/a	wordpools/wordpool_EN.txt	TOAD	12	8	n/a	n/a	pyFR	0	TJ001
979.273	2.677	616395	WORD	n/a	wordpools/wordpool_EN.txt	DIME	13	8	n/a	n/a	pyFR	0	TJ001
981.95	2.626	617466	WORD	n/a	wordpools/wordpool_EN.txt	HILL	14	8	n/a	n/a	pyFR	0	TJ001
984.576	1.609	618517	WORD	n/a	wordpools/wordpool_EN.txt	JUICE	15	8	n/a	n/a	pyFR	0	TJ001
986.185	0.983	619159	START	n/a	n/a	n/a	n/a	8	[-999 -999 -999]	-999	pyFR	0	TJ001
987.168	6.858	619552	PROB	n/a	n/a	n/a	n/a	8	[3 6 7]	15	pyFR	0	TJ001
994.026	5.085	622296	PROB	n/a	n/a	n/a	n/a	8	[1 8 4]	13	pyFR	0	TJ001
999.111	3.379	624330	PROB	n/a	n/a	n/a	n/a	8	[7 8 7]	24	pyFR	0	TJ001
1002.49	6.836	625681	PROB	n/a	n/a	n/a	n/a	8	[3 4 4]	11	pyFR	0	TJ001
1009.326	1.127	628416	STOP	n/a	n/a	n/a	n/a	8	[-999 -999 -999]	-999	pyFR	0	TJ001
1010.453	1.251	628867	REC_START	n/a	n/a	n/a	-999	-999	n/a	n/a	pyFR	0	TJ001
1011.704	0.916	629368	REC_WORD	0.916	n/a	GIRL	-999	8	n/a	n/a	pyFR	0	TJ001
1012.62	0.772	629734	REC_WORD	0.772	n/a	BOY	-999	8	n/a	n/a	pyFR	0	TJ001
1013.392	44.545	630043	REC_WORD	44.545	n/a	SINK	-999	8	n/a	n/a	pyFR	0	TJ001
1057.937	0.017	647861	TRIAL	n/a	n/a	n/a	-999	-999	n/a	n/a	pyFR	0	TJ001
1057.954	2.776	647868	ORIENT	n/a	n/a	n/a	-999	-999	n/a	n/a	pyFR	0	TJ001
1060.73	2.476	648978	WORD	n/a	wordpools/wordpool_EN.txt	TOE	1	9	n/a	n/a	pyFR	0	TJ001
1063.206	2.509	649969	WORD	n/a	wordpools/wordpool_EN.txt	TRAIN	2	9	n/a	n/a	pyFR	0	TJ001
1065.715	2.591	650972	WORD	n/a	wordpools/wordpool_EN.txt	CAT	3	9	n/a	n/a	pyFR	0	TJ001
1068.306	2.544	652009	WORD	n/a	wordpools/wordpool_EN.txt	SPRING	4	9	n/a	n/a	pyFR	0	TJ001
1070.85	2.457	653026	WORD	n/a	wordpools/wordpool_EN.txt	TEETH	5	9	n/a	n/a	pyFR	0	TJ001
1073.307	2.627	654009	WORD	n/a	wordpools/wordpool_EN.txt	GATE	6	9	n/a	n/a	pyFR	0	TJ001
1075.934	2.693	655060	WORD	n/a	wordpools/wordpool_EN.txt	CHAIR	7	9	n/a	n/a	pyFR	0	TJ001
1078.627	2.576	656137	WORD	n/a	wordpools/wordpool_EN.txt	GEESE	8	9	n/a	n/a	pyFR	0	TJ001
1081.203	2.492	657168	WORD	n/a	wordpools/wordpool_EN.txt	SHIP	9	9	n/a	n/a	pyFR	0	TJ001
1083.695	2.676	658164	WORD	n/a	wordpools/wordpool_EN.txt	PIT	10	9	n/a	n/a	pyFR	0	TJ001
1086.371	2.443	659235	WORD	n/a	wordpools/wordpool_EN.txt	TOOTH	11	9	n/a	n/a	pyFR	0	TJ001
1088.814	2.776	660212	WORD	n/a	wordpools/wordpool_EN.txt	STORE	12	9	n/a	n/a	pyFR	0	TJ001
1091.59	2.593	661322	WORD	n/a	wordpools/wordpool_EN.txt	ROOF	13	9	n/a	n/a	pyFR	0	TJ001
1094.183	2.492	662360	WORD	n/a	wordpools/wordpool_EN.txt	EAR	14	9	n/a	n/a	pyFR	0	TJ001
1096.675	1.609	663356	WORD	n/a	wordpools/wordpool_EN.txt	PASTE	15	9	n/a	n/a	pyFR	0	TJ001
1098.284	0.833	663999	START	n/a	n/a	n/a	n/a	9	[-999 -999 -999]	-999	pyFR	0	TJ001
1099.117	3.429	664332	PROB	n/a	n/a	n/a	n/a	9	[5 2 3]	19	pyFR	0	TJ001
1102.546	3.011	665704	PROB	n/a	n/a	n/a	n/a	9	[2 2 1]	5	pyFR	0	TJ001
1105.557	5.503	666908	PROB	n/a	n/a	n/a	n/a	9	[4 7 4]	14	pyFR	0	TJ001
1111.06	2.759	669110	PROB	n/a	n/a	n/a	n/a	9	[9 2 1]	12	pyFR	0	TJ001
1113.819	2.443	670213	PROB	n/a	n/a	n/a	n/a	9	[8 1 9]	18	pyFR	0	TJ001
1116.262	2.973	671190	PROB	n/a	n/a	n/a	n/a	9	[3 7 7]	17	pyFR	0	TJ001
1119.235	1.141	672380	STOP	n/a	n/a	n/a	n/a	9	[-999 -999 -999]	-999	pyFR	0	TJ001
1120.376	3.128	672837	REC_START	n/a	n/a	n/a	-999	-999	n/a	n/a	pyFR	0	TJ001
1123.504	0.935	674088	REC_WORD	0.935	n/a	TOE	-999	9	n/a	n/a	pyFR	0	TJ001
1124.439	0.932	674462	REC_WORD	0.932	n/a	TOOTH	-999	9	n/a	n/a	pyFR	0	TJ001
1125.371	4.534	674835	REC_WORD	4.534	n/a	TRAIN	-999	9	n/a	n/a	pyFR	0	TJ001
1129.905	37.355	676649	REC_WORD	37.355	n/a	GEESE	-999	9	n/a	n/a	pyFR	0	TJ001
1167.26	0.016	691591	TRIAL	n/a	n/a	n/a	-999	-999	n/a	n/a	pyFR	0	TJ001
1167.276	2.81	691597	ORIENT	n/a	n/a	n/a	-999	-999	n/a	n/a	pyFR	0	TJ001
1170.086	2.593	692721	WORD	n/a	wordpools/wordpool_EN.txt	PANTS	1	10	n/a	n/a	pyFR	0	TJ001
1172.679	2.492	693758	WORD	n/a	wordpools/wordpool_EN.txt	PEARL	2	10	n/a	n/a	pyFR	0	TJ001
1175.171	2.727	694755	WORD	n/a	wordpools/wordpool_EN.txt	TIE	3	10	n/a	n/a	pyFR	0	TJ001
1177.898	2.609	695846	WORD	n/a	wordpools/wordpool_EN.txt	GOLD	4	10	n/a	n/a	pyFR	0	TJ001
1180.507	2.459	696889	WORD	n/a	wordpools/wordpool_EN.txt	PURSE	5	10	n/a	n/a	pyFR	0	TJ001
1182.966	2.609	697873	WORD	n/a	wordpools/wordpool_EN.txt	SKY	6	10	n/a	n/a	pyFR	0	TJ001
1185.575	2.659	698917	WORD	n/a	wordpools/wordpool_EN.txt	HORSE	7	10	n/a	n/a	pyFR	0	TJ001
1188.234	2.426	699980	WORD	n/a	wordpools/wordpool_EN.txt	BARN	8	10	n/a	n/a	pyFR	0	TJ001
1190.66	2.775	700951	WORD	n/a	wordpools/wordpool_EN.txt	STREET	9	10	n/a	n/a	pyFR	0	TJ001
1193.435	2.46	702061	WORD	n/a	wordpools/wordpool_EN.txt	PIN	10	10	n/a	n/a	pyFR	0	TJ001
1195.895	2.71	703045	WORD	n/a	wordpools/wordpool_EN.txt	MOTH	11	10	n/a	n/a	pyFR	0	TJ001
1198.605	2.792	704129	WORD	n/a	wordpools/wordpool_EN.txt	SHOE	12	10	n/a	n/a	pyFR	0	TJ001
1201.397	2.46	705245	WORD	n/a	wordpools/wordpool_EN.txt	HOUSE	13	10	n/a	n/a	pyFR	0	TJ001
1203.857	2.508	706229	WORD	n/a	wordpools/wordpool_EN.txt	ICE	14	10	n/a	n/a	pyFR	0	TJ001
1206.365	1.61	707233	WORD	n/a	wordpools/wordpool_EN.txt	STEM	15	10	n/a	n/a	pyFR	0	TJ001
1207.975	0.9	707876	START	n/a	n/a	n/a	n/a	10	[-999 -999 -999]	-999	pyFR	0	TJ001
1208.875	3.161	708236	PROB	n/a	n/a	n/a	n/a	10	[4 3 2]	9	pyFR	0	TJ001
1212.036	3.512	709500	PROB	n/a	n/a	n/a	n/a	10	[9 4 5]	18	pyFR	0	TJ001
1215.548	3.714	710905	PROB	n/a	n/a	n/a	n/a	10	[4 9 8]	21	pyFR	0	TJ001
1219.262	2.039	712391	PROB	n/a	n/a	n/a	n/a	10	[3 5 5]	13	pyFR	0	TJ001
1221.301	2.46	713206	PROB	n/a	n/a	n/a	n/a	10	[9 9 9]	27	pyFR	0	TJ001
1223.761	3.144	714190	PROB	n/a	n/a	n/a	n/a	10	[6 6 5]	17	pyFR	0	TJ001
1226.905	3.655	715448	PROB	n/a	n/a	n/a	n/a	10	[6 2 5]	12	pyFR	0	TJ001
1230.56	1.197	716910	STOP	n/a	n/a	n/a	n/a	10	[-999 -999 -999]	-999	pyFR	0	TJ001
1231.757	2.823	717390	REC_START	n/a	n/a	n/a	-999	-999	n/a	n/a	pyFR	0	TJ001
1234.58	1.008	718519	REC_WORD	1.008	n/a	TIE	-999	10	n/a	n/a	pyFR	0	TJ001
1235.588	50.194	718922	REC_WORD	50.194	n/a	SHIRT	-999	10	n/a	n/a	pyFR	0	TJ001
1285.782	0.017	739000	TRIAL	n/a	n/a	n/a	-999	-999	n/a	n/a	pyFR	0	TJ001
1285.799	2.843	739006	ORIENT	n/a	n/a	n/a	-999	-999	n/a	n/a	pyFR	0	TJ001
1288.642	2.442	740144	WORD	n/a	wordpools/wordpool_EN.txt	DITCH	1	11	n/a	n/a	pyFR	0	TJ001
1291.084	2.609	741120	WORD	n/a	wordpools/wordpool_EN.txt	CARD	2	11	n/a	n/a	pyFR	0	TJ001
1293.693	2.543	742164	WORD	n/a	wordpools/wordpool_EN.txt	MOON	3	11	n/a	n/a	pyFR	0	TJ001
1296.236	2.743	743181	WORD	n/a	wordpools/wordpool_EN.txt	PLANT	4	11	n/a	n/a	pyFR	0	TJ001
1298.979	2.693	744278	WORD	n/a	wordpools/wordpool_EN.txt	SPARK	5	11	n/a	n/a	pyFR	0	TJ001
1301.672	2.442	745356	WORD	n/a	wordpools/wordpool_EN.txt	WHEEL	6	11	n/a	n/a	pyFR	0	TJ001
1304.114	2.626	746332	WORD	n/a	wordpools/wordpool_EN.txt	CHEEK	7	11	n/a	n/a	pyFR	0	TJ001
1306.74	2.425	747383	WORD	n/a	wordpools/wordpool_EN.txt	TRASH	8	11	n/a	n/a	pyFR	0	TJ001
1309.165	2.71	748353	WORD	n/a	wordpools/wordpool_EN.txt	ROAD	9	11	n/a	n/a	pyFR	0	TJ001
1311.875	2.441	749437	WORD	n/a	wordpools/wordpool_EN.txt	CART	10	11	n/a	n/a	pyFR	0	TJ001
1314.316	2.443	750413	WORD	n/a	wordpools/wordpool_EN.txt	LEAF	11	11	n/a	n/a	pyFR	0	TJ001
1316.759	2.642	751390	WORD	n/a	wordpools/wordpool_EN.txt	THREAD	12	11	n/a	n/a	pyFR	0	TJ001
1319.401	2.777	752447	WORD	n/a	wordpools/wordpool_EN.txt	SQUARE	13	11	n/a	n/a	pyFR	0	TJ001
1322.178	2.459	753558	WORD	n/a	wordpools/wordpool_EN.txt	HAND	14	11	n/a	n/a	pyFR	0	TJ001
1324.637	1.609	754542	WORD	n/a	wordpools/wordpool_EN.txt	DUCK	15	11	n/a	n/a	pyFR	0	TJ001
1326.246	1.0	755185	START	n/a	n/a	n/a	n/a	11	[-999 -999 -999]	-999	pyFR	0	TJ001
1327.246	3.345	755585	PROB	n/a	n/a	n/a	n/a	11	[4 4 4]	12	pyFR	0	TJ001
1330.591	4.985	756923	PROB	n/a	n/a	n/a	n/a	11	[3 4 6]	11	pyFR	0	TJ001
1335.576	3.981	758917	PROB	n/a	n/a	n/a	n/a	11	[3 1 2]	6	pyFR	0	TJ001
1339.557	2.291	760509	PROB	n/a	n/a	n/a	n/a	11	[1 3 8]	12	pyFR	0	TJ001
1341.848	3.914	761425	PROB	n/a	n/a	n/a	n/a	11	[4 3 6]	13	pyFR	0	TJ001
1345.762	2.884	762991	PROB	n/a	n/a	n/a	n/a	11	[4 5 7]	16	pyFR	0	TJ001
1348.646	1.115	764145	STOP	n/a	n/a	n/a	n/a	11	[-999 -999 -999]	-999	pyFR	0	TJ001
1349.761	3.303	764591	REC_START	n/a	n/a	n/a	-999	-999	n/a	n/a	pyFR	0	TJ001
1353.064	45.152	765913	REC_WORD	45.152	n/a	THREAD	-999	11	n/a	n/a	pyFR	0	TJ001
1398.216	0.016	783973	TRIAL	n/a	n/a	n/a	-999	-999	n/a	n/a	pyFR	0	TJ001
1398.232	2.626	783980	ORIENT	n/a	n/a	n/a	-999	-999	n/a	n/a	pyFR	0	TJ001
1400.858	2.794	785030	WORD	n/a	wordpools/wordpool_EN.txt	MULE	1	12	n/a	n/a	pyFR	0	TJ001
1403.652	2.708	786148	WORD	n/a	wordpools/wordpool_EN.txt	LAMB	2	12	n/a	n/a	pyFR	0	TJ001
1406.36	2.677	787231	WORD	n/a	wordpools/wordpool_EN.txt	SIGN	3	12	n/a	n/a	pyFR	0	TJ001
1409.037	2.81	788302	WORD	n/a	wordpools/wordpool_EN.txt	JET	4	12	n/a	n/a	pyFR	0	TJ001
1411.847	2.525	789426	WORD	n/a	wordpools/wordpool_EN.txt	HEART	5	12	n/a	n/a	pyFR	0	TJ001
1414.372	2.527	790436	WORD	n/a	wordpools/wordpool_EN.txt	KITE	6	12	n/a	n/a	pyFR	0	TJ001
1416.899	2.424	791447	WORD	n/a	wordpools/wordpool_EN.txt	BRICK	7	12	n/a	n/a	pyFR	0	TJ001
1419.323	2.426	792416	WORD	n/a	wordpools/wordpool_EN.txt	TEA	8	12	n/a	n/a	pyFR	0	TJ001
1421.749	2.642	793387	WORD	n/a	wordpools/wordpool_EN.txt	CLIFF	9	12	n/a	n/a	pyFR	0	TJ001
1424.391	2.493	794444	WORD	n/a	wordpools/wordpool_EN.txt	BALL	10	12	n/a	n/a	pyFR	0	TJ001
1426.884	2.76	795441	WORD	n/a	wordpools/wordpool_EN.txt	STOVE	11	12	n/a	n/a	pyFR	0	TJ001
1429.644	2.742	796545	WORD	n/a	wordpools/wordpool_EN.txt	CALF	12	12	n/a	n/a	pyFR	0	TJ001
1432.386	2.694	797642	WORD	n/a	wordpools/wordpool_EN.txt	ROSE	13	12	n/a	n/a	pyFR	0	TJ001
1435.08	2.66	798719	WORD	n/a	wordpools/wordpool_EN.txt	MOUTH	14	12	n/a	n/a	pyFR	0	TJ001
1437.74	1.608	799783	WORD	n/a	wordpools/wordpool_EN.txt	GRASS	15	12	n/a	n/a	pyFR	0	TJ001
1439.348	1.168	800426	START	n/a	n/a	n/a	n/a	12	[-999 -999 -999]	-999	pyFR	0	TJ001
1440.516	5.904	800893	PROB	n/a	n/a	n/a	n/a	12	[7 7 4]	18	pyFR	0	TJ001
1446.42	3.831	803255	PROB	n/a	n/a	n/a	n/a	12	[5 8 4]	17	pyFR	0	TJ001
1450.251	5.319	804787	PROB	n/a	n/a	n/a	n/a	12	[5 7 2]	14	pyFR	0	TJ001
1455.57	3.345	806915	PROB	n/a	n/a	n/a	n/a	12	[1 6 9]	16	pyFR	0	TJ001
1458.915	5.256	808253	PROB	n/a	n/a	n/a	n/a	12	[6 6 2]	14	pyFR	0	TJ001
1464.171	1.134	810355	STOP	n/a	n/a	n/a	n/a	12	[-999 -999 -999]	-999	pyFR	0	TJ001
1465.305	1.046	810809	REC_START	n/a	n/a	n/a	-999	-999	n/a	n/a	pyFR	0	TJ001
1466.351	1.268	811228	REC_WORD	1.268	n/a	CALF	-999	12	n/a	n/a	pyFR	0	TJ001
1467.619	1.003	811735	REC_WORD	1.003	n/a	ROSE	-999	12	n/a	n/a	pyFR	0	TJ001
1468.622	1.672	812136	REC_WORD	1.672	n/a	STOVE	-999	12	n/a	n/a	pyFR	0	TJ001
1470.294	1.462	812805	REC_WORD	1.462	n/a	MOUTH	-999	12	n/a	n/a	pyFR	0	TJ001
1471.756	5.959	813390	REC_WORD	5.959	n/a	GLASS	-999	12	n/a	n/a	pyFR	0	TJ001
1477.715	35.076	815773	REC_WORD	35.076	n/a	JET	-999	12	n/a	n/a	pyFR	0	TJ001
1512.791	0.016	829804	TRIAL	n/a	n/a	n/a	-999	-999	n/a	n/a	pyFR	0	TJ001
1512.807	2.71	829810	ORIENT	n/a	n/a	n/a	-999	-999	n/a	n/a	pyFR	0	TJ001
1515.517	2.626	830894	WORD	n/a	wordpools/wordpool_EN.txt	TRAY	1	13	n/a	n/a	pyFR	0	TJ001
1518.143	2.509	831945	WORD	n/a	wordpools/wordpool_EN.txt	FOG	2	13	n/a	n/a	pyFR	0	TJ001
1520.652	2.492	832948	WORD	n/a	wordpools/wordpool_EN.txt	JAR	3	13	n/a	n/a	pyFR	0	TJ001
1523.144	2.743	833945	WORD	n/a	wordpools/wordpool_EN.txt	DAD	4	13	n/a	n/a	pyFR	0	TJ001
1525.887	2.626	835042	WORD	n/a	wordpools/wordpool_EN.txt	MAT	5	13	n/a	n/a	pyFR	0	TJ001
1528.513	2.693	836093	WORD	n/a	wordpools/wordpool_EN.txt	OAR	6	13	n/a	n/a	pyFR	0	TJ001
1531.206	2.676	837170	WORD	n/a	wordpools/wordpool_EN.txt	TANK	7	13	n/a	n/a	pyFR	0	TJ001
1533.882	2.81	838240	WORD	n/a	wordpools/wordpool_EN.txt	SEAL	8	13	n/a	n/a	pyFR	0	TJ001
1536.692	2.425	839364	WORD	n/a	wordpools/wordpool_EN.txt	COW	9	13	n/a	n/a	pyFR	0	TJ001
1539.117	2.543	840334	WORD	n/a	wordpools/wordpool_EN.txt	CLAY	10	13	n/a	n/a	pyFR	0	TJ001
1541.66	2.592	841351	WORD	n/a	wordpools/wordpool_EN.txt	FOX	11	13	n/a	n/a	pyFR	0	TJ001
1544.252	2.794	842388	WORD	n/a	wordpools/wordpool_EN.txt	SMOKE	12	13	n/a	n/a	pyFR	0	TJ001
1547.046	2.442	843506	WORD	n/a	wordpools/wordpool_EN.txt	LAWN	13	13	n/a	n/a	pyFR	0	TJ001
1549.488	2.609	844483	WORD	n/a	wordpools/wordpool_EN.txt	FROG	14	13	n/a	n/a	pyFR	0	TJ001
1552.097	1.609	845526	WORD	n/a	wordpools/wordpool_EN.txt	RAT	15	13	n/a	n/a	pyFR	0	TJ001
1553.706	0.816	846169	START	n/a	n/a	n/a	n/a	13	[-999 -999 -999]	-999	pyFR	0	TJ001
1554.522	3.998	846496	PROB	n/a	n/a	n/a	n/a	13	[4 1 8]	13	pyFR	0	TJ001
1558.52	3.73	848095	PROB	n/a	n/a	n/a	n/a	13	[8 9 1]	18	pyFR	0	TJ001
1562.25	3.479	849587	PROB	n/a	n/a	n/a	n/a	13	[8 4 4]	16	pyFR	0	TJ001
1565.729	3.245	850979	PROB	n/a	n/a	n/a	n/a	13	[8 6 1]	15	pyFR	0	TJ001
1568.974	6.249	852277	PROB	n/a	n/a	n/a	n/a	13	[9 2 8]	17	pyFR	0	TJ001
1575.223	1.094	854776	STOP	n/a	n/a	n/a	n/a	13	[-999 -999 -999]	-999	pyFR	0	TJ001
1576.317	1.202	855214	REC_START	n/a	n/a	n/a	-999	-999	n/a	n/a	pyFR	0	TJ001
1577.519	1.285	855695	REC_WORD	1.285	n/a	TRAY	-999	13	n/a	n/a	pyFR	0	TJ001
1578.804	1.017	856209	REC_WORD	1.017	n/a	FOG	-999	13	n/a	n/a	pyFR	0	TJ001
1579.821	1.441	856616	REC_WORD	1.441	n/a	FOX	-999	13	n/a	n/a	pyFR	0	TJ001
1581.262	1.263	857192	REC_WORD	1.263	n/a	OAR	-999	13	n/a	n/a	pyFR	0	TJ001
1582.525	1.04	857697	REC_WORD	1.04	n/a	DAD	-999	13	n/a	n/a	pyFR	0	TJ001
1583.565	40.622	858113	REC_WORD	40.622	n/a	SMOKE	-999	13	n/a	n/a	pyFR	0	TJ001
1624.187	0.017	874362	TRIAL	n/a	n/a	n/a	-999	-999	n/a	n/a	pyFR	0	TJ001
1624.204	2.726	874369	ORIENT	n/a	n/a	n/a	-999	-999	n/a	n/a	pyFR	0	TJ001
1626.93	2.576	875460	WORD	n/a	wordpools/wordpool_EN.txt	BATH	1	14	n/a	n/a	pyFR	0	TJ001
1629.506	2.476	876490	WORD	n/a	wordpools/wordpool_EN.txt	TOY	2	14	n/a	n/a	pyFR	0	TJ001
1631.982	2.793	877480	WORD	n/a	wordpools/wordpool_EN.txt	STEAM	3	14	n/a	n/a	pyFR	0	TJ001
1634.775	2.459	878598	WORD	n/a	wordpools/wordpool_EN.txt	FAN	4	14	n/a	n/a	pyFR	0	TJ001
1637.234	2.676	879581	WORD	n/a	wordpools/wordpool_EN.txt	ROOM	5	14	n/a	n/a	pyFR	0	TJ001
1639.91	2.626	880652	WORD	n/a	wordpools/wordpool_EN.txt	RUG	6	14	n/a	n/a	pyFR	0	TJ001
1642.536	2.475	881702	WORD	n/a	wordpools/wordpool_EN.txt	FORK	7	14	n/a	n/a	pyFR	0	TJ001
1645.011	2.425	882692	WORD	n/a	wordpools/wordpool_EN.txt	STRAW	8	14	n/a	n/a	pyFR	0	TJ001
1647.436	2.761	883662	WORD	n/a	wordpools/wordpool_EN.txt	COAT	9	14	n/a	n/a	pyFR	0	TJ001
1650.197	2.475	884766	WORD	n/a	wordpools/wordpool_EN.txt	MOOSE	10	14	n/a	n/a	pyFR	0	TJ001
1652.672	2.442	885756	WORD	n/a	wordpools/wordpool_EN.txt	WAND	11	14	n/a	n/a	pyFR	0	TJ001
1655.114	2.726	886733	WORD	n/a	wordpools/wordpool_EN.txt	HOLE	12	14	n/a	n/a	pyFR	0	TJ001
1657.84	2.592	887824	WORD	n/a	wordpools/wordpool_EN.txt	BAG	13	14	n/a	n/a	pyFR	0	TJ001
1660.432	2.744	888860	WORD	n/a	wordpools/wordpool_EN.txt	PLANE	14	14	n/a	n/a	pyFR	0	TJ001
1663.176	1.609	889958	WORD	n/a	wordpools/wordpool_EN.txt	CAVE	15	14	n/a	n/a	pyFR	0	TJ001
1664.785	0.933	890601	START	n/a	n/a	n/a	n/a	14	[-999 -999 -999]	-999	pyFR	0	TJ001
1665.718	5.888	890974	PROB	n/a	n/a	n/a	n/a	14	[8 9 5]	21	pyFR	0	TJ001
1671.606	3.829	893330	PROB	n/a	n/a	n/a	n/a	14	[3 6 2]	11	pyFR	0	TJ001
1675.435	2.927	894861	PROB	n/a	n/a	n/a	n/a	14	[5 2 9]	16	pyFR	0	TJ001
1678.362	5.421	896032	PROB	n/a	n/a	n/a	n/a	14	[6 6 8]	22	pyFR	0	TJ001
1683.783	3.389	898200	PROB	n/a	n/a	n/a	n/a	14	[8 2 7]	17	pyFR	0	TJ001
1687.172	1.161	899556	STOP	n/a	n/a	n/a	n/a	14	[-999 -999 -999]	-999	pyFR	0	TJ001
1688.333	1.104	900021	REC_START	n/a	n/a	n/a	-999	-999	n/a	n/a	pyFR	0	TJ001
1689.437	1.23	900462	REC_WORD	1.23	n/a	CAVE	-999	14	n/a	n/a	pyFR	0	TJ001
1690.667	16.704	900954	REC_WORD	16.704	n/a	PLANE	-999	14	n/a	n/a	pyFR	0	TJ001
1707.371	1.121	907636	REC_WORD	1.121	n/a	BATH	-999	14	n/a	n/a	pyFR	0	TJ001
1708.492	1.15	908085	REC_WORD	1.15	n/a	TOY	-999	14	n/a	n/a	pyFR	0	TJ001
1709.642	1.296	908545	REC_WORD	1.296	n/a	FAN	-999	14	n/a	n/a	pyFR	0	TJ001
1710.938	1.096	909063	REC_WORD	1.096	n/a	ROOM	-999	14	n/a	n/a	pyFR	0	TJ001
1712.034	23.634	909501	REC_WORD	23.634	n/a	STEAM	-999	14	n/a	n/a	pyFR	0	TJ001
1735.668	0.016	918955	TRIAL	n/a	n/a	n/a	-999	-999	n/a	n/a	pyFR	0	TJ001
1735.684	2.726	918961	ORIENT	n/a	n/a	n/a	-999	-999	n/a	n/a	pyFR	0	TJ001
1738.41	2.794	920052	WORD	n/a	wordpools/wordpool_EN.txt	PIE	1	15	n/a	n/a	pyFR	0	TJ001
1741.204	2.76	921169	WORD	n/a	wordpools/wordpool_EN.txt	MUG	2	15	n/a	n/a	pyFR	0	TJ001
1743.964	2.525	922273	WORD	n/a	wordpools/wordpool_EN.txt	DOG	3	15	n/a	n/a	pyFR	0	TJ001
1746.489	2.543	923283	WORD	n/a	wordpools/wordpool_EN.txt	FENCE	4	15	n/a	n/a	pyFR	0	TJ001
1749.032	2.76	924301	WORD	n/a	wordpools/wordpool_EN.txt	CRANE	5	15	n/a	n/a	pyFR	0	TJ001
1751.792	2.676	925405	WORD	n/a	wordpools/wordpool_EN.txt	COIN	6	15	n/a	n/a	pyFR	0	TJ001
1754.468	2.525	926475	WORD	n/a	wordpools/wordpool_EN.txt	ARK	7	15	n/a	n/a	pyFR	0	TJ001
1756.993	2.61	927485	WORD	n/a	wordpools/wordpool_EN.txt	ZOO	8	15	n/a	n/a	pyFR	0	TJ001
1759.603	2.492	928529	WORD	n/a	wordpools/wordpool_EN.txt	WEB	9	15	n/a	n/a	pyFR	0	TJ001
1762.095	2.576	929526	WORD	n/a	wordpools/wordpool_EN.txt	JEEP	10	15	n/a	n/a	pyFR	0	TJ001
1764.671	2.492	930556	WORD	n/a	wordpools/wordpool_EN.txt	SOUP	11	15	n/a	n/a	pyFR	0	TJ001
1767.163	2.542	931553	WORD	n/a	wordpools/wordpool_EN.txt	SEAT	12	15	n/a	n/a	pyFR	0	TJ001
1769.705	2.609	932570	WORD	n/a	wordpools/wordpool_EN.txt	DESK	13	15	n/a	n/a	pyFR	0	TJ001
1772.314	2.643	933613	WORD	n/a	wordpools/wordpool_EN.txt	FLOOR	14	15	n/a	n/a	pyFR	0	TJ001
1774.957	1.61	934671	WORD	n/a	wordpools/wordpool_EN.txt	PARK	15	15	n/a	n/a	pyFR	0	TJ001
1776.567	1.1	935314	START	n/a	n/a	n/a	n/a	15	[-999 -999 -999]	-999	pyFR	0	TJ001
1777.667	2.994	935754	PROB	n/a	n/a	n/a	n/a	15	[7 6 1]	14	pyFR	0	TJ001
1780.661	4.583	936952	PROB	n/a	n/a	n/a	n/a	15	[6 8 4]	16	pyFR	0	TJ001
1785.244	4.147	938785	PROB	n/a	n/a	n/a	n/a	15	[3 5 8]	16	pyFR	0	TJ001
1789.391	2.711	940444	PROB	n/a	n/a	n/a	n/a	15	[3 8 3]	14	pyFR	0	TJ001
1792.102	3.311	941528	PROB	n/a	n/a	n/a	n/a	15	[4 1 2]	7	pyFR	0	TJ001
1795.413	3.268	942853	PROB	n/a	n/a	n/a	n/a	15	[9 7 1]	17	pyFR	0	TJ001
1798.681	1.2	944160	STOP	n/a	n/a	n/a	n/a	15	[-999 -999 -999]	-999	pyFR	0	TJ001
1799.881	2.373	944640	REC_START	n/a	n/a	n/a	-999	-999	n/a	n/a	pyFR	0	TJ001
1802.254	24.066	945590	REC_WORD	24.066	n/a	PIE	-999	15	n/a	n/a	pyFR	0	TJ001
1826.32	13.831	955216	REC_WORD	13.831	n/a	JEEP	-999	15	n/a	n/a	pyFR	0	TJ001
1840.151	7.482	960748	REC_WORD	7.482	n/a	MUG	-999	15	n/a	n/a	pyFR	0	TJ001
1847.633	0.017	963741	TRIAL	n/a	n/a	n/a	-999	-999	n/a	n/a	pyFR	0	TJ001
1847.65	2.893	963748	ORIENT	n/a	n/a	n/a	-999	-999	n/a	n/a	pyFR	0	TJ001
1850.543	2.809	964905	WORD	n/a	wordpools/wordpool_EN.txt	CUP	1	16	n/a	n/a	pyFR	0	TJ001
1853.352	2.661	966029	WORD	n/a	wordpools/wordpool_EN.txt	POLE	2	16	n/a	n/a	pyFR	0	TJ001
1856.013	2.776	967093	WORD	n/a	wordpools/wordpool_EN.txt	STAR	3	16	n/a	n/a	pyFR	0	TJ001
1858.789	2.777	968204	WORD	n/a	wordpools/wordpool_EN.txt	AXE	4	16	n/a	n/a	pyFR	0	TJ001
1861.566	2.526	969314	WORD	n/a	wordpools/wordpool_EN.txt	CASH	5	16	n/a	n/a	pyFR	0	TJ001
1864.092	2.793	970325	WORD	n/a	wordpools/wordpool_EN.txt	BOMB	6	16	n/a	n/a	pyFR	0	TJ001
1866.885	2.508	971442	WORD	n/a	wordpools/wordpool_EN.txt	TREE	7	16	n/a	n/a	pyFR	0	TJ001
1869.393	2.51	972445	WORD	n/a	wordpools/wordpool_EN.txt	SWAMP	8	16	n/a	n/a	pyFR	0	TJ001
1871.903	2.659	973449	WORD	n/a	wordpools/wordpool_EN.txt	FARM	9	16	n/a	n/a	pyFR	0	TJ001
1874.562	2.459	974513	WORD	n/a	wordpools/wordpool_EN.txt	BEAK	10	16	n/a	n/a	pyFR	0	TJ001
1877.021	2.81	975496	WORD	n/a	wordpools/wordpool_EN.txt	KING	11	16	n/a	n/a	pyFR	0	TJ001
1879.831	2.491	976620	WORD	n/a	wordpools/wordpool_EN.txt	MAZE	12	16	n/a	n/a	pyFR	0	TJ001
1882.322	2.728	977617	WORD	n/a	wordpools/wordpool_EN.txt	BLUSH	13	16	n/a	n/a	pyFR	0	TJ001
1885.05	2.676	978708	WORD	n/a	wordpools/wordpool_EN.txt	SLUSH	14	16	n/a	n/a	pyFR	0	TJ001
1887.726	1.625	979779	WORD	n/a	wordpools/wordpool_EN.txt	SALT	15	16	n/a	n/a	pyFR	0	TJ001
1889.351	0.901	980428	START	n/a	n/a	n/a	n/a	16	[-999 -999 -999]	-999	pyFR	0	TJ001
1890.252	3.345	980789	PROB	n/a	n/a	n/a	n/a	16	[1 7 7]	15	pyFR	0	TJ001
1893.597	3.479	982127	PROB	n/a	n/a	n/a	n/a	16	[3 7 2]	12	pyFR	0	TJ001
1897.076	4.733	983518	PROB	n/a	n/a	n/a	n/a	16	[4 8 5]	17	pyFR	0	TJ001
1901.809	5.569	985412	PROB	n/a	n/a	n/a	n/a	16	[5 8 2]	15	pyFR	0	TJ001
1907.378	3.387	987639	PROB	n/a	n/a	n/a	n/a	16	[6 7 1]	15	pyFR	0	TJ001
1910.765	1.165	988994	STOP	n/a	n/a	n/a	n/a	16	[-999 -999 -999]	-999	pyFR	0	TJ001
1911.93	1.098	989460	REC_START	n/a	n/a	n/a	-999	-999	n/a	n/a	pyFR	0	TJ001
1913.028	0.92	989899	REC_WORD	0.92	n/a	BLUSH	-999	16	n/a	n/a	pyFR	0	TJ001
1913.948	4.072	990267	REC_WORD	4.072	n/a	SLUSH	-999	16	n/a	n/a	pyFR	0	TJ001
1918.02	1.227	991896	REC_WORD	1.227	n/a	AXE	-999	16	n/a	n/a	pyFR	0	TJ001
1919.247	533.274	992387	REC_WORD	533.274	n/a	BOMB	-999	16	n/a	n/a	pyFR	0	TJ001
2452.521	0.0	1205698	SESS_END	n/a	n/a	n/a	-999	-999	n/a	n/a	pyFR	0	TJ001
2452.521	0.0	1205698	E	n/a	n/a	n/a	-999	-999	n/a	n/a	pyFR	0	TJ001
