onset	duration	sample	trial_type	response_time	stim_file	item_name	serialpos	list	test	answer	experiment	session	subject
0.0	5.006	1064740	E	n/a	n/a	n/a	-999	10	n/a	n/a	pyFR	1	TJ042
5.006	0.001	1074752	B	n/a	n/a	n/a	-999	-999	n/a	n/a	pyFR	1	TJ042
5.007	98.612	1074754	SESS_START	n/a	n/a	n/a	-999	-999	n/a	n/a	pyFR	1	TJ042
103.619	0.015	1271976	TRIAL	n/a	n/a	n/a	-999	1	n/a	n/a	pyFR	1	TJ042
103.634	2.738	1272006	ORIENT	n/a	n/a	n/a	-999	1	n/a	n/a	pyFR	1	TJ042
106.372	2.672	1277482	WORD	n/a	wordpools/wordpool_EN.txt	COIN	1	1	n/a	n/a	pyFR	1	TJ042
109.044	2.723	1282826	WORD	n/a	wordpools/wordpool_EN.txt	DUCK	2	1	n/a	n/a	pyFR	1	TJ042
111.767	2.671	1288272	WORD	n/a	wordpools/wordpool_EN.txt	CLAY	3	1	n/a	n/a	pyFR	1	TJ042
114.438	2.49	1293614	WORD	n/a	wordpools/wordpool_EN.txt	CRANE	4	1	n/a	n/a	pyFR	1	TJ042
116.928	2.588	1298594	WORD	n/a	wordpools/wordpool_EN.txt	SHIRT	5	1	n/a	n/a	pyFR	1	TJ042
119.516	2.554	1303770	WORD	n/a	wordpools/wordpool_EN.txt	ARM	6	1	n/a	n/a	pyFR	1	TJ042
122.07	2.673	1308878	WORD	n/a	wordpools/wordpool_EN.txt	BOY	7	1	n/a	n/a	pyFR	1	TJ042
124.743	2.655	1314224	WORD	n/a	wordpools/wordpool_EN.txt	WOOD	8	1	n/a	n/a	pyFR	1	TJ042
127.398	2.738	1319533	WORD	n/a	wordpools/wordpool_EN.txt	SOUP	9	1	n/a	n/a	pyFR	1	TJ042
130.136	2.79	1325009	WORD	n/a	wordpools/wordpool_EN.txt	CUBE	10	1	n/a	n/a	pyFR	1	TJ042
132.926	2.773	1330589	WORD	n/a	wordpools/wordpool_EN.txt	DOCK	11	1	n/a	n/a	pyFR	1	TJ042
135.699	2.671	1336135	WORD	n/a	wordpools/wordpool_EN.txt	JAR	12	1	n/a	n/a	pyFR	1	TJ042
138.37	2.556	1341477	WORD	n/a	wordpools/wordpool_EN.txt	FLAG	13	1	n/a	n/a	pyFR	1	TJ042
140.926	2.789	1346589	WORD	n/a	wordpools/wordpool_EN.txt	SKY	14	1	n/a	n/a	pyFR	1	TJ042
143.715	27.488	1352167	WORD	n/a	wordpools/wordpool_EN.txt	SOAP	15	1	n/a	n/a	pyFR	1	TJ042
171.203	0.0	1407143	REC_WORD_VV	0.0	n/a	<>	-999	1	n/a	n/a	pyFR	1	TJ042
171.203	1.0	1407143	REC_START	n/a	n/a	n/a	-999	1	n/a	n/a	pyFR	1	TJ042
172.203	1.0	1409143	REC_WORD_VV	1.0	n/a	<>	-999	1	n/a	n/a	pyFR	1	TJ042
173.203	1.0	1411143	REC_WORD_VV	1.0	n/a	<>	-999	1	n/a	n/a	pyFR	1	TJ042
174.203	1.0	1413143	REC_WORD_VV	1.0	n/a	<>	-999	1	n/a	n/a	pyFR	1	TJ042
175.203	1.0	1415143	REC_WORD_VV	1.0	n/a	<>	-999	1	n/a	n/a	pyFR	1	TJ042
176.203	0.225	1417143	REC_WORD_VV	0.225	n/a	<>	-999	1	n/a	n/a	pyFR	1	TJ042
176.428	1.727	1417593	REC_WORD_VV	1.727	n/a	<>	-999	1	n/a	n/a	pyFR	1	TJ042
178.155	0.472	1421047	REC_WORD	0.472	n/a	COIN	-999	1	n/a	n/a	pyFR	1	TJ042
178.627	0.247	1421991	REC_WORD	0.247	n/a	DUCK	-999	1	n/a	n/a	pyFR	1	TJ042
178.874	0.935	1422485	REC_WORD	0.935	n/a	SKY	-999	1	n/a	n/a	pyFR	1	TJ042
179.809	5.234	1424355	REC_WORD	5.234	n/a	BOY	-999	1	n/a	n/a	pyFR	1	TJ042
185.043	1.0	1434822	REC_WORD_VV	1.0	n/a	<>	-999	1	n/a	n/a	pyFR	1	TJ042
186.043	1.0	1436822	REC_WORD_VV	1.0	n/a	<>	-999	1	n/a	n/a	pyFR	1	TJ042
187.043	2.408	1438822	REC_WORD_VV	2.408	n/a	<>	-999	1	n/a	n/a	pyFR	1	TJ042
189.451	6.486	1443638	REC_WORD	6.486	n/a	CRANE	-999	1	n/a	n/a	pyFR	1	TJ042
195.937	1.0	1456610	REC_WORD_VV	1.0	n/a	<>	-999	1	n/a	n/a	pyFR	1	TJ042
196.937	1.0	1458610	REC_WORD_VV	1.0	n/a	<>	-999	1	n/a	n/a	pyFR	1	TJ042
197.937	1.0	1460610	REC_WORD_VV	1.0	n/a	<>	-999	1	n/a	n/a	pyFR	1	TJ042
198.937	1.0	1462610	REC_WORD_VV	1.0	n/a	<>	-999	1	n/a	n/a	pyFR	1	TJ042
199.937	1.0	1464610	REC_WORD_VV	1.0	n/a	<>	-999	1	n/a	n/a	pyFR	1	TJ042
200.937	1.0	1466610	REC_WORD_VV	1.0	n/a	<>	-999	1	n/a	n/a	pyFR	1	TJ042
201.937	1.0	1468610	REC_WORD_VV	1.0	n/a	<>	-999	1	n/a	n/a	pyFR	1	TJ042
202.937	1.0	1470610	REC_WORD_VV	1.0	n/a	<>	-999	1	n/a	n/a	pyFR	1	TJ042
203.937	4.272	1472610	REC_WORD_VV	4.272	n/a	<>	-999	1	n/a	n/a	pyFR	1	TJ042
208.209	1.265	1481154	REC_WORD_VV	1.265	n/a	<>	-999	1	n/a	n/a	pyFR	1	TJ042
209.474	4.351	1483684	REC_WORD	4.351	n/a	ARMY	-999	1	n/a	n/a	pyFR	1	TJ042
213.825	1.0	1492386	REC_WORD	1.0	n/a	COIN	-999	1	n/a	n/a	pyFR	1	TJ042
214.825	33.901	1494386	REC_WORD_VV	33.901	n/a	<>	-999	1	n/a	n/a	pyFR	1	TJ042
248.726	0.015	1562187	TRIAL	n/a	n/a	n/a	-999	2	n/a	n/a	pyFR	1	TJ042
248.741	2.773	1562217	ORIENT	n/a	n/a	n/a	-999	2	n/a	n/a	pyFR	1	TJ042
251.514	2.537	1567763	WORD	n/a	wordpools/wordpool_EN.txt	BOARD	1	2	n/a	n/a	pyFR	1	TJ042
254.051	2.556	1572837	WORD	n/a	wordpools/wordpool_EN.txt	HORSE	2	2	n/a	n/a	pyFR	1	TJ042
256.607	2.538	1577949	WORD	n/a	wordpools/wordpool_EN.txt	PALM	3	2	n/a	n/a	pyFR	1	TJ042
259.145	2.639	1583025	WORD	n/a	wordpools/wordpool_EN.txt	CORD	4	2	n/a	n/a	pyFR	1	TJ042
261.784	2.621	1588303	WORD	n/a	wordpools/wordpool_EN.txt	RIB	5	2	n/a	n/a	pyFR	1	TJ042
264.405	2.706	1593545	WORD	n/a	wordpools/wordpool_EN.txt	DRUM	6	2	n/a	n/a	pyFR	1	TJ042
267.111	2.539	1598957	WORD	n/a	wordpools/wordpool_EN.txt	WING	7	2	n/a	n/a	pyFR	1	TJ042
269.65	2.638	1604035	WORD	n/a	wordpools/wordpool_EN.txt	BEE	8	2	n/a	n/a	pyFR	1	TJ042
272.288	2.722	1609311	WORD	n/a	wordpools/wordpool_EN.txt	BOOT	9	2	n/a	n/a	pyFR	1	TJ042
275.01	2.606	1614755	WORD	n/a	wordpools/wordpool_EN.txt	STREET	10	2	n/a	n/a	pyFR	1	TJ042
277.616	2.437	1619967	WORD	n/a	wordpools/wordpool_EN.txt	GUARD	11	2	n/a	n/a	pyFR	1	TJ042
280.053	2.807	1624841	WORD	n/a	wordpools/wordpool_EN.txt	BED	12	2	n/a	n/a	pyFR	1	TJ042
282.86	2.604	1630455	WORD	n/a	wordpools/wordpool_EN.txt	FLEA	13	2	n/a	n/a	pyFR	1	TJ042
285.464	2.489	1635663	WORD	n/a	wordpools/wordpool_EN.txt	STAR	14	2	n/a	n/a	pyFR	1	TJ042
287.953	25.15	1640641	WORD	n/a	wordpools/wordpool_EN.txt	BLOOM	15	2	n/a	n/a	pyFR	1	TJ042
313.103	0.725	1690940	REC_START	n/a	n/a	n/a	-999	2	n/a	n/a	pyFR	1	TJ042
313.828	2.712	1692390	REC_WORD_VV	2.712	n/a	<>	-999	2	n/a	n/a	pyFR	1	TJ042
316.54	1.0	1697814	REC_WORD_VV	1.0	n/a	<>	-999	2	n/a	n/a	pyFR	1	TJ042
317.54	1.0	1699814	REC_WORD_VV	1.0	n/a	<>	-999	2	n/a	n/a	pyFR	1	TJ042
318.54	2.532	1701814	REC_WORD_VV	2.532	n/a	<>	-999	2	n/a	n/a	pyFR	1	TJ042
321.072	1.0	1706878	REC_WORD_VV	1.0	n/a	<>	-999	2	n/a	n/a	pyFR	1	TJ042
322.072	1.0	1708878	REC_WORD_VV	1.0	n/a	<>	-999	2	n/a	n/a	pyFR	1	TJ042
323.072	1.0	1710878	REC_WORD_VV	1.0	n/a	<>	-999	2	n/a	n/a	pyFR	1	TJ042
324.072	1.0	1712878	REC_WORD_VV	1.0	n/a	<>	-999	2	n/a	n/a	pyFR	1	TJ042
325.072	1.0	1714878	REC_WORD_VV	1.0	n/a	<>	-999	2	n/a	n/a	pyFR	1	TJ042
326.072	1.0	1716878	REC_WORD_VV	1.0	n/a	<>	-999	2	n/a	n/a	pyFR	1	TJ042
327.072	0.885	1718878	REC_WORD_VV	0.885	n/a	<>	-999	2	n/a	n/a	pyFR	1	TJ042
327.957	0.361	1720648	REC_WORD	0.361	n/a	COOK	-999	2	n/a	n/a	pyFR	1	TJ042
328.318	0.988	1721370	REC_WORD	0.988	n/a	COIN	-999	2	n/a	n/a	pyFR	1	TJ042
329.306	0.373	1723346	REC_WORD_VV	0.373	n/a	<>	-999	2	n/a	n/a	pyFR	1	TJ042
329.679	0.387	1724092	REC_WORD	0.387	n/a	BROOM	-999	2	n/a	n/a	pyFR	1	TJ042
330.066	1.0	1724866	REC_WORD	1.0	n/a	STREET	-999	2	n/a	n/a	pyFR	1	TJ042
331.066	2.267	1726866	REC_WORD_VV	2.267	n/a	<>	-999	2	n/a	n/a	pyFR	1	TJ042
333.333	2.626	1731400	REC_WORD_VV	2.626	n/a	<>	-999	2	n/a	n/a	pyFR	1	TJ042
335.959	0.719	1736652	REC_WORD_VV	0.719	n/a	<>	-999	2	n/a	n/a	pyFR	1	TJ042
336.678	0.764	1738090	REC_WORD	0.764	n/a	SKY	-999	2	n/a	n/a	pyFR	1	TJ042
337.442	0.884	1739618	REC_WORD	0.884	n/a	BEE	-999	2	n/a	n/a	pyFR	1	TJ042
338.326	1.654	1741386	REC_WORD	1.654	n/a	FLAG	-999	2	n/a	n/a	pyFR	1	TJ042
339.98	2.889	1744694	REC_WORD	2.889	n/a	BOOT	-999	2	n/a	n/a	pyFR	1	TJ042
342.869	3.516	1750472	REC_WORD	3.516	n/a	CAMP	-999	2	n/a	n/a	pyFR	1	TJ042
346.385	1.0	1757504	REC_WORD_VV	1.0	n/a	<>	-999	2	n/a	n/a	pyFR	1	TJ042
347.385	3.736	1759504	REC_WORD_VV	3.736	n/a	<>	-999	2	n/a	n/a	pyFR	1	TJ042
351.121	1.0	1766976	REC_WORD_VV	1.0	n/a	<>	-999	2	n/a	n/a	pyFR	1	TJ042
352.121	1.0	1768976	REC_WORD_VV	1.0	n/a	<>	-999	2	n/a	n/a	pyFR	1	TJ042
353.121	1.0	1770976	REC_WORD_VV	1.0	n/a	<>	-999	2	n/a	n/a	pyFR	1	TJ042
354.121	1.0	1772976	REC_WORD_VV	1.0	n/a	<>	-999	2	n/a	n/a	pyFR	1	TJ042
355.121	1.0	1774975	REC_WORD_VV	1.0	n/a	<>	-999	2	n/a	n/a	pyFR	1	TJ042
356.121	1.0	1776975	REC_WORD_VV	1.0	n/a	<>	-999	2	n/a	n/a	pyFR	1	TJ042
357.121	1.0	1778975	REC_WORD_VV	1.0	n/a	<>	-999	2	n/a	n/a	pyFR	1	TJ042
358.121	5.15	1780975	REC_WORD_VV	5.15	n/a	<>	-999	2	n/a	n/a	pyFR	1	TJ042
363.271	0.015	1791275	TRIAL	n/a	n/a	n/a	-999	3	n/a	n/a	pyFR	1	TJ042
363.286	2.657	1791305	ORIENT	n/a	n/a	n/a	-999	3	n/a	n/a	pyFR	1	TJ042
365.943	2.622	1796619	WORD	n/a	wordpools/wordpool_EN.txt	BATH	1	3	n/a	n/a	pyFR	1	TJ042
368.565	2.737	1801863	WORD	n/a	wordpools/wordpool_EN.txt	SIGN	2	3	n/a	n/a	pyFR	1	TJ042
371.302	2.49	1807337	WORD	n/a	wordpools/wordpool_EN.txt	RAT	3	3	n/a	n/a	pyFR	1	TJ042
373.792	2.805	1812317	WORD	n/a	wordpools/wordpool_EN.txt	MOUSE	4	3	n/a	n/a	pyFR	1	TJ042
376.597	2.688	1817927	WORD	n/a	wordpools/wordpool_EN.txt	FORT	5	3	n/a	n/a	pyFR	1	TJ042
379.285	2.539	1823303	WORD	n/a	wordpools/wordpool_EN.txt	CAR	6	3	n/a	n/a	pyFR	1	TJ042
381.824	2.488	1828381	WORD	n/a	wordpools/wordpool_EN.txt	DAD	7	3	n/a	n/a	pyFR	1	TJ042
384.312	2.772	1833357	WORD	n/a	wordpools/wordpool_EN.txt	FLOOR	8	3	n/a	n/a	pyFR	1	TJ042
387.084	2.807	1838901	WORD	n/a	wordpools/wordpool_EN.txt	PEAR	9	3	n/a	n/a	pyFR	1	TJ042
389.891	2.805	1844515	WORD	n/a	wordpools/wordpool_EN.txt	RUG	10	3	n/a	n/a	pyFR	1	TJ042
392.696	2.437	1850125	WORD	n/a	wordpools/wordpool_EN.txt	CHIN	11	3	n/a	n/a	pyFR	1	TJ042
395.133	2.623	1854999	WORD	n/a	wordpools/wordpool_EN.txt	LIP	12	3	n/a	n/a	pyFR	1	TJ042
397.756	2.554	1860245	WORD	n/a	wordpools/wordpool_EN.txt	FAN	13	3	n/a	n/a	pyFR	1	TJ042
400.31	2.657	1865353	WORD	n/a	wordpools/wordpool_EN.txt	WAVE	14	3	n/a	n/a	pyFR	1	TJ042
402.967	27.639	1870667	WORD	n/a	wordpools/wordpool_EN.txt	CHEEK	15	3	n/a	n/a	pyFR	1	TJ042
430.606	1.586	1925944	REC_START	n/a	n/a	n/a	-999	3	n/a	n/a	pyFR	1	TJ042
432.192	2.488	1929116	REC_WORD_VV	2.488	n/a	<>	-999	3	n/a	n/a	pyFR	1	TJ042
434.68	0.342	1934092	REC_WORD_VV	0.342	n/a	<>	-999	3	n/a	n/a	pyFR	1	TJ042
435.022	1.521	1934776	REC_WORD	1.521	n/a	FAN	-999	3	n/a	n/a	pyFR	1	TJ042
436.543	1.003	1937818	REC_WORD	1.003	n/a	DAD	-999	3	n/a	n/a	pyFR	1	TJ042
437.546	1.199	1939824	REC_WORD	1.199	n/a	RAT	-999	3	n/a	n/a	pyFR	1	TJ042
438.745	2.555	1942222	REC_WORD	2.555	n/a	FLOOR	-999	3	n/a	n/a	pyFR	1	TJ042
441.3	2.645	1947332	REC_WORD_VV	2.645	n/a	<>	-999	3	n/a	n/a	pyFR	1	TJ042
443.945	4.188	1952622	REC_WORD	4.188	n/a	COIN	-999	3	n/a	n/a	pyFR	1	TJ042
448.133	1.0	1960998	REC_WORD_VV	1.0	n/a	<>	-999	3	n/a	n/a	pyFR	1	TJ042
449.133	2.636	1962998	REC_WORD_VV	2.636	n/a	<>	-999	3	n/a	n/a	pyFR	1	TJ042
451.769	4.486	1968270	REC_WORD	4.486	n/a	SOON	-999	3	n/a	n/a	pyFR	1	TJ042
456.255	0.953	1977242	REC_WORD	0.953	n/a	BED	-999	3	n/a	n/a	pyFR	1	TJ042
457.208	3.391	1979148	REC_WORD	3.391	n/a	RUG	-999	3	n/a	n/a	pyFR	1	TJ042
460.599	4.329	1985930	REC_WORD_VV	4.329	n/a	<>	-999	3	n/a	n/a	pyFR	1	TJ042
464.928	1.0	1994588	REC_WORD_VV	1.0	n/a	<>	-999	3	n/a	n/a	pyFR	1	TJ042
465.928	1.0	1996588	REC_WORD_VV	1.0	n/a	<>	-999	3	n/a	n/a	pyFR	1	TJ042
466.928	2.876	1998588	REC_WORD_VV	2.876	n/a	<>	-999	3	n/a	n/a	pyFR	1	TJ042
469.804	3.808	2004339	REC_WORD_VV	3.808	n/a	<>	-999	3	n/a	n/a	pyFR	1	TJ042
473.612	6.509	2011955	REC_WORD	6.509	n/a	CAR	-999	3	n/a	n/a	pyFR	1	TJ042
480.121	0.016	2024973	TRIAL	n/a	n/a	n/a	-999	4	n/a	n/a	pyFR	1	TJ042
480.137	2.773	2025005	ORIENT	n/a	n/a	n/a	-999	4	n/a	n/a	pyFR	1	TJ042
482.91	2.722	2030551	WORD	n/a	wordpools/wordpool_EN.txt	COAT	1	4	n/a	n/a	pyFR	1	TJ042
485.632	2.738	2035995	WORD	n/a	wordpools/wordpool_EN.txt	TEA	2	4	n/a	n/a	pyFR	1	TJ042
488.37	2.639	2041471	WORD	n/a	wordpools/wordpool_EN.txt	GIRL	3	4	n/a	n/a	pyFR	1	TJ042
491.009	2.739	2046749	WORD	n/a	wordpools/wordpool_EN.txt	OWL	4	4	n/a	n/a	pyFR	1	TJ042
493.748	2.605	2052227	WORD	n/a	wordpools/wordpool_EN.txt	POND	5	4	n/a	n/a	pyFR	1	TJ042
496.353	2.572	2057437	WORD	n/a	wordpools/wordpool_EN.txt	MUG	6	4	n/a	n/a	pyFR	1	TJ042
498.925	2.672	2062581	WORD	n/a	wordpools/wordpool_EN.txt	SWAMP	7	4	n/a	n/a	pyFR	1	TJ042
501.597	2.721	2067925	WORD	n/a	wordpools/wordpool_EN.txt	FOOD	8	4	n/a	n/a	pyFR	1	TJ042
504.318	2.689	2073367	WORD	n/a	wordpools/wordpool_EN.txt	CASH	9	4	n/a	n/a	pyFR	1	TJ042
507.007	2.757	2078745	WORD	n/a	wordpools/wordpool_EN.txt	POLE	10	4	n/a	n/a	pyFR	1	TJ042
509.764	2.604	2084259	WORD	n/a	wordpools/wordpool_EN.txt	MOTH	11	4	n/a	n/a	pyFR	1	TJ042
512.368	2.672	2089467	WORD	n/a	wordpools/wordpool_EN.txt	PLANT	12	4	n/a	n/a	pyFR	1	TJ042
515.04	2.573	2094811	WORD	n/a	wordpools/wordpool_EN.txt	PLATE	13	4	n/a	n/a	pyFR	1	TJ042
517.613	2.454	2099957	WORD	n/a	wordpools/wordpool_EN.txt	SEAL	14	4	n/a	n/a	pyFR	1	TJ042
520.067	23.749	2104865	WORD	n/a	wordpools/wordpool_EN.txt	FLAME	15	4	n/a	n/a	pyFR	1	TJ042
543.816	2.616	2152362	REC_START	n/a	n/a	n/a	-999	4	n/a	n/a	pyFR	1	TJ042
546.432	0.842	2157594	REC_WORD	0.842	n/a	GIRL	-999	4	n/a	n/a	pyFR	1	TJ042
547.274	0.738	2159278	REC_WORD	0.738	n/a	TOY	-999	4	n/a	n/a	pyFR	1	TJ042
548.012	4.453	2160754	REC_WORD	4.453	n/a	CASH	-999	4	n/a	n/a	pyFR	1	TJ042
552.465	2.666	2169660	REC_WORD_VV	2.666	n/a	<>	-999	4	n/a	n/a	pyFR	1	TJ042
555.131	1.0	2174992	REC_WORD_VV	1.0	n/a	<>	-999	4	n/a	n/a	pyFR	1	TJ042
556.131	0.425	2176992	REC_WORD_VV	0.425	n/a	<>	-999	4	n/a	n/a	pyFR	1	TJ042
556.556	2.148	2177842	REC_WORD	2.148	n/a	COAT	-999	4	n/a	n/a	pyFR	1	TJ042
558.704	1.865	2182138	REC_WORD	1.865	n/a	COAT	-999	4	n/a	n/a	pyFR	1	TJ042
560.569	1.0	2185868	REC_WORD_VV	1.0	n/a	<>	-999	4	n/a	n/a	pyFR	1	TJ042
561.569	1.0	2187868	REC_WORD_VV	1.0	n/a	<>	-999	4	n/a	n/a	pyFR	1	TJ042
562.569	1.0	2189868	REC_WORD_VV	1.0	n/a	<>	-999	4	n/a	n/a	pyFR	1	TJ042
563.569	1.0	2191868	REC_WORD_VV	1.0	n/a	<>	-999	4	n/a	n/a	pyFR	1	TJ042
564.569	1.0	2193868	REC_WORD_VV	1.0	n/a	<>	-999	4	n/a	n/a	pyFR	1	TJ042
565.569	1.0	2195868	REC_WORD_VV	1.0	n/a	<>	-999	4	n/a	n/a	pyFR	1	TJ042
566.569	1.0	2197868	REC_WORD_VV	1.0	n/a	<>	-999	4	n/a	n/a	pyFR	1	TJ042
567.569	1.0	2199868	REC_WORD_VV	1.0	n/a	<>	-999	4	n/a	n/a	pyFR	1	TJ042
568.569	1.0	2201868	REC_WORD_VV	1.0	n/a	<>	-999	4	n/a	n/a	pyFR	1	TJ042
569.569	1.0	2203868	REC_WORD_VV	1.0	n/a	<>	-999	4	n/a	n/a	pyFR	1	TJ042
570.569	1.959	2205868	REC_WORD_VV	1.959	n/a	<>	-999	4	n/a	n/a	pyFR	1	TJ042
572.528	1.643	2209786	REC_WORD	1.643	n/a	TREAT	-999	4	n/a	n/a	pyFR	1	TJ042
574.171	1.0	2213072	REC_WORD_VV	1.0	n/a	<>	-999	4	n/a	n/a	pyFR	1	TJ042
575.171	1.0	2215072	REC_WORD_VV	1.0	n/a	<>	-999	4	n/a	n/a	pyFR	1	TJ042
576.171	1.0	2217072	REC_WORD_VV	1.0	n/a	<>	-999	4	n/a	n/a	pyFR	1	TJ042
577.171	1.0	2219072	REC_WORD_VV	1.0	n/a	<>	-999	4	n/a	n/a	pyFR	1	TJ042
578.171	1.0	2221072	REC_WORD_VV	1.0	n/a	<>	-999	4	n/a	n/a	pyFR	1	TJ042
579.171	1.0	2223072	REC_WORD_VV	1.0	n/a	<>	-999	4	n/a	n/a	pyFR	1	TJ042
580.171	1.0	2225072	REC_WORD_VV	1.0	n/a	<>	-999	4	n/a	n/a	pyFR	1	TJ042
581.171	1.0	2227072	REC_WORD_VV	1.0	n/a	<>	-999	4	n/a	n/a	pyFR	1	TJ042
582.171	1.0	2229072	REC_WORD_VV	1.0	n/a	<>	-999	4	n/a	n/a	pyFR	1	TJ042
583.171	1.0	2231072	REC_WORD_VV	1.0	n/a	<>	-999	4	n/a	n/a	pyFR	1	TJ042
584.171	1.0	2233071	REC_WORD_VV	1.0	n/a	<>	-999	4	n/a	n/a	pyFR	1	TJ042
585.171	1.0	2235071	REC_WORD_VV	1.0	n/a	<>	-999	4	n/a	n/a	pyFR	1	TJ042
586.171	1.0	2237071	REC_WORD_VV	1.0	n/a	<>	-999	4	n/a	n/a	pyFR	1	TJ042
587.171	1.0	2239071	REC_WORD_VV	1.0	n/a	<>	-999	4	n/a	n/a	pyFR	1	TJ042
588.171	1807.066	2241071	REC_WORD_VV	1807.066	n/a	<>	-999	4	n/a	n/a	pyFR	1	TJ042
2395.237	0.016	5855172	TRIAL	n/a	n/a	n/a	-999	5	n/a	n/a	pyFR	1	TJ042
2395.253	2.755	5855204	ORIENT	n/a	n/a	n/a	-999	5	n/a	n/a	pyFR	1	TJ042
2398.008	2.556	5860714	WORD	n/a	wordpools/wordpool_EN.txt	TOE	1	5	n/a	n/a	pyFR	1	TJ042
2400.564	2.738	5865826	WORD	n/a	wordpools/wordpool_EN.txt	MULE	2	5	n/a	n/a	pyFR	1	TJ042
2403.302	2.606	5871302	WORD	n/a	wordpools/wordpool_EN.txt	FILM	3	5	n/a	n/a	pyFR	1	TJ042
2405.908	2.538	5876514	WORD	n/a	wordpools/wordpool_EN.txt	MOLE	4	5	n/a	n/a	pyFR	1	TJ042
2408.446	2.622	5881590	WORD	n/a	wordpools/wordpool_EN.txt	BRUSH	5	5	n/a	n/a	pyFR	1	TJ042
2411.068	2.773	5886834	WORD	n/a	wordpools/wordpool_EN.txt	FROG	6	5	n/a	n/a	pyFR	1	TJ042
2413.841	2.805	5892380	WORD	n/a	wordpools/wordpool_EN.txt	BARN	7	5	n/a	n/a	pyFR	1	TJ042
2416.646	2.605	5897990	WORD	n/a	wordpools/wordpool_EN.txt	STORM	8	5	n/a	n/a	pyFR	1	TJ042
2419.251	2.839	5903199	WORD	n/a	wordpools/wordpool_EN.txt	RICE	9	5	n/a	n/a	pyFR	1	TJ042
2422.09	2.573	5908877	WORD	n/a	wordpools/wordpool_EN.txt	TEETH	10	5	n/a	n/a	pyFR	1	TJ042
2424.663	2.537	5914023	WORD	n/a	wordpools/wordpool_EN.txt	DESK	11	5	n/a	n/a	pyFR	1	TJ042
2427.2	2.556	5919097	WORD	n/a	wordpools/wordpool_EN.txt	ZOO	12	5	n/a	n/a	pyFR	1	TJ042
2429.756	2.738	5924209	WORD	n/a	wordpools/wordpool_EN.txt	STICK	13	5	n/a	n/a	pyFR	1	TJ042
2432.494	2.522	5929685	WORD	n/a	wordpools/wordpool_EN.txt	WALL	14	5	n/a	n/a	pyFR	1	TJ042
2435.016	28.19	5934729	WORD	n/a	wordpools/wordpool_EN.txt	OAK	15	5	n/a	n/a	pyFR	1	TJ042
2463.206	3.916	5991109	REC_START	n/a	n/a	n/a	-999	5	n/a	n/a	pyFR	1	TJ042
2467.122	1.304	5998941	REC_WORD_VV	1.304	n/a	<>	-999	5	n/a	n/a	pyFR	1	TJ042
2468.426	0.496	6001549	REC_WORD	0.496	n/a	MULE	-999	5	n/a	n/a	pyFR	1	TJ042
2468.922	0.571	6002541	REC_WORD	0.571	n/a	DESK	-999	5	n/a	n/a	pyFR	1	TJ042
2469.493	1.056	6003683	REC_WORD	1.056	n/a	FROG	-999	5	n/a	n/a	pyFR	1	TJ042
2470.549	2.183	6005795	REC_WORD	2.183	n/a	BARN	-999	5	n/a	n/a	pyFR	1	TJ042
2472.732	4.196	6010161	REC_WORD_VV	4.196	n/a	<>	-999	5	n/a	n/a	pyFR	1	TJ042
2476.928	1.733	6018552	REC_WORD	1.733	n/a	COAT	-999	5	n/a	n/a	pyFR	1	TJ042
2478.661	3.502	6022018	REC_WORD_VV	3.502	n/a	<>	-999	5	n/a	n/a	pyFR	1	TJ042
2482.163	3.303	6029022	REC_WORD	3.303	n/a	RAIN	-999	5	n/a	n/a	pyFR	1	TJ042
2485.466	1.957	6035628	REC_WORD	1.957	n/a	TOE	-999	5	n/a	n/a	pyFR	1	TJ042
2487.423	0.961	6039542	REC_WORD	0.961	n/a	STORM	-999	5	n/a	n/a	pyFR	1	TJ042
2488.384	3.802	6041464	REC_WORD	3.802	n/a	WALK	-999	5	n/a	n/a	pyFR	1	TJ042
2492.186	0.498	6049068	REC_WORD_VV	0.498	n/a	<>	-999	5	n/a	n/a	pyFR	1	TJ042
2492.684	2.732	6050064	REC_WORD	2.732	n/a	RICE	-999	5	n/a	n/a	pyFR	1	TJ042
2495.416	0.85	6055528	REC_WORD_VV	0.85	n/a	<>	-999	5	n/a	n/a	pyFR	1	TJ042
2496.266	3.192	6057228	REC_WORD	3.192	n/a	BARN	-999	5	n/a	n/a	pyFR	1	TJ042
2499.458	4.394	6063612	REC_WORD_VV	4.394	n/a	<>	-999	5	n/a	n/a	pyFR	1	TJ042
2503.852	3.829	6072400	REC_WORD	3.829	n/a	MULE	-999	5	n/a	n/a	pyFR	1	TJ042
2507.681	4.925	6080058	REC_WORD_VV	4.925	n/a	<>	-999	5	n/a	n/a	pyFR	1	TJ042
2512.606	0.016	6089908	TRIAL	n/a	n/a	n/a	-999	6	n/a	n/a	pyFR	1	TJ042
2512.622	2.738	6089940	ORIENT	n/a	n/a	n/a	-999	6	n/a	n/a	pyFR	1	TJ042
2515.36	2.789	6095416	WORD	n/a	wordpools/wordpool_EN.txt	WEED	1	6	n/a	n/a	pyFR	1	TJ042
2518.149	2.539	6100994	WORD	n/a	wordpools/wordpool_EN.txt	HEART	2	6	n/a	n/a	pyFR	1	TJ042
2520.688	2.821	6106072	WORD	n/a	wordpools/wordpool_EN.txt	MAZE	3	6	n/a	n/a	pyFR	1	TJ042
2523.509	2.49	6111714	WORD	n/a	wordpools/wordpool_EN.txt	SCHOOL	4	6	n/a	n/a	pyFR	1	TJ042
2525.999	2.772	6116694	WORD	n/a	wordpools/wordpool_EN.txt	KEY	5	6	n/a	n/a	pyFR	1	TJ042
2528.771	2.571	6122238	WORD	n/a	wordpools/wordpool_EN.txt	PIN	6	6	n/a	n/a	pyFR	1	TJ042
2531.342	2.789	6127380	WORD	n/a	wordpools/wordpool_EN.txt	STRAW	7	6	n/a	n/a	pyFR	1	TJ042
2534.131	2.773	6132957	WORD	n/a	wordpools/wordpool_EN.txt	STEM	8	6	n/a	n/a	pyFR	1	TJ042
2536.904	2.487	6138503	WORD	n/a	wordpools/wordpool_EN.txt	BREAD	9	6	n/a	n/a	pyFR	1	TJ042
2539.391	2.59	6143477	WORD	n/a	wordpools/wordpool_EN.txt	FRUIT	10	6	n/a	n/a	pyFR	1	TJ042
2541.981	2.588	6148657	WORD	n/a	wordpools/wordpool_EN.txt	GOAT	11	6	n/a	n/a	pyFR	1	TJ042
2544.569	2.721	6153833	WORD	n/a	wordpools/wordpool_EN.txt	PARK	12	6	n/a	n/a	pyFR	1	TJ042
2547.29	2.49	6159275	WORD	n/a	wordpools/wordpool_EN.txt	KITE	13	6	n/a	n/a	pyFR	1	TJ042
2549.78	2.47	6164255	WORD	n/a	wordpools/wordpool_EN.txt	STOVE	14	6	n/a	n/a	pyFR	1	TJ042
2552.25	24.351	6169195	WORD	n/a	wordpools/wordpool_EN.txt	QUEEN	15	6	n/a	n/a	pyFR	1	TJ042
2576.601	1.163	6217897	REC_START	n/a	n/a	n/a	-999	6	n/a	n/a	pyFR	1	TJ042
2577.764	0.432	6220223	REC_WORD	0.432	n/a	QUEEN	-999	6	n/a	n/a	pyFR	1	TJ042
2578.196	0.369	6221087	REC_WORD	0.369	n/a	MULE	-999	6	n/a	n/a	pyFR	1	TJ042
2578.565	1.0	6221825	REC_WORD	1.0	n/a	FROG	-999	6	n/a	n/a	pyFR	1	TJ042
2579.565	0.059	6223825	REC_WORD_VV	0.059	n/a	<>	-999	6	n/a	n/a	pyFR	1	TJ042
2579.624	0.516	6223943	REC_WORD	0.516	n/a	STEM	-999	6	n/a	n/a	pyFR	1	TJ042
2580.14	2.491	6224975	REC_WORD	2.491	n/a	STRAW	-999	6	n/a	n/a	pyFR	1	TJ042
2582.631	2.065	6229957	REC_WORD	2.065	n/a	COKE	-999	6	n/a	n/a	pyFR	1	TJ042
2584.696	4.961	6234087	REC_WORD	4.961	n/a	WEED	-999	6	n/a	n/a	pyFR	1	TJ042
2589.657	4.333	6244008	REC_WORD	4.333	n/a	KITE	-999	6	n/a	n/a	pyFR	1	TJ042
2593.99	0.446	6252674	REC_WORD_VV	0.446	n/a	<>	-999	6	n/a	n/a	pyFR	1	TJ042
2594.436	1.0	6253566	REC_WORD	1.0	n/a	SCHOOL	-999	6	n/a	n/a	pyFR	1	TJ042
2595.436	1.0	6255566	REC_WORD_VV	1.0	n/a	<>	-999	6	n/a	n/a	pyFR	1	TJ042
2596.436	0.453	6257566	REC_WORD_VV	0.453	n/a	<>	-999	6	n/a	n/a	pyFR	1	TJ042
2596.889	4.351	6258472	REC_WORD	4.351	n/a	MILK	-999	6	n/a	n/a	pyFR	1	TJ042
2601.24	4.51	6267174	REC_WORD	4.51	n/a	HONOR	-999	6	n/a	n/a	pyFR	1	TJ042
2605.75	2.895	6276194	REC_WORD_VV	2.895	n/a	<>	-999	6	n/a	n/a	pyFR	1	TJ042
2608.645	6.201	6281984	REC_WORD	6.201	n/a	BREAD	-999	6	n/a	n/a	pyFR	1	TJ042
2614.846	4.479	6294386	REC_WORD	4.479	n/a	FACT	-999	6	n/a	n/a	pyFR	1	TJ042
2619.325	0.709	6303344	REC_WORD	0.709	n/a	SHORT	-999	6	n/a	n/a	pyFR	1	TJ042
2620.034	15.869	6304762	REC_WORD	15.869	n/a	TALL	-999	6	n/a	n/a	pyFR	1	TJ042
2635.903	0.016	6336500	TRIAL	n/a	n/a	n/a	-999	7	n/a	n/a	pyFR	1	TJ042
2635.919	2.638	6336532	ORIENT	n/a	n/a	n/a	-999	7	n/a	n/a	pyFR	1	TJ042
2638.557	2.705	6341808	WORD	n/a	wordpools/wordpool_EN.txt	BOMB	1	7	n/a	n/a	pyFR	1	TJ042
2641.262	2.489	6347218	WORD	n/a	wordpools/wordpool_EN.txt	TREE	2	7	n/a	n/a	pyFR	1	TJ042
2643.751	2.688	6352196	WORD	n/a	wordpools/wordpool_EN.txt	CANE	3	7	n/a	n/a	pyFR	1	TJ042
2646.439	2.539	6357572	WORD	n/a	wordpools/wordpool_EN.txt	SPOON	4	7	n/a	n/a	pyFR	1	TJ042
2648.978	2.488	6362649	WORD	n/a	wordpools/wordpool_EN.txt	SLEEVE	5	7	n/a	n/a	pyFR	1	TJ042
2651.466	2.472	6367625	WORD	n/a	wordpools/wordpool_EN.txt	AXE	6	7	n/a	n/a	pyFR	1	TJ042
2653.938	2.739	6372569	WORD	n/a	wordpools/wordpool_EN.txt	YARD	7	7	n/a	n/a	pyFR	1	TJ042
2656.677	2.604	6378047	WORD	n/a	wordpools/wordpool_EN.txt	FLUTE	8	7	n/a	n/a	pyFR	1	TJ042
2659.281	2.789	6383255	WORD	n/a	wordpools/wordpool_EN.txt	TOY	9	7	n/a	n/a	pyFR	1	TJ042
2662.07	2.523	6388833	WORD	n/a	wordpools/wordpool_EN.txt	SQUARE	10	7	n/a	n/a	pyFR	1	TJ042
2664.593	2.754	6393879	WORD	n/a	wordpools/wordpool_EN.txt	SPARK	11	7	n/a	n/a	pyFR	1	TJ042
2667.347	2.689	6399387	WORD	n/a	wordpools/wordpool_EN.txt	SHEET	12	7	n/a	n/a	pyFR	1	TJ042
2670.036	2.539	6404765	WORD	n/a	wordpools/wordpool_EN.txt	SHRIMP	13	7	n/a	n/a	pyFR	1	TJ042
2672.575	2.504	6409843	WORD	n/a	wordpools/wordpool_EN.txt	WHEEL	14	7	n/a	n/a	pyFR	1	TJ042
2675.079	28.66	6414851	WORD	n/a	wordpools/wordpool_EN.txt	CUP	15	7	n/a	n/a	pyFR	1	TJ042
2703.739	2.154	6472171	REC_START	n/a	n/a	n/a	-999	7	n/a	n/a	pyFR	1	TJ042
2705.893	0.762	6476478	REC_WORD	0.762	n/a	CAVE	-999	7	n/a	n/a	pyFR	1	TJ042
2706.655	1.043	6478002	REC_WORD	1.043	n/a	BOMB	-999	7	n/a	n/a	pyFR	1	TJ042
2707.698	1.273	6480088	REC_WORD	1.273	n/a	STREET	-999	7	n/a	n/a	pyFR	1	TJ042
2708.971	0.862	6482634	REC_WORD	0.862	n/a	AXE	-999	7	n/a	n/a	pyFR	1	TJ042
2709.833	1.708	6484358	REC_WORD	1.708	n/a	MOOD	-999	7	n/a	n/a	pyFR	1	TJ042
2711.541	1.905	6487774	REC_WORD	1.905	n/a	SCHOOL	-999	7	n/a	n/a	pyFR	1	TJ042
2713.446	1.073	6491584	REC_WORD	1.073	n/a	WHIP	-999	7	n/a	n/a	pyFR	1	TJ042
2714.519	2.739	6493730	REC_WORD	2.739	n/a	LASH	-999	7	n/a	n/a	pyFR	1	TJ042
2717.258	3.78	6499208	REC_WORD	3.78	n/a	AXE	-999	7	n/a	n/a	pyFR	1	TJ042
2721.038	3.626	6506768	REC_WORD	3.626	n/a	CRANE	-999	7	n/a	n/a	pyFR	1	TJ042
2724.664	0.935	6514020	REC_WORD	0.935	n/a	DEPTH	-999	7	n/a	n/a	pyFR	1	TJ042
2725.599	1.963	6515890	REC_WORD	1.963	n/a	STEEL	-999	7	n/a	n/a	pyFR	1	TJ042
2727.562	2.294	6519816	REC_WORD	2.294	n/a	KEY	-999	7	n/a	n/a	pyFR	1	TJ042
2729.856	4.202	6524404	REC_WORD	4.202	n/a	LOOSE	-999	7	n/a	n/a	pyFR	1	TJ042
2734.058	1.353	6532808	REC_WORD	1.353	n/a	GOOSE	-999	7	n/a	n/a	pyFR	1	TJ042
2735.411	3.273	6535514	REC_WORD	3.273	n/a	TRAIN	-999	7	n/a	n/a	pyFR	1	TJ042
2738.684	12.465	6542060	REC_WORD	12.465	n/a	FOG	-999	7	n/a	n/a	pyFR	1	TJ042
2751.149	0.016	6566990	TRIAL	n/a	n/a	n/a	-999	8	n/a	n/a	pyFR	1	TJ042
2751.165	2.673	6567022	ORIENT	n/a	n/a	n/a	-999	8	n/a	n/a	pyFR	1	TJ042
2753.838	2.772	6572368	WORD	n/a	wordpools/wordpool_EN.txt	HOLE	1	8	n/a	n/a	pyFR	1	TJ042
2756.61	2.488	6577912	WORD	n/a	wordpools/wordpool_EN.txt	HOUSE	2	8	n/a	n/a	pyFR	1	TJ042
2759.098	2.589	6582888	WORD	n/a	wordpools/wordpool_EN.txt	ROAD	3	8	n/a	n/a	pyFR	1	TJ042
2761.687	2.721	6588065	WORD	n/a	wordpools/wordpool_EN.txt	FOX	4	8	n/a	n/a	pyFR	1	TJ042
2764.408	2.573	6593507	WORD	n/a	wordpools/wordpool_EN.txt	PEN	5	8	n/a	n/a	pyFR	1	TJ042
2766.981	2.504	6598653	WORD	n/a	wordpools/wordpool_EN.txt	CHAIR	6	8	n/a	n/a	pyFR	1	TJ042
2769.485	2.672	6603661	WORD	n/a	wordpools/wordpool_EN.txt	PLANE	7	8	n/a	n/a	pyFR	1	TJ042
2772.157	2.523	6609005	WORD	n/a	wordpools/wordpool_EN.txt	FISH	8	8	n/a	n/a	pyFR	1	TJ042
2774.68	2.504	6614051	WORD	n/a	wordpools/wordpool_EN.txt	DIME	9	8	n/a	n/a	pyFR	1	TJ042
2777.184	2.656	6619059	WORD	n/a	wordpools/wordpool_EN.txt	BAT	10	8	n/a	n/a	pyFR	1	TJ042
2779.84	2.722	6624371	WORD	n/a	wordpools/wordpool_EN.txt	TRAY	11	8	n/a	n/a	pyFR	1	TJ042
2782.562	2.471	6629815	WORD	n/a	wordpools/wordpool_EN.txt	DEER	12	8	n/a	n/a	pyFR	1	TJ042
2785.033	2.471	6634757	WORD	n/a	wordpools/wordpool_EN.txt	CAPE	13	8	n/a	n/a	pyFR	1	TJ042
2787.504	2.522	6639699	WORD	n/a	wordpools/wordpool_EN.txt	PIG	14	8	n/a	n/a	pyFR	1	TJ042
2790.026	26.437	6644743	WORD	n/a	wordpools/wordpool_EN.txt	CAGE	15	8	n/a	n/a	pyFR	1	TJ042
2816.463	1.306	6697617	REC_START	n/a	n/a	n/a	-999	8	n/a	n/a	pyFR	1	TJ042
2817.769	0.315	6700229	REC_WORD	0.315	n/a	CAPE	-999	8	n/a	n/a	pyFR	1	TJ042
2818.084	0.591	6700859	REC_WORD	0.591	n/a	FOX	-999	8	n/a	n/a	pyFR	1	TJ042
2818.675	2.36	6702040	REC_WORD	2.36	n/a	CHAIR	-999	8	n/a	n/a	pyFR	1	TJ042
2821.035	1.358	6706760	REC_WORD	1.358	n/a	PLANE	-999	8	n/a	n/a	pyFR	1	TJ042
2822.393	0.955	6709476	REC_WORD	0.955	n/a	WOOD	-999	8	n/a	n/a	pyFR	1	TJ042
2823.348	2.022	6711386	REC_WORD	2.022	n/a	AXE	-999	8	n/a	n/a	pyFR	1	TJ042
2825.37	1.361	6715430	REC_WORD	1.361	n/a	CRANE	-999	8	n/a	n/a	pyFR	1	TJ042
2826.731	3.012	6718152	REC_WORD	3.012	n/a	DEER	-999	8	n/a	n/a	pyFR	1	TJ042
2829.743	1.304	6724176	REC_WORD_VV	1.304	n/a	<>	-999	8	n/a	n/a	pyFR	1	TJ042
2831.047	5.919	6726784	REC_WORD	5.919	n/a	CHAIR	-999	8	n/a	n/a	pyFR	1	TJ042
2836.966	1.0	6738622	REC_WORD_VV	1.0	n/a	<>	-999	8	n/a	n/a	pyFR	1	TJ042
2837.966	1.0	6740622	REC_WORD_VV	1.0	n/a	<>	-999	8	n/a	n/a	pyFR	1	TJ042
2838.966	1.0	6742622	REC_WORD_VV	1.0	n/a	<>	-999	8	n/a	n/a	pyFR	1	TJ042
2839.966	1.0	6744622	REC_WORD_VV	1.0	n/a	<>	-999	8	n/a	n/a	pyFR	1	TJ042
2840.966	1.0	6746622	REC_WORD_VV	1.0	n/a	<>	-999	8	n/a	n/a	pyFR	1	TJ042
2841.966	0.547	6748622	REC_WORD_VV	0.547	n/a	<>	-999	8	n/a	n/a	pyFR	1	TJ042
2842.513	1.486	6749716	REC_WORD	1.486	n/a	GOOD	-999	8	n/a	n/a	pyFR	1	TJ042
2843.999	2.594	6752688	REC_WORD_VV	2.594	n/a	<>	-999	8	n/a	n/a	pyFR	1	TJ042
2846.593	0.619	6757876	REC_WORD	0.619	n/a	HOUSE	-999	8	n/a	n/a	pyFR	1	TJ042
2847.212	6.213	6759114	REC_WORD	6.213	n/a	CAVE	-999	8	n/a	n/a	pyFR	1	TJ042
2853.425	1.11	6771540	REC_WORD	1.11	n/a	BACK	-999	8	n/a	n/a	pyFR	1	TJ042
2854.535	3.568	6773760	REC_WORD	3.568	n/a	FRONT	-999	8	n/a	n/a	pyFR	1	TJ042
2858.103	6.525	6780896	REC_WORD	6.525	n/a	BOMB	-999	8	n/a	n/a	pyFR	1	TJ042
2864.628	0.015	6793946	TRIAL	n/a	n/a	n/a	-999	9	n/a	n/a	pyFR	1	TJ042
2864.643	2.838	6793976	ORIENT	n/a	n/a	n/a	-999	9	n/a	n/a	pyFR	1	TJ042
2867.481	2.772	6799652	WORD	n/a	wordpools/wordpool_EN.txt	HOOK	1	9	n/a	n/a	pyFR	1	TJ042
2870.253	2.523	6805196	WORD	n/a	wordpools/wordpool_EN.txt	CART	2	9	n/a	n/a	pyFR	1	TJ042
2872.776	2.688	6810242	WORD	n/a	wordpools/wordpool_EN.txt	POOL	3	9	n/a	n/a	pyFR	1	TJ042
2875.464	2.439	6815618	WORD	n/a	wordpools/wordpool_EN.txt	SEAT	4	9	n/a	n/a	pyFR	1	TJ042
2877.903	2.689	6820495	WORD	n/a	wordpools/wordpool_EN.txt	WORLD	5	9	n/a	n/a	pyFR	1	TJ042
2880.592	2.621	6825873	WORD	n/a	wordpools/wordpool_EN.txt	DITCH	6	9	n/a	n/a	pyFR	1	TJ042
2883.213	2.573	6831115	WORD	n/a	wordpools/wordpool_EN.txt	SHELL	7	9	n/a	n/a	pyFR	1	TJ042
2885.786	2.47	6836261	WORD	n/a	wordpools/wordpool_EN.txt	ROSE	8	9	n/a	n/a	pyFR	1	TJ042
2888.256	2.673	6841201	WORD	n/a	wordpools/wordpool_EN.txt	BAND	9	9	n/a	n/a	pyFR	1	TJ042
2890.929	2.772	6846547	WORD	n/a	wordpools/wordpool_EN.txt	SUN	10	9	n/a	n/a	pyFR	1	TJ042
2893.701	2.555	6852091	WORD	n/a	wordpools/wordpool_EN.txt	MAIL	11	9	n/a	n/a	pyFR	1	TJ042
2896.256	2.822	6857201	WORD	n/a	wordpools/wordpool_EN.txt	FENCE	12	9	n/a	n/a	pyFR	1	TJ042
2899.078	2.556	6862845	WORD	n/a	wordpools/wordpool_EN.txt	SKUNK	13	9	n/a	n/a	pyFR	1	TJ042
2901.634	2.554	6867957	WORD	n/a	wordpools/wordpool_EN.txt	CAT	14	9	n/a	n/a	pyFR	1	TJ042
2904.188	23.449	6873065	WORD	n/a	wordpools/wordpool_EN.txt	VINE	15	9	n/a	n/a	pyFR	1	TJ042
2927.637	1.462	6919963	REC_START	n/a	n/a	n/a	-999	9	n/a	n/a	pyFR	1	TJ042
2929.099	0.731	6922887	REC_WORD	0.731	n/a	ROSE	-999	9	n/a	n/a	pyFR	1	TJ042
2929.83	0.421	6924349	REC_WORD	0.421	n/a	VINE	-999	9	n/a	n/a	pyFR	1	TJ042
2930.251	2.724	6925191	REC_WORD	2.724	n/a	STENCH	-999	9	n/a	n/a	pyFR	1	TJ042
2932.975	3.855	6930639	REC_WORD_VV	3.855	n/a	<>	-999	9	n/a	n/a	pyFR	1	TJ042
2936.83	1.89	6938348	REC_WORD	1.89	n/a	CAT	-999	9	n/a	n/a	pyFR	1	TJ042
2938.72	1.511	6942128	REC_WORD	1.511	n/a	RED	-999	9	n/a	n/a	pyFR	1	TJ042
2940.231	0.908	6945150	REC_WORD	0.908	n/a	FENCE	-999	9	n/a	n/a	pyFR	1	TJ042
2941.139	3.044	6946966	REC_WORD	3.044	n/a	WOOD	-999	9	n/a	n/a	pyFR	1	TJ042
2944.183	5.475	6953054	REC_WORD	5.475	n/a	HOUSE	-999	9	n/a	n/a	pyFR	1	TJ042
2949.658	1.0	6964004	REC_WORD_VV	1.0	n/a	<>	-999	9	n/a	n/a	pyFR	1	TJ042
2950.658	1.0	6966004	REC_WORD_VV	1.0	n/a	<>	-999	9	n/a	n/a	pyFR	1	TJ042
2951.658	1.0	6968004	REC_WORD_VV	1.0	n/a	<>	-999	9	n/a	n/a	pyFR	1	TJ042
2952.658	4.408	6970004	REC_WORD_VV	4.408	n/a	<>	-999	9	n/a	n/a	pyFR	1	TJ042
2957.066	2.149	6978820	REC_WORD	2.149	n/a	AXE	-999	9	n/a	n/a	pyFR	1	TJ042
2959.215	0.601	6983118	REC_WORD_VV	0.601	n/a	<>	-999	9	n/a	n/a	pyFR	1	TJ042
2959.816	5.896	6984320	REC_WORD_VV	5.896	n/a	<>	-999	9	n/a	n/a	pyFR	1	TJ042
2965.712	1.007	6996112	REC_WORD_VV	1.007	n/a	<>	-999	9	n/a	n/a	pyFR	1	TJ042
2966.719	1.0	6998126	REC_WORD	1.0	n/a	FENCE	-999	9	n/a	n/a	pyFR	1	TJ042
2967.719	2.391	7000126	REC_WORD_VV	2.391	n/a	<>	-999	9	n/a	n/a	pyFR	1	TJ042
2970.11	1.117	7004908	REC_WORD	1.117	n/a	CUP	-999	9	n/a	n/a	pyFR	1	TJ042
2971.227	8.548	7007142	REC_WORD	8.548	n/a	HOOK	-999	9	n/a	n/a	pyFR	1	TJ042
2979.775	173625.324	7024238	TRIAL	n/a	n/a	n/a	-999	10	n/a	n/a	pyFR	1	TJ042
176605.099	0.017	1364681	START	n/a	n/a	n/a	n/a	0	[-999 -999 -999]	-999	pyFR	1	TJ042
176605.116	9.836	1364715	PROB	n/a	n/a	n/a	n/a	0	[9 5 8]	22	pyFR	1	TJ042
176614.952	3.34	1384387	PROB	n/a	n/a	n/a	n/a	0	[9 7 5]	21	pyFR	1	TJ042
176618.292	2.739	1391067	PROB	n/a	n/a	n/a	n/a	0	[8 2 6]	16	pyFR	1	TJ042
176621.031	3.824	1396545	PROB	n/a	n/a	n/a	n/a	0	[3 6 5]	14	pyFR	1	TJ042
176624.855	3.257	1404193	PROB	n/a	n/a	n/a	n/a	0	[1 1 2]	4	pyFR	1	TJ042
176628.112	4.793	1410707	PROB	n/a	n/a	n/a	n/a	0	[4 6 9]	19	pyFR	1	TJ042
176632.905	8.676	1420293	PROB	n/a	n/a	n/a	n/a	0	[7 5 7]	19	pyFR	1	TJ042
176641.581	55.236	1437645	STOP	n/a	n/a	n/a	n/a	0	[-999 -999 -999]	-999	pyFR	1	TJ042
176696.817	1.101	1548116	START	n/a	n/a	n/a	n/a	1	[-999 -999 -999]	-999	pyFR	1	TJ042
176697.918	5.494	1550318	PROB	n/a	n/a	n/a	n/a	1	[2 2 2]	6	pyFR	1	TJ042
176703.412	30.749	1561306	PROB	n/a	n/a	n/a	n/a	1	[9 5 9]	23	pyFR	1	TJ042
176734.161	114.31	1622803	STOP	n/a	n/a	n/a	n/a	1	[-999 -999 -999]	-999	pyFR	1	TJ042
176848.471	0.917	1851421	START	n/a	n/a	n/a	n/a	2	[-999 -999 -999]	-999	pyFR	1	TJ042
176849.388	8.4	1853255	PROB	n/a	n/a	n/a	n/a	2	[2 1 3]	6	pyFR	1	TJ042
176857.788	4.593	1870055	PROB	n/a	n/a	n/a	n/a	2	[1 8 5]	14	pyFR	1	TJ042
176862.381	5.093	1879241	PROB	n/a	n/a	n/a	n/a	2	[5 4 2]	11	pyFR	1	TJ042
176867.474	4.011	1889427	PROB	n/a	n/a	n/a	n/a	2	[8 2 7]	17	pyFR	1	TJ042
176871.485	92.084	1897449	STOP	n/a	n/a	n/a	n/a	2	[-999 -999 -999]	-999	pyFR	1	TJ042
176963.569	0.882	2081615	START	n/a	n/a	n/a	n/a	3	[-999 -999 -999]	-999	pyFR	1	TJ042
176964.451	6.998	2083379	PROB	n/a	n/a	n/a	n/a	3	[6 7 5]	18	pyFR	1	TJ042
176971.449	5.895	2097375	PROB	n/a	n/a	n/a	n/a	3	[2 4 9]	15	pyFR	1	TJ042
176977.344	4.759	2109165	PROB	n/a	n/a	n/a	n/a	3	[5 9 2]	16	pyFR	1	TJ042
176982.103	11.242	2118683	PROB	n/a	n/a	n/a	n/a	3	[8 4 9]	21	pyFR	1	TJ042
176993.345	98.546	2141167	STOP	n/a	n/a	n/a	n/a	3	[-999 -999 -999]	-999	pyFR	1	TJ042
177091.891	0.851	2338257	START	n/a	n/a	n/a	n/a	4	[-999 -999 -999]	-999	pyFR	1	TJ042
177092.742	11.756	2339959	PROB	n/a	n/a	n/a	n/a	4	[7 5 8]	20	pyFR	1	TJ042
177104.498	5.929	2363471	PROB	n/a	n/a	n/a	n/a	4	[6 8 7]	21	pyFR	1	TJ042
177110.427	7.906	2375329	PROB	n/a	n/a	n/a	n/a	4	[8 5 8]	21	pyFR	1	TJ042
177118.333	308.411	2391141	STOP	n/a	n/a	n/a	n/a	4	[-999 -999 -999]	-999	pyFR	1	TJ042
177426.744	1.168	3007958	START	n/a	n/a	n/a	n/a	5	[-999 -999 -999]	-999	pyFR	1	TJ042
177427.912	4.409	3010294	PROB	n/a	n/a	n/a	n/a	5	[8 1 3]	12	pyFR	1	TJ042
177432.321	5.494	3019112	PROB	n/a	n/a	n/a	n/a	5	[5 7 7]	19	pyFR	1	TJ042
177437.815	4.476	3030100	PROB	n/a	n/a	n/a	n/a	5	[5 1 1]	7	pyFR	1	TJ042
177442.291	5.959	3039051	PROB	n/a	n/a	n/a	n/a	5	[8 4 8]	20	pyFR	1	TJ042
177448.25	101.824	3050969	STOP	n/a	n/a	n/a	n/a	5	[-999 -999 -999]	-999	pyFR	1	TJ042
177550.074	1.185	3254616	START	n/a	n/a	n/a	n/a	6	[-999 -999 -999]	-999	pyFR	1	TJ042
177551.259	13.927	3256986	PROB	n/a	n/a	n/a	n/a	6	[8 8 7]	23	pyFR	1	TJ042
177565.186	15.572	3284839	PROB	n/a	n/a	n/a	n/a	6	[3 3 4]	10	pyFR	1	TJ042
177580.758	225.764	3315983	STOP	n/a	n/a	n/a	n/a	6	[-999 -999 -999]	-999	pyFR	1	TJ042
177806.522	1.034	3767507	START	n/a	n/a	n/a	n/a	7	[-999 -999 -999]	-999	pyFR	1	TJ042
177807.556	4.808	3769575	PROB	n/a	n/a	n/a	n/a	7	[2 5 7]	14	pyFR	1	TJ042
177812.364	5.344	3779191	PROB	n/a	n/a	n/a	n/a	7	[4 5 5]	14	pyFR	1	TJ042
177817.708	15.098	3789879	PROB	n/a	n/a	n/a	n/a	7	[8 3 1]	12	pyFR	1	TJ042
177832.806	2016.384	3820075	STOP	n/a	n/a	n/a	n/a	7	[-999 -999 -999]	-999	pyFR	1	TJ042
179849.19	1.084	7852810	START	n/a	n/a	n/a	n/a	8	[-999 -999 -999]	-999	pyFR	1	TJ042
179850.274	9.052	7854978	PROB	n/a	n/a	n/a	n/a	8	[8 6 8]	22	pyFR	1	TJ042
179859.326	5.228	7873082	PROB	n/a	n/a	n/a	n/a	8	[3 9 8]	20	pyFR	1	TJ042
179864.554	4.041	7883538	PROB	n/a	n/a	n/a	n/a	8	[3 2 1]	6	pyFR	1	TJ042
179868.595	3.433	7891620	PROB	n/a	n/a	n/a	n/a	8	[6 1 9]	16	pyFR	1	TJ042
179872.028	110.212	7898486	STOP	n/a	n/a	n/a	n/a	8	[-999 -999 -999]	-999	pyFR	1	TJ042
179982.24	1.101	8118908	START	n/a	n/a	n/a	n/a	9	[-999 -999 -999]	-999	pyFR	1	TJ042
179983.341	5.978	8121110	PROB	n/a	n/a	n/a	n/a	9	[1 8 9]	18	pyFR	1	TJ042
179989.319	5.295	8133066	PROB	n/a	n/a	n/a	n/a	9	[8 8 2]	18	pyFR	1	TJ042
179994.614	3.874	8143656	PROB	n/a	n/a	n/a	n/a	9	[5 1 8]	14	pyFR	1	TJ042
179998.488	4.784	8151404	PROB	n/a	n/a	n/a	n/a	9	[4 5 9]	18	pyFR	1	TJ042
180003.272	242.111	8160971	STOP	n/a	n/a	n/a	n/a	9	[-999 -999 -999]	-999	pyFR	1	TJ042
180245.383	1.001	8645190	START	n/a	n/a	n/a	n/a	10	[-999 -999 -999]	-999	pyFR	1	TJ042
180246.384	4.176	8647192	PROB	n/a	n/a	n/a	n/a	10	[3 3 2]	8	pyFR	1	TJ042
180250.56	3.355	8655543	PROB	n/a	n/a	n/a	n/a	10	[2 5 4]	11	pyFR	1	TJ042
180253.915	7.064	8662253	PROB	n/a	n/a	n/a	n/a	10	[9 2 9]	20	pyFR	1	TJ042
180260.979	4.125	8676381	PROB	n/a	n/a	n/a	n/a	10	[1 5 9]	15	pyFR	1	TJ042
180265.104	3.807	8684631	PROB	n/a	n/a	n/a	n/a	10	[3 7 2]	12	pyFR	1	TJ042
180268.911	0.0	8692245	STOP	n/a	n/a	n/a	n/a	10	[-999 -999 -999]	-999	pyFR	1	TJ042
