onset	duration	sample	trial_type	response_time	stim_file	item_name	serialpos	list	test	answer	experiment	session	subject
0.0	0.0	754750	B	n/a	n/a	n/a	-999.0	-999	n/a	n/a	pyFR	0	TJ029
0.0	82.374	754750	SESS_START	n/a	n/a	n/a	-999.0	-999	n/a	n/a	pyFR	0	TJ029
82.374	0.039	837121	START	n/a	n/a	n/a	n/a	0	[-999 -999 -999]	-999.0	pyFR	0	TJ029
82.413	10.185	837160	PROB	10.141	n/a	n/a	n/a	0	[3 6 4]	13.0	pyFR	0	TJ029
92.598	5.895	847344	PROB	5.852	n/a	n/a	n/a	0	[2 8 2]	12.0	pyFR	0	TJ029
98.493	7.129	853239	PROB	7.076	n/a	n/a	n/a	0	[1 7 9]	17.0	pyFR	0	TJ029
105.622	7.876	860368	PROB	7.876	n/a	n/a	n/a	0	[6 9 8]	23.0	pyFR	0	TJ029
113.498	55.426	868243	STOP	n/a	n/a	n/a	n/a	0	[-999 -999 -999]	-999.0	pyFR	0	TJ029
168.924	0.016	923667	TRIAL	n/a	n/a	n/a	-999.0	-999	n/a	n/a	pyFR	0	TJ029
168.94	1.6	923683	ORIENT	n/a	n/a	n/a	-999.0	-999	n/a	n/a	pyFR	0	TJ029
171.577	1.6	926320	WORD	n/a	wordpools/wordpool_EN.txt	STOVE	1.0	1	n/a	n/a	pyFR	0	TJ029
174.198	1.6	928941	WORD	n/a	wordpools/wordpool_EN.txt	LAMB	2.0	1	n/a	n/a	pyFR	0	TJ029
176.971	1.6	931714	WORD	n/a	wordpools/wordpool_EN.txt	CROWN	3.0	1	n/a	n/a	pyFR	0	TJ029
179.76	1.6	934502	WORD	n/a	wordpools/wordpool_EN.txt	SLIME	4.0	1	n/a	n/a	pyFR	0	TJ029
182.58	1.6	937322	WORD	n/a	wordpools/wordpool_EN.txt	FILM	5.0	1	n/a	n/a	pyFR	0	TJ029
185.085	1.6	939827	WORD	n/a	wordpools/wordpool_EN.txt	WEB	6.0	1	n/a	n/a	pyFR	0	TJ029
187.741	1.6	942483	WORD	n/a	wordpools/wordpool_EN.txt	PLANT	7.0	1	n/a	n/a	pyFR	0	TJ029
190.361	1.6	945103	WORD	n/a	wordpools/wordpool_EN.txt	SCHOOL	8.0	1	n/a	n/a	pyFR	0	TJ029
193.083	1.6	947825	WORD	n/a	wordpools/wordpool_EN.txt	CAKE	9.0	1	n/a	n/a	pyFR	0	TJ029
195.621	1.6	950363	WORD	n/a	wordpools/wordpool_EN.txt	THREAD	10.0	1	n/a	n/a	pyFR	0	TJ029
198.109	1.6	952851	WORD	n/a	wordpools/wordpool_EN.txt	SUN	11.0	1	n/a	n/a	pyFR	0	TJ029
200.53	1.6	955272	WORD	n/a	wordpools/wordpool_EN.txt	CAVE	12.0	1	n/a	n/a	pyFR	0	TJ029
203.135	1.6	957877	WORD	n/a	wordpools/wordpool_EN.txt	GRAPE	13.0	1	n/a	n/a	pyFR	0	TJ029
205.707	1.6	960448	WORD	n/a	wordpools/wordpool_EN.txt	PANTS	14.0	1	n/a	n/a	pyFR	0	TJ029
208.144	1.6	962885	WORD	n/a	wordpools/wordpool_EN.txt	TRUCK	15.0	1	n/a	n/a	pyFR	0	TJ029
209.749	0.933	964491	START	n/a	n/a	n/a	n/a	1	[-999 -999 -999]	-999.0	pyFR	0	TJ029
210.682	5.46	965423	PROB	5.408	n/a	n/a	n/a	1	[9 2 4]	15.0	pyFR	0	TJ029
216.142	2.237	970883	PROB	2.196	n/a	n/a	n/a	1	[2 4 1]	7.0	pyFR	0	TJ029
218.379	5.026	973120	PROB	4.983	n/a	n/a	n/a	1	[1 9 8]	18.0	pyFR	0	TJ029
223.405	6.028	978146	PROB	5.973	n/a	n/a	n/a	1	[2 6 6]	14.0	pyFR	0	TJ029
229.433	2.545	984174	PROB	2.545	n/a	n/a	n/a	1	[4 5 3]	12.0	pyFR	0	TJ029
231.978	1.416	986719	STOP	n/a	n/a	n/a	n/a	1	[-999 -999 -999]	-999.0	pyFR	0	TJ029
233.394	1.319	988134	REC_START	n/a	n/a	n/a	-999.0	-999	n/a	n/a	pyFR	0	TJ029
234.713	0.323	989453	REC_WORD	1.319	n/a	<>	-999.0	1	n/a	n/a	pyFR	0	TJ029
235.036	1.484	989776	REC_WORD	1.642	n/a	STOVE	-999.0	1	n/a	n/a	pyFR	0	TJ029
236.52	1.6	991260	REC_WORD	3.126	n/a	SLIME	-999.0	1	n/a	n/a	pyFR	0	TJ029
238.12	4.436	992860	REC_WORD	4.726	n/a	SCHOOL	-999.0	1	n/a	n/a	pyFR	0	TJ029
242.556	0.097	997296	REC_WORD	9.162	n/a	<>	-999.0	1	n/a	n/a	pyFR	0	TJ029
242.653	1.614	997393	REC_WORD	9.259	n/a	STRING	-999.0	1	n/a	n/a	pyFR	0	TJ029
244.267	1.584	999007	REC_WORD	10.873	n/a	CAKE	-999.0	1	n/a	n/a	pyFR	0	TJ029
245.851	2.14	1000591	REC_WORD	12.457	n/a	CROWN	-999.0	1	n/a	n/a	pyFR	0	TJ029
247.991	4.062	1002731	REC_WORD	14.597	n/a	LAMB	-999.0	1	n/a	n/a	pyFR	0	TJ029
252.053	8.65	1006793	REC_WORD	18.659	n/a	CROWN	-999.0	1	n/a	n/a	pyFR	0	TJ029
260.703	6.177	1015442	REC_WORD	27.309	n/a	WEB	-999.0	1	n/a	n/a	pyFR	0	TJ029
266.88	1.0	1021619	REC_WORD	33.486	n/a	<>	-999.0	1	n/a	n/a	pyFR	0	TJ029
267.88	1.0	1022619	REC_WORD	34.486	n/a	<>	-999.0	1	n/a	n/a	pyFR	0	TJ029
268.88	1.0	1023619	REC_WORD	35.486	n/a	<>	-999.0	1	n/a	n/a	pyFR	0	TJ029
269.88	1.0	1024619	REC_WORD	36.486	n/a	<>	-999.0	1	n/a	n/a	pyFR	0	TJ029
270.88	1.0	1025619	REC_WORD	37.486	n/a	<>	-999.0	1	n/a	n/a	pyFR	0	TJ029
271.88	29.203	1026619	REC_WORD	38.486	n/a	<>	-999.0	1	n/a	n/a	pyFR	0	TJ029
301.083	0.015	1055821	TRIAL	n/a	n/a	n/a	-999.0	-999	n/a	n/a	pyFR	0	TJ029
301.098	1.6	1055836	ORIENT	n/a	n/a	n/a	-999.0	-999	n/a	n/a	pyFR	0	TJ029
304.004	1.6	1058741	WORD	n/a	wordpools/wordpool_EN.txt	TEETH	1.0	2	n/a	n/a	pyFR	0	TJ029
306.625	1.6	1061362	WORD	n/a	wordpools/wordpool_EN.txt	BADGE	2.0	2	n/a	n/a	pyFR	0	TJ029
309.246	1.6	1063983	WORD	n/a	wordpools/wordpool_EN.txt	DIME	3.0	2	n/a	n/a	pyFR	0	TJ029
311.936	1.6	1066673	WORD	n/a	wordpools/wordpool_EN.txt	HAT	4.0	2	n/a	n/a	pyFR	0	TJ029
314.473	1.6	1069210	WORD	n/a	wordpools/wordpool_EN.txt	BRICK	5.0	2	n/a	n/a	pyFR	0	TJ029
316.911	1.6	1071648	WORD	n/a	wordpools/wordpool_EN.txt	CAR	6.0	2	n/a	n/a	pyFR	0	TJ029
319.398	1.6	1074135	WORD	n/a	wordpools/wordpool_EN.txt	HORN	7.0	2	n/a	n/a	pyFR	0	TJ029
322.137	1.6	1076874	WORD	n/a	wordpools/wordpool_EN.txt	VAN	8.0	2	n/a	n/a	pyFR	0	TJ029
324.826	1.6	1079563	WORD	n/a	wordpools/wordpool_EN.txt	STAIR	9.0	2	n/a	n/a	pyFR	0	TJ029
327.363	1.6	1082099	WORD	n/a	wordpools/wordpool_EN.txt	QUEEN	10.0	2	n/a	n/a	pyFR	0	TJ029
329.935	1.6	1084671	WORD	n/a	wordpools/wordpool_EN.txt	CROW	11.0	2	n/a	n/a	pyFR	0	TJ029
332.656	1.6	1087392	WORD	n/a	wordpools/wordpool_EN.txt	SHEET	12.0	2	n/a	n/a	pyFR	0	TJ029
335.378	1.6	1090114	WORD	n/a	wordpools/wordpool_EN.txt	PRINCE	13.0	2	n/a	n/a	pyFR	0	TJ029
337.85	1.6	1092586	WORD	n/a	wordpools/wordpool_EN.txt	CORN	14.0	2	n/a	n/a	pyFR	0	TJ029
340.621	1.6	1095357	WORD	n/a	wordpools/wordpool_EN.txt	BRIDGE	15.0	2	n/a	n/a	pyFR	0	TJ029
342.242	0.917	1096978	START	n/a	n/a	n/a	n/a	2	[-999 -999 -999]	-999.0	pyFR	0	TJ029
343.159	4.593	1097895	PROB	4.54	n/a	n/a	n/a	2	[8 1 4]	13.0	pyFR	0	TJ029
347.752	3.205	1102488	PROB	3.163	n/a	n/a	n/a	2	[5 7 2]	14.0	pyFR	0	TJ029
350.957	6.094	1105693	PROB	6.046	n/a	n/a	n/a	2	[6 7 3]	16.0	pyFR	0	TJ029
357.051	4.274	1111787	PROB	4.23	n/a	n/a	n/a	2	[9 7 9]	25.0	pyFR	0	TJ029
361.325	3.893	1116060	PROB	3.893	n/a	n/a	n/a	2	[8 3 7]	17.0	pyFR	0	TJ029
365.218	1.201	1119953	STOP	n/a	n/a	n/a	n/a	2	[-999 -999 -999]	-999.0	pyFR	0	TJ029
366.419	3.735	1121154	REC_START	n/a	n/a	n/a	-999.0	-999	n/a	n/a	pyFR	0	TJ029
370.154	0.921	1124889	REC_WORD	3.735	n/a	<>	-999.0	2	n/a	n/a	pyFR	0	TJ029
371.075	1.693	1125810	REC_WORD	4.656	n/a	QUEEN	-999.0	2	n/a	n/a	pyFR	0	TJ029
372.768	1.66	1127503	REC_WORD	6.349	n/a	PRINCE	-999.0	2	n/a	n/a	pyFR	0	TJ029
374.428	1.497	1129163	REC_WORD	8.009	n/a	CROW	-999.0	2	n/a	n/a	pyFR	0	TJ029
375.925	2.479	1130660	REC_WORD	9.506	n/a	TEETH	-999.0	2	n/a	n/a	pyFR	0	TJ029
378.404	19.593	1133138	REC_WORD	11.985	n/a	BADGE	-999.0	2	n/a	n/a	pyFR	0	TJ029
397.997	0.28	1152731	REC_WORD	31.578	n/a	<>	-999.0	2	n/a	n/a	pyFR	0	TJ029
398.277	8.38	1153011	REC_WORD	31.858	n/a	CROW	-999.0	2	n/a	n/a	pyFR	0	TJ029
406.657	1.0	1161390	REC_WORD	40.238	n/a	<>	-999.0	2	n/a	n/a	pyFR	0	TJ029
407.657	6.75	1162390	REC_WORD	41.238	n/a	<>	-999.0	2	n/a	n/a	pyFR	0	TJ029
414.407	0.016	1169140	TRIAL	n/a	n/a	n/a	-999.0	-999	n/a	n/a	pyFR	0	TJ029
414.423	1.6	1169156	ORIENT	n/a	n/a	n/a	-999.0	-999	n/a	n/a	pyFR	0	TJ029
417.462	1.6	1172195	WORD	n/a	wordpools/wordpool_EN.txt	GOAT	1.0	3	n/a	n/a	pyFR	0	TJ029
420.1	1.6	1174833	WORD	n/a	wordpools/wordpool_EN.txt	SPRING	2.0	3	n/a	n/a	pyFR	0	TJ029
422.873	1.6	1177606	WORD	n/a	wordpools/wordpool_EN.txt	BOOK	3.0	3	n/a	n/a	pyFR	0	TJ029
425.493	1.6	1180226	WORD	n/a	wordpools/wordpool_EN.txt	BIRD	4.0	3	n/a	n/a	pyFR	0	TJ029
428.282	1.6	1183014	WORD	n/a	wordpools/wordpool_EN.txt	SKY	5.0	3	n/a	n/a	pyFR	0	TJ029
430.721	1.6	1185453	WORD	n/a	wordpools/wordpool_EN.txt	DESK	6.0	3	n/a	n/a	pyFR	0	TJ029
433.374	1.6	1188106	WORD	n/a	wordpools/wordpool_EN.txt	SALT	7.0	3	n/a	n/a	pyFR	0	TJ029
435.997	1.6	1190729	WORD	n/a	wordpools/wordpool_EN.txt	CAT	8.0	3	n/a	n/a	pyFR	0	TJ029
438.517	1.6	1193249	WORD	n/a	wordpools/wordpool_EN.txt	WEED	9.0	3	n/a	n/a	pyFR	0	TJ029
441.306	1.6	1196038	WORD	n/a	wordpools/wordpool_EN.txt	CAGE	10.0	3	n/a	n/a	pyFR	0	TJ029
444.011	1.6	1198743	WORD	n/a	wordpools/wordpool_EN.txt	GUARD	11.0	3	n/a	n/a	pyFR	0	TJ029
446.532	1.6	1201264	WORD	n/a	wordpools/wordpool_EN.txt	FLAG	12.0	3	n/a	n/a	pyFR	0	TJ029
449.27	1.6	1204002	WORD	n/a	wordpools/wordpool_EN.txt	CLOUD	13.0	3	n/a	n/a	pyFR	0	TJ029
451.759	1.6	1206490	WORD	n/a	wordpools/wordpool_EN.txt	PHONE	14.0	3	n/a	n/a	pyFR	0	TJ029
454.513	1.6	1209244	WORD	n/a	wordpools/wordpool_EN.txt	RICE	15.0	3	n/a	n/a	pyFR	0	TJ029
456.118	1.0	1210850	START	n/a	n/a	n/a	n/a	3	[-999 -999 -999]	-999.0	pyFR	0	TJ029
457.118	3.54	1211849	PROB	3.492	n/a	n/a	n/a	3	[1 2 4]	7.0	pyFR	0	TJ029
460.658	3.79	1215389	PROB	3.736	n/a	n/a	n/a	3	[1 8 6]	15.0	pyFR	0	TJ029
464.448	3.006	1219179	PROB	2.962	n/a	n/a	n/a	3	[9 6 4]	14.0	pyFR	0	TJ029
467.454	4.325	1222185	PROB	4.269	n/a	n/a	n/a	3	[5 5 7]	17.0	pyFR	0	TJ029
471.779	3.239	1226510	PROB	3.184	n/a	n/a	n/a	3	[3 3 1]	7.0	pyFR	0	TJ029
475.018	3.168	1229749	PROB	3.168	n/a	n/a	n/a	3	[1 4 3]	8.0	pyFR	0	TJ029
478.186	1.074	1232917	STOP	n/a	n/a	n/a	n/a	3	[-999 -999 -999]	-999.0	pyFR	0	TJ029
479.26	1.775	1233990	REC_START	n/a	n/a	n/a	-999.0	-999	n/a	n/a	pyFR	0	TJ029
481.035	1.244	1235765	REC_WORD	1.775	n/a	<>	-999.0	3	n/a	n/a	pyFR	0	TJ029
482.279	1.072	1237009	REC_WORD	3.019	n/a	GOAT	-999.0	3	n/a	n/a	pyFR	0	TJ029
483.351	3.61	1238081	REC_WORD	4.091	n/a	DESK	-999.0	3	n/a	n/a	pyFR	0	TJ029
486.961	4.269	1241691	REC_WORD	7.701	n/a	WEED	-999.0	3	n/a	n/a	pyFR	0	TJ029
491.23	3.835	1245960	REC_WORD	11.97	n/a	FLAG	-999.0	3	n/a	n/a	pyFR	0	TJ029
495.065	6.172	1249795	REC_WORD	15.805	n/a	CORN	-999.0	3	n/a	n/a	pyFR	0	TJ029
501.237	10.113	1255966	REC_WORD	21.977	n/a	POLE	-999.0	3	n/a	n/a	pyFR	0	TJ029
511.35	19.104	1266079	REC_WORD	32.09	n/a	BADGE	-999.0	3	n/a	n/a	pyFR	0	TJ029
530.454	0.016	1285182	TRIAL	n/a	n/a	n/a	-999.0	-999	n/a	n/a	pyFR	0	TJ029
530.47	1.6	1285198	ORIENT	n/a	n/a	n/a	-999.0	-999	n/a	n/a	pyFR	0	TJ029
533.241	1.6	1287969	WORD	n/a	wordpools/wordpool_EN.txt	BUSH	1.0	4	n/a	n/a	pyFR	0	TJ029
535.697	1.6	1290425	WORD	n/a	wordpools/wordpool_EN.txt	HOLE	2.0	4	n/a	n/a	pyFR	0	TJ029
538.234	1.6	1292962	WORD	n/a	wordpools/wordpool_EN.txt	CLOTH	3.0	4	n/a	n/a	pyFR	0	TJ029
541.039	1.6	1295767	WORD	n/a	wordpools/wordpool_EN.txt	BENCH	4.0	4	n/a	n/a	pyFR	0	TJ029
543.544	1.6	1298272	WORD	n/a	wordpools/wordpool_EN.txt	WAND	5.0	4	n/a	n/a	pyFR	0	TJ029
545.999	1.6	1300727	WORD	n/a	wordpools/wordpool_EN.txt	PEACH	6.0	4	n/a	n/a	pyFR	0	TJ029
548.436	1.6	1303164	WORD	n/a	wordpools/wordpool_EN.txt	FOOT	7.0	4	n/a	n/a	pyFR	0	TJ029
551.107	1.6	1305834	WORD	n/a	wordpools/wordpool_EN.txt	CUP	8.0	4	n/a	n/a	pyFR	0	TJ029
553.697	1.6	1308424	WORD	n/a	wordpools/wordpool_EN.txt	COIN	9.0	4	n/a	n/a	pyFR	0	TJ029
556.334	1.6	1311061	WORD	n/a	wordpools/wordpool_EN.txt	BRANCH	10.0	4	n/a	n/a	pyFR	0	TJ029
559.072	1.6	1313799	WORD	n/a	wordpools/wordpool_EN.txt	JET	11.0	4	n/a	n/a	pyFR	0	TJ029
561.761	1.6	1316488	WORD	n/a	wordpools/wordpool_EN.txt	OWL	12.0	4	n/a	n/a	pyFR	0	TJ029
564.482	1.6	1319209	WORD	n/a	wordpools/wordpool_EN.txt	GOLD	13.0	4	n/a	n/a	pyFR	0	TJ029
567.07	1.6	1321797	WORD	n/a	wordpools/wordpool_EN.txt	FRUIT	14.0	4	n/a	n/a	pyFR	0	TJ029
569.759	1.6	1324486	WORD	n/a	wordpools/wordpool_EN.txt	EGG	15.0	4	n/a	n/a	pyFR	0	TJ029
571.38	0.833	1326107	START	n/a	n/a	n/a	n/a	4	[-999 -999 -999]	-999.0	pyFR	0	TJ029
572.213	6.63	1326940	PROB	6.582	n/a	n/a	n/a	4	[5 9 4]	18.0	pyFR	0	TJ029
578.843	6.011	1333570	PROB	5.959	n/a	n/a	n/a	4	[4 9 5]	18.0	pyFR	0	TJ029
584.854	4.024	1339580	PROB	3.981	n/a	n/a	n/a	4	[1 5 6]	12.0	pyFR	0	TJ029
588.878	3.476	1343604	PROB	3.476	n/a	n/a	n/a	4	[4 7 1]	12.0	pyFR	0	TJ029
592.354	1.216	1347080	STOP	n/a	n/a	n/a	n/a	4	[-999 -999 -999]	-999.0	pyFR	0	TJ029
593.57	0.973	1348296	REC_START	n/a	n/a	n/a	-999.0	-999	n/a	n/a	pyFR	0	TJ029
594.543	1.0	1349269	REC_WORD	0.973	n/a	<>	-999.0	4	n/a	n/a	pyFR	0	TJ029
595.543	2.529	1350269	REC_WORD	1.973	n/a	<>	-999.0	4	n/a	n/a	pyFR	0	TJ029
598.072	1.31	1352797	REC_WORD	4.502	n/a	BRANCH	-999.0	4	n/a	n/a	pyFR	0	TJ029
599.382	1.463	1354107	REC_WORD	5.812	n/a	BUSH	-999.0	4	n/a	n/a	pyFR	0	TJ029
600.845	1.802	1355570	REC_WORD	7.275	n/a	COIN	-999.0	4	n/a	n/a	pyFR	0	TJ029
602.647	1.904	1357372	REC_WORD	9.077	n/a	GOLD	-999.0	4	n/a	n/a	pyFR	0	TJ029
604.551	3.824	1359276	REC_WORD	10.981	n/a	JET	-999.0	4	n/a	n/a	pyFR	0	TJ029
608.375	14.695	1363100	REC_WORD	14.805	n/a	CUP	-999.0	4	n/a	n/a	pyFR	0	TJ029
623.07	17.536	1377794	REC_WORD	29.5	n/a	TREE	-999.0	4	n/a	n/a	pyFR	0	TJ029
640.606	0.016	1395330	TRIAL	n/a	n/a	n/a	-999.0	-999	n/a	n/a	pyFR	0	TJ029
640.622	1.6	1395346	ORIENT	n/a	n/a	n/a	-999.0	-999	n/a	n/a	pyFR	0	TJ029
643.477	1.6	1398201	WORD	n/a	wordpools/wordpool_EN.txt	PALM	1.0	5	n/a	n/a	pyFR	0	TJ029
645.966	1.6	1400690	WORD	n/a	wordpools/wordpool_EN.txt	STOOL	2.0	5	n/a	n/a	pyFR	0	TJ029
648.503	1.6	1403226	WORD	n/a	wordpools/wordpool_EN.txt	CANE	3.0	5	n/a	n/a	pyFR	0	TJ029
651.175	1.6	1405898	WORD	n/a	wordpools/wordpool_EN.txt	SOAP	4.0	5	n/a	n/a	pyFR	0	TJ029
653.881	1.6	1408604	WORD	n/a	wordpools/wordpool_EN.txt	SHRIMP	5.0	5	n/a	n/a	pyFR	0	TJ029
656.568	1.6	1411291	WORD	n/a	wordpools/wordpool_EN.txt	SNOW	6.0	5	n/a	n/a	pyFR	0	TJ029
659.24	1.6	1413963	WORD	n/a	wordpools/wordpool_EN.txt	STRAW	7.0	5	n/a	n/a	pyFR	0	TJ029
661.879	1.6	1416602	WORD	n/a	wordpools/wordpool_EN.txt	SLUSH	8.0	5	n/a	n/a	pyFR	0	TJ029
664.649	1.6	1419372	WORD	n/a	wordpools/wordpool_EN.txt	WORLD	9.0	5	n/a	n/a	pyFR	0	TJ029
667.288	1.6	1422011	WORD	n/a	wordpools/wordpool_EN.txt	BEAN	10.0	5	n/a	n/a	pyFR	0	TJ029
669.877	1.6	1424600	WORD	n/a	wordpools/wordpool_EN.txt	LAND	11.0	5	n/a	n/a	pyFR	0	TJ029
672.631	1.6	1427353	WORD	n/a	wordpools/wordpool_EN.txt	NEST	12.0	5	n/a	n/a	pyFR	0	TJ029
675.102	1.6	1429824	WORD	n/a	wordpools/wordpool_EN.txt	NET	13.0	5	n/a	n/a	pyFR	0	TJ029
677.724	1.6	1432446	WORD	n/a	wordpools/wordpool_EN.txt	PIE	14.0	5	n/a	n/a	pyFR	0	TJ029
680.479	1.6	1435201	WORD	n/a	wordpools/wordpool_EN.txt	SHIELD	15.0	5	n/a	n/a	pyFR	0	TJ029
682.1	0.933	1436822	START	n/a	n/a	n/a	n/a	5	[-999 -999 -999]	-999.0	pyFR	0	TJ029
683.033	5.343	1437755	PROB	5.297	n/a	n/a	n/a	5	[1 8 3]	12.0	pyFR	0	TJ029
688.376	2.839	1443098	PROB	2.794	n/a	n/a	n/a	5	[7 7 7]	21.0	pyFR	0	TJ029
691.215	5.628	1445937	PROB	5.588	n/a	n/a	n/a	5	[3 9 5]	17.0	pyFR	0	TJ029
696.843	3.874	1451565	PROB	3.822	n/a	n/a	n/a	5	[4 3 7]	14.0	pyFR	0	TJ029
700.717	3.286	1455439	PROB	3.286	n/a	n/a	n/a	5	[5 4 9]	18.0	pyFR	0	TJ029
704.003	1.172	1458724	STOP	n/a	n/a	n/a	n/a	5	[-999 -999 -999]	-999.0	pyFR	0	TJ029
705.175	1.513	1459896	REC_START	n/a	n/a	n/a	-999.0	-999	n/a	n/a	pyFR	0	TJ029
706.688	0.361	1461409	REC_WORD	1.513	n/a	<>	-999.0	5	n/a	n/a	pyFR	0	TJ029
707.049	1.611	1461770	REC_WORD	1.874	n/a	PALM	-999.0	5	n/a	n/a	pyFR	0	TJ029
708.66	7.943	1463381	REC_WORD	3.485	n/a	PIE	-999.0	5	n/a	n/a	pyFR	0	TJ029
716.603	5.679	1471324	REC_WORD	11.428	n/a	SHIELD	-999.0	5	n/a	n/a	pyFR	0	TJ029
722.282	2.45	1477002	REC_WORD	17.107	n/a	BEAN	-999.0	5	n/a	n/a	pyFR	0	TJ029
724.732	125.376	1479452	REC_WORD	19.557	n/a	LAND	-999.0	5	n/a	n/a	pyFR	0	TJ029
850.108	0.016	1604823	TRIAL	n/a	n/a	n/a	-999.0	-999	n/a	n/a	pyFR	0	TJ029
850.124	1.6	1604839	ORIENT	n/a	n/a	n/a	-999.0	-999	n/a	n/a	pyFR	0	TJ029
853.062	1.6	1607777	WORD	n/a	wordpools/wordpool_EN.txt	SEA	1.0	6	n/a	n/a	pyFR	0	TJ029
855.534	1.6	1610249	WORD	n/a	wordpools/wordpool_EN.txt	SUIT	2.0	6	n/a	n/a	pyFR	0	TJ029
858.238	1.6	1612953	WORD	n/a	wordpools/wordpool_EN.txt	PLATE	3.0	6	n/a	n/a	pyFR	0	TJ029
860.66	1.6	1615375	WORD	n/a	wordpools/wordpool_EN.txt	MULE	4.0	6	n/a	n/a	pyFR	0	TJ029
863.164	1.6	1617879	WORD	n/a	wordpools/wordpool_EN.txt	SNAKE	5.0	6	n/a	n/a	pyFR	0	TJ029
865.837	1.6	1620552	WORD	n/a	wordpools/wordpool_EN.txt	FOG	6.0	6	n/a	n/a	pyFR	0	TJ029
868.658	1.6	1623372	WORD	n/a	wordpools/wordpool_EN.txt	ROOF	7.0	6	n/a	n/a	pyFR	0	TJ029
871.429	1.6	1626143	WORD	n/a	wordpools/wordpool_EN.txt	BALL	8.0	6	n/a	n/a	pyFR	0	TJ029
873.918	1.6	1628632	WORD	n/a	wordpools/wordpool_EN.txt	BELL	9.0	6	n/a	n/a	pyFR	0	TJ029
876.455	1.6	1631169	WORD	n/a	wordpools/wordpool_EN.txt	SHEEP	10.0	6	n/a	n/a	pyFR	0	TJ029
879.11	1.6	1633824	WORD	n/a	wordpools/wordpool_EN.txt	MUD	11.0	6	n/a	n/a	pyFR	0	TJ029
881.816	1.6	1636530	WORD	n/a	wordpools/wordpool_EN.txt	BOARD	12.0	6	n/a	n/a	pyFR	0	TJ029
884.637	1.6	1639351	WORD	n/a	wordpools/wordpool_EN.txt	PEARL	13.0	6	n/a	n/a	pyFR	0	TJ029
887.392	1.6	1642106	WORD	n/a	wordpools/wordpool_EN.txt	FACE	14.0	6	n/a	n/a	pyFR	0	TJ029
889.831	1.6	1644545	WORD	n/a	wordpools/wordpool_EN.txt	SEED	15.0	6	n/a	n/a	pyFR	0	TJ029
891.451	0.917	1646165	START	n/a	n/a	n/a	n/a	6	[-999 -999 -999]	-999.0	pyFR	0	TJ029
892.368	3.507	1647082	PROB	3.459	n/a	n/a	n/a	6	[3 7 5]	15.0	pyFR	0	TJ029
895.875	2.287	1650589	PROB	2.247	n/a	n/a	n/a	6	[5 4 2]	11.0	pyFR	0	TJ029
898.162	4.525	1652876	PROB	4.48	n/a	n/a	n/a	6	[8 2 1]	11.0	pyFR	0	TJ029
902.687	2.738	1657400	PROB	2.691	n/a	n/a	n/a	6	[7 2 9]	18.0	pyFR	0	TJ029
905.425	2.355	1660138	PROB	2.314	n/a	n/a	n/a	6	[4 1 6]	11.0	pyFR	0	TJ029
907.78	3.958	1662493	PROB	3.958	n/a	n/a	n/a	6	[7 2 8]	17.0	pyFR	0	TJ029
911.738	1.169	1666451	STOP	n/a	n/a	n/a	n/a	6	[-999 -999 -999]	-999.0	pyFR	0	TJ029
912.907	1.964	1667620	REC_START	n/a	n/a	n/a	-999.0	-999	n/a	n/a	pyFR	0	TJ029
914.871	1.731	1669584	REC_WORD	1.964	n/a	<>	-999.0	6	n/a	n/a	pyFR	0	TJ029
916.602	1.537	1671315	REC_WORD	3.695	n/a	BOARD	-999.0	6	n/a	n/a	pyFR	0	TJ029
918.139	3.906	1672851	REC_WORD	5.232	n/a	SUIT	-999.0	6	n/a	n/a	pyFR	0	TJ029
922.045	3.755	1676757	REC_WORD	9.138	n/a	SHEEP	-999.0	6	n/a	n/a	pyFR	0	TJ029
925.8	6.688	1680512	REC_WORD	12.893	n/a	SUIT	-999.0	6	n/a	n/a	pyFR	0	TJ029
932.488	2.6	1687200	REC_WORD	19.581	n/a	BELL	-999.0	6	n/a	n/a	pyFR	0	TJ029
935.088	6.329	1689800	REC_WORD	22.181	n/a	PLATE	-999.0	6	n/a	n/a	pyFR	0	TJ029
941.417	20.697	1696129	REC_WORD	28.51	n/a	SEA	-999.0	6	n/a	n/a	pyFR	0	TJ029
962.114	0.015	1716825	TRIAL	n/a	n/a	n/a	-999.0	-999	n/a	n/a	pyFR	0	TJ029
962.129	1.6	1716840	ORIENT	n/a	n/a	n/a	-999.0	-999	n/a	n/a	pyFR	0	TJ029
965.002	1.6	1719713	WORD	n/a	wordpools/wordpool_EN.txt	SHELL	1.0	7	n/a	n/a	pyFR	0	TJ029
967.791	1.6	1722501	WORD	n/a	wordpools/wordpool_EN.txt	SEAT	2.0	7	n/a	n/a	pyFR	0	TJ029
970.578	1.6	1725288	WORD	n/a	wordpools/wordpool_EN.txt	GLOVE	3.0	7	n/a	n/a	pyFR	0	TJ029
973.099	1.6	1727809	WORD	n/a	wordpools/wordpool_EN.txt	TRAIN	4.0	7	n/a	n/a	pyFR	0	TJ029
975.822	1.6	1730532	WORD	n/a	wordpools/wordpool_EN.txt	LAWN	5.0	7	n/a	n/a	pyFR	0	TJ029
978.443	1.6	1733153	WORD	n/a	wordpools/wordpool_EN.txt	FARM	6.0	7	n/a	n/a	pyFR	0	TJ029
980.898	1.6	1735608	WORD	n/a	wordpools/wordpool_EN.txt	SHIP	7.0	7	n/a	n/a	pyFR	0	TJ029
983.519	1.6	1738229	WORD	n/a	wordpools/wordpool_EN.txt	CALF	8.0	7	n/a	n/a	pyFR	0	TJ029
986.34	1.6	1741050	WORD	n/a	wordpools/wordpool_EN.txt	CRANE	9.0	7	n/a	n/a	pyFR	0	TJ029
988.846	1.6	1743556	WORD	n/a	wordpools/wordpool_EN.txt	VINE	10.0	7	n/a	n/a	pyFR	0	TJ029
991.517	1.6	1746227	WORD	n/a	wordpools/wordpool_EN.txt	POLE	11.0	7	n/a	n/a	pyFR	0	TJ029
994.155	1.6	1748864	WORD	n/a	wordpools/wordpool_EN.txt	INK	12.0	7	n/a	n/a	pyFR	0	TJ029
996.576	1.6	1751285	WORD	n/a	wordpools/wordpool_EN.txt	DUCK	13.0	7	n/a	n/a	pyFR	0	TJ029
999.331	1.6	1754040	WORD	n/a	wordpools/wordpool_EN.txt	STICK	14.0	7	n/a	n/a	pyFR	0	TJ029
1001.87	1.6	1756579	WORD	n/a	wordpools/wordpool_EN.txt	BOOT	15.0	7	n/a	n/a	pyFR	0	TJ029
1003.49	0.867	1758199	START	n/a	n/a	n/a	n/a	7	[-999 -999 -999]	-999.0	pyFR	0	TJ029
1004.357	3.072	1759066	PROB	3.021	n/a	n/a	n/a	7	[2 1 1]	4.0	pyFR	0	TJ029
1007.429	2.339	1762138	PROB	2.294	n/a	n/a	n/a	7	[1 3 5]	9.0	pyFR	0	TJ029
1009.768	3.856	1764477	PROB	3.81	n/a	n/a	n/a	7	[6 8 3]	17.0	pyFR	0	TJ029
1013.624	5.644	1768333	PROB	5.594	n/a	n/a	n/a	7	[4 8 5]	17.0	pyFR	0	TJ029
1019.268	4.302	1773977	PROB	4.302	n/a	n/a	n/a	7	[1 7 6]	14.0	pyFR	0	TJ029
1023.57	1.075	1778278	STOP	n/a	n/a	n/a	n/a	7	[-999 -999 -999]	-999.0	pyFR	0	TJ029
1024.645	1.697	1779353	REC_START	n/a	n/a	n/a	-999.0	-999	n/a	n/a	pyFR	0	TJ029
1026.342	1.393	1781050	REC_WORD	1.697	n/a	<>	-999.0	7	n/a	n/a	pyFR	0	TJ029
1027.735	2.107	1782443	REC_WORD	3.09	n/a	DUCK	-999.0	7	n/a	n/a	pyFR	0	TJ029
1029.842	3.181	1784550	REC_WORD	5.197	n/a	STICK	-999.0	7	n/a	n/a	pyFR	0	TJ029
1033.023	2.572	1787731	REC_WORD	8.378	n/a	BOOT	-999.0	7	n/a	n/a	pyFR	0	TJ029
1035.595	2.537	1790303	REC_WORD	10.95	n/a	SEAT	-999.0	7	n/a	n/a	pyFR	0	TJ029
1038.132	3.215	1792840	REC_WORD	13.487	n/a	LAWN	-999.0	7	n/a	n/a	pyFR	0	TJ029
1041.347	4.086	1796054	REC_WORD	16.702	n/a	SEA	-999.0	7	n/a	n/a	pyFR	0	TJ029
1045.433	19.506	1800140	REC_WORD	20.788	n/a	CALF	-999.0	7	n/a	n/a	pyFR	0	TJ029
1064.939	12.387	1819646	REC_WORD	40.294	n/a	<>	-999.0	7	n/a	n/a	pyFR	0	TJ029
1077.326	0.015	1832032	TRIAL	n/a	n/a	n/a	-999.0	-999	n/a	n/a	pyFR	0	TJ029
1077.341	1.6	1832047	ORIENT	n/a	n/a	n/a	-999.0	-999	n/a	n/a	pyFR	0	TJ029
1080.23	1.6	1834936	WORD	n/a	wordpools/wordpool_EN.txt	CHAIR	1.0	8	n/a	n/a	pyFR	0	TJ029
1082.719	1.6	1837425	WORD	n/a	wordpools/wordpool_EN.txt	BRUSH	2.0	8	n/a	n/a	pyFR	0	TJ029
1085.322	1.6	1840028	WORD	n/a	wordpools/wordpool_EN.txt	SMOKE	3.0	8	n/a	n/a	pyFR	0	TJ029
1087.928	1.6	1842634	WORD	n/a	wordpools/wordpool_EN.txt	MOLE	4.0	8	n/a	n/a	pyFR	0	TJ029
1090.582	1.6	1845287	WORD	n/a	wordpools/wordpool_EN.txt	LAKE	5.0	8	n/a	n/a	pyFR	0	TJ029
1093.087	1.6	1847792	WORD	n/a	wordpools/wordpool_EN.txt	BOAT	6.0	8	n/a	n/a	pyFR	0	TJ029
1095.826	1.6	1850531	WORD	n/a	wordpools/wordpool_EN.txt	STEAM	7.0	8	n/a	n/a	pyFR	0	TJ029
1098.33	1.6	1853035	WORD	n/a	wordpools/wordpool_EN.txt	CASH	8.0	8	n/a	n/a	pyFR	0	TJ029
1101.118	1.6	1855823	WORD	n/a	wordpools/wordpool_EN.txt	ANT	9.0	8	n/a	n/a	pyFR	0	TJ029
1103.639	1.6	1858344	WORD	n/a	wordpools/wordpool_EN.txt	HOOF	10.0	8	n/a	n/a	pyFR	0	TJ029
1106.161	1.6	1860866	WORD	n/a	wordpools/wordpool_EN.txt	JAIL	11.0	8	n/a	n/a	pyFR	0	TJ029
1108.967	1.6	1863672	WORD	n/a	wordpools/wordpool_EN.txt	HOSE	12.0	8	n/a	n/a	pyFR	0	TJ029
1111.537	1.6	1866242	WORD	n/a	wordpools/wordpool_EN.txt	FLAME	13.0	8	n/a	n/a	pyFR	0	TJ029
1114.058	1.6	1868763	WORD	n/a	wordpools/wordpool_EN.txt	STAR	14.0	8	n/a	n/a	pyFR	0	TJ029
1116.63	1.6	1871334	WORD	n/a	wordpools/wordpool_EN.txt	FOOD	15.0	8	n/a	n/a	pyFR	0	TJ029
1118.251	0.917	1872956	START	n/a	n/a	n/a	n/a	8	[-999 -999 -999]	-999.0	pyFR	0	TJ029
1119.168	7.313	1873873	PROB	7.266	n/a	n/a	n/a	8	[9 7 5]	21.0	pyFR	0	TJ029
1126.481	3.073	1881185	PROB	3.025	n/a	n/a	n/a	8	[9 1 5]	15.0	pyFR	0	TJ029
1129.554	6.329	1884258	PROB	6.281	n/a	n/a	n/a	8	[4 8 9]	21.0	pyFR	0	TJ029
1135.883	4.438	1890587	PROB	4.438	n/a	n/a	n/a	8	[3 5 7]	15.0	pyFR	0	TJ029
1140.321	1.122	1895025	STOP	n/a	n/a	n/a	n/a	8	[-999 -999 -999]	-999.0	pyFR	0	TJ029
1141.443	3.5	1896146	REC_START	n/a	n/a	n/a	-999.0	-999	n/a	n/a	pyFR	0	TJ029
1144.943	2.893	1899646	REC_WORD	3.5	n/a	BOAT	-999.0	8	n/a	n/a	pyFR	0	TJ029
1147.836	15.979	1902539	REC_WORD	6.393	n/a	CHAIR	-999.0	8	n/a	n/a	pyFR	0	TJ029
1163.815	32.729	1918517	REC_WORD	22.372	n/a	MOLE	-999.0	8	n/a	n/a	pyFR	0	TJ029
1196.544	0.016	1951245	TRIAL	n/a	n/a	n/a	-999.0	-999	n/a	n/a	pyFR	0	TJ029
1196.56	1.6	1951261	ORIENT	n/a	n/a	n/a	-999.0	-999	n/a	n/a	pyFR	0	TJ029
1199.215	1.6	1953916	WORD	n/a	wordpools/wordpool_EN.txt	SKUNK	1.0	9	n/a	n/a	pyFR	0	TJ029
1201.787	1.6	1956488	WORD	n/a	wordpools/wordpool_EN.txt	SPEAR	2.0	9	n/a	n/a	pyFR	0	TJ029
1204.224	1.6	1958925	WORD	n/a	wordpools/wordpool_EN.txt	ROOM	3.0	9	n/a	n/a	pyFR	0	TJ029
1206.73	1.6	1961431	WORD	n/a	wordpools/wordpool_EN.txt	WING	4.0	9	n/a	n/a	pyFR	0	TJ029
1209.217	1.6	1963918	WORD	n/a	wordpools/wordpool_EN.txt	DAD	5.0	9	n/a	n/a	pyFR	0	TJ029
1212.006	1.6	1966707	WORD	n/a	wordpools/wordpool_EN.txt	WALL	6.0	9	n/a	n/a	pyFR	0	TJ029
1214.56	1.6	1969260	WORD	n/a	wordpools/wordpool_EN.txt	YARD	7.0	9	n/a	n/a	pyFR	0	TJ029
1217.348	1.6	1972048	WORD	n/a	wordpools/wordpool_EN.txt	CLIFF	8.0	9	n/a	n/a	pyFR	0	TJ029
1219.804	1.6	1974504	WORD	n/a	wordpools/wordpool_EN.txt	KITE	9.0	9	n/a	n/a	pyFR	0	TJ029
1222.241	1.6	1976941	WORD	n/a	wordpools/wordpool_EN.txt	TAPE	10.0	9	n/a	n/a	pyFR	0	TJ029
1224.93	1.6	1979630	WORD	n/a	wordpools/wordpool_EN.txt	SPARK	11.0	9	n/a	n/a	pyFR	0	TJ029
1227.467	1.6	1982167	WORD	n/a	wordpools/wordpool_EN.txt	TOOL	12.0	9	n/a	n/a	pyFR	0	TJ029
1230.155	1.6	1984855	WORD	n/a	wordpools/wordpool_EN.txt	CLAY	13.0	9	n/a	n/a	pyFR	0	TJ029
1232.844	1.6	1987544	WORD	n/a	wordpools/wordpool_EN.txt	WAVE	14.0	9	n/a	n/a	pyFR	0	TJ029
1235.415	1.6	1990115	WORD	n/a	wordpools/wordpool_EN.txt	MAIL	15.0	9	n/a	n/a	pyFR	0	TJ029
1237.036	1.067	1991736	START	n/a	n/a	n/a	n/a	9	[-999 -999 -999]	-999.0	pyFR	0	TJ029
1238.103	6.78	1992803	PROB	6.74	n/a	n/a	n/a	9	[7 2 5]	14.0	pyFR	0	TJ029
1244.883	4.14	1999582	PROB	4.095	n/a	n/a	n/a	9	[8 7 8]	20.0	pyFR	0	TJ029
1249.023	4.241	2003722	PROB	4.187	n/a	n/a	n/a	9	[5 2 6]	13.0	pyFR	0	TJ029
1253.264	2.656	2007963	PROB	2.61	n/a	n/a	n/a	9	[5 3 1]	9.0	pyFR	0	TJ029
1255.92	4.386	2010619	PROB	4.386	n/a	n/a	n/a	9	[5 2 2]	9.0	pyFR	0	TJ029
1260.306	1.207	2015005	STOP	n/a	n/a	n/a	n/a	9	[-999 -999 -999]	-999.0	pyFR	0	TJ029
1261.513	2.438	2016212	REC_START	n/a	n/a	n/a	-999.0	-999	n/a	n/a	pyFR	0	TJ029
1263.951	0.285	2018649	REC_WORD	2.438	n/a	<>	-999.0	9	n/a	n/a	pyFR	0	TJ029
1264.236	1.833	2018934	REC_WORD	2.723	n/a	SKUNK	-999.0	9	n/a	n/a	pyFR	0	TJ029
1266.069	2.232	2020767	REC_WORD	4.556	n/a	WAVE	-999.0	9	n/a	n/a	pyFR	0	TJ029
1268.301	3.754	2022999	REC_WORD	6.788	n/a	DAD	-999.0	9	n/a	n/a	pyFR	0	TJ029
1272.055	3.534	2026753	REC_WORD	10.542	n/a	YARD	-999.0	9	n/a	n/a	pyFR	0	TJ029
1275.589	3.62	2030287	REC_WORD	14.076	n/a	MAIL	-999.0	9	n/a	n/a	pyFR	0	TJ029
1279.209	32.782	2033907	REC_WORD	17.696	n/a	CLIFF	-999.0	9	n/a	n/a	pyFR	0	TJ029
1311.991	0.016	2066687	TRIAL	n/a	n/a	n/a	-999.0	-999	n/a	n/a	pyFR	0	TJ029
1312.007	1.6	2066703	ORIENT	n/a	n/a	n/a	-999.0	-999	n/a	n/a	pyFR	0	TJ029
1314.728	1.6	2069424	WORD	n/a	wordpools/wordpool_EN.txt	POOL	1.0	10	n/a	n/a	pyFR	0	TJ029
1317.449	1.6	2072145	WORD	n/a	wordpools/wordpool_EN.txt	SLEEVE	2.0	10	n/a	n/a	pyFR	0	TJ029
1320.154	1.6	2074850	WORD	n/a	wordpools/wordpool_EN.txt	BEACH	3.0	10	n/a	n/a	pyFR	0	TJ029
1322.642	1.6	2077338	WORD	n/a	wordpools/wordpool_EN.txt	FENCE	4.0	10	n/a	n/a	pyFR	0	TJ029
1325.347	1.6	2080043	WORD	n/a	wordpools/wordpool_EN.txt	TOOTH	5.0	10	n/a	n/a	pyFR	0	TJ029
1327.986	1.6	2082682	WORD	n/a	wordpools/wordpool_EN.txt	BLUSH	6.0	10	n/a	n/a	pyFR	0	TJ029
1330.506	1.6	2085202	WORD	n/a	wordpools/wordpool_EN.txt	BOY	7.0	10	n/a	n/a	pyFR	0	TJ029
1333.161	1.6	2087857	WORD	n/a	wordpools/wordpool_EN.txt	MOUSE	8.0	10	n/a	n/a	pyFR	0	TJ029
1335.767	1.6	2090463	WORD	n/a	wordpools/wordpool_EN.txt	CORD	9.0	10	n/a	n/a	pyFR	0	TJ029
1338.421	1.6	2093116	WORD	n/a	wordpools/wordpool_EN.txt	BANK	10.0	10	n/a	n/a	pyFR	0	TJ029
1341.059	1.6	2095754	WORD	n/a	wordpools/wordpool_EN.txt	CAPE	11.0	10	n/a	n/a	pyFR	0	TJ029
1343.53	1.6	2098225	WORD	n/a	wordpools/wordpool_EN.txt	WOOD	12.0	10	n/a	n/a	pyFR	0	TJ029
1346.352	1.6	2101047	WORD	n/a	wordpools/wordpool_EN.txt	GLASS	13.0	10	n/a	n/a	pyFR	0	TJ029
1348.824	1.6	2103519	WORD	n/a	wordpools/wordpool_EN.txt	SHOE	14.0	10	n/a	n/a	pyFR	0	TJ029
1351.461	1.6	2106156	WORD	n/a	wordpools/wordpool_EN.txt	CLOWN	15.0	10	n/a	n/a	pyFR	0	TJ029
1353.083	0.966	2107778	START	n/a	n/a	n/a	n/a	10	[-999 -999 -999]	-999.0	pyFR	0	TJ029
1354.049	4.794	2108744	PROB	4.746	n/a	n/a	n/a	10	[1 9 9]	19.0	pyFR	0	TJ029
1358.843	2.82	2113538	PROB	2.767	n/a	n/a	n/a	10	[5 2 6]	13.0	pyFR	0	TJ029
1361.663	2.922	2116358	PROB	2.866	n/a	n/a	n/a	10	[5 8 2]	15.0	pyFR	0	TJ029
1364.585	2.772	2119280	PROB	2.729	n/a	n/a	n/a	10	[6 1 4]	11.0	pyFR	0	TJ029
1367.357	3.006	2122051	PROB	2.957	n/a	n/a	n/a	10	[7 7 2]	16.0	pyFR	0	TJ029
1370.363	2.935	2125057	PROB	2.935	n/a	n/a	n/a	10	[5 2 2]	9.0	pyFR	0	TJ029
1373.298	1.206	2127992	STOP	n/a	n/a	n/a	n/a	10	[-999 -999 -999]	-999.0	pyFR	0	TJ029
1374.504	2.531	2129198	REC_START	n/a	n/a	n/a	-999.0	-999	n/a	n/a	pyFR	0	TJ029
1377.035	15.397	2131729	REC_WORD	2.531	n/a	<>	-999.0	10	n/a	n/a	pyFR	0	TJ029
1392.432	0.275	2147125	REC_WORD	17.928	n/a	<>	-999.0	10	n/a	n/a	pyFR	0	TJ029
1392.707	160.359	2147400	REC_WORD	18.203	n/a	POOL	-999.0	10	n/a	n/a	pyFR	0	TJ029
1553.066	0.016	2307753	TRIAL	n/a	n/a	n/a	-999.0	-999	n/a	n/a	pyFR	0	TJ029
1553.082	1.6	2307769	ORIENT	n/a	n/a	n/a	-999.0	-999	n/a	n/a	pyFR	0	TJ029
1555.871	1.6	2310558	WORD	n/a	wordpools/wordpool_EN.txt	NAIL	1.0	11	n/a	n/a	pyFR	0	TJ029
1558.492	1.6	2313178	WORD	n/a	wordpools/wordpool_EN.txt	PIPE	2.0	11	n/a	n/a	pyFR	0	TJ029
1561.247	1.6	2315933	WORD	n/a	wordpools/wordpool_EN.txt	STRING	3.0	11	n/a	n/a	pyFR	0	TJ029
1563.853	1.6	2318539	WORD	n/a	wordpools/wordpool_EN.txt	CUBE	4.0	11	n/a	n/a	pyFR	0	TJ029
1566.673	1.6	2321359	WORD	n/a	wordpools/wordpool_EN.txt	HORSE	5.0	11	n/a	n/a	pyFR	0	TJ029
1569.412	1.6	2324098	WORD	n/a	wordpools/wordpool_EN.txt	MILK	6.0	11	n/a	n/a	pyFR	0	TJ029
1571.968	1.6	2326654	WORD	n/a	wordpools/wordpool_EN.txt	BOWL	7.0	11	n/a	n/a	pyFR	0	TJ029
1574.521	1.6	2329207	WORD	n/a	wordpools/wordpool_EN.txt	TREE	8.0	11	n/a	n/a	pyFR	0	TJ029
1577.209	1.6	2331895	WORD	n/a	wordpools/wordpool_EN.txt	DOG	9.0	11	n/a	n/a	pyFR	0	TJ029
1579.749	1.6	2334435	WORD	n/a	wordpools/wordpool_EN.txt	STORM	10.0	11	n/a	n/a	pyFR	0	TJ029
1582.553	1.6	2337238	WORD	n/a	wordpools/wordpool_EN.txt	HEN	11.0	11	n/a	n/a	pyFR	0	TJ029
1585.158	1.6	2339843	WORD	n/a	wordpools/wordpool_EN.txt	MUG	12.0	11	n/a	n/a	pyFR	0	TJ029
1587.93	1.6	2342615	WORD	n/a	wordpools/wordpool_EN.txt	DRESS	13.0	11	n/a	n/a	pyFR	0	TJ029
1590.434	1.6	2345119	WORD	n/a	wordpools/wordpool_EN.txt	GATE	14.0	11	n/a	n/a	pyFR	0	TJ029
1593.055	1.6	2347740	WORD	n/a	wordpools/wordpool_EN.txt	BOMB	15.0	11	n/a	n/a	pyFR	0	TJ029
1594.676	0.967	2349361	START	n/a	n/a	n/a	n/a	11	[-999 -999 -999]	-999.0	pyFR	0	TJ029
1595.643	4.343	2350328	PROB	4.295	n/a	n/a	n/a	11	[2 2 4]	8.0	pyFR	0	TJ029
1599.986	4.507	2354671	PROB	4.456	n/a	n/a	n/a	11	[3 8 9]	20.0	pyFR	0	TJ029
1604.493	3.274	2359178	PROB	3.23	n/a	n/a	n/a	11	[9 8 1]	18.0	pyFR	0	TJ029
1607.767	4.39	2362452	PROB	4.338	n/a	n/a	n/a	11	[9 6 5]	20.0	pyFR	0	TJ029
1612.157	2.404	2366841	PROB	2.341	n/a	n/a	n/a	11	[8 1 1]	10.0	pyFR	0	TJ029
1614.561	2.833	2369245	PROB	2.833	n/a	n/a	n/a	11	[1 3 4]	8.0	pyFR	0	TJ029
1617.394	1.092	2372078	STOP	n/a	n/a	n/a	n/a	11	[-999 -999 -999]	-999.0	pyFR	0	TJ029
1618.486	1.606	2373170	REC_START	n/a	n/a	n/a	-999.0	-999	n/a	n/a	pyFR	0	TJ029
1620.092	0.615	2374776	REC_WORD	1.606	n/a	<>	-999.0	11	n/a	n/a	pyFR	0	TJ029
1620.707	2.289	2375391	REC_WORD	2.221	n/a	HORSE	-999.0	11	n/a	n/a	pyFR	0	TJ029
1622.996	3.258	2377680	REC_WORD	4.51	n/a	TREE	-999.0	11	n/a	n/a	pyFR	0	TJ029
1626.254	4.705	2380938	REC_WORD	7.768	n/a	BOWL	-999.0	11	n/a	n/a	pyFR	0	TJ029
1630.959	42.295	2385643	REC_WORD	12.473	n/a	NAIL	-999.0	11	n/a	n/a	pyFR	0	TJ029
1673.254	0.015	2427936	TRIAL	n/a	n/a	n/a	-999.0	-999	n/a	n/a	pyFR	0	TJ029
1673.269	1.6	2427951	ORIENT	n/a	n/a	n/a	-999.0	-999	n/a	n/a	pyFR	0	TJ029
1676.074	1.6	2430756	WORD	n/a	wordpools/wordpool_EN.txt	MOON	1.0	12	n/a	n/a	pyFR	0	TJ029
1678.881	1.6	2433563	WORD	n/a	wordpools/wordpool_EN.txt	LOCK	2.0	12	n/a	n/a	pyFR	0	TJ029
1681.551	1.6	2436232	WORD	n/a	wordpools/wordpool_EN.txt	DOLL	3.0	12	n/a	n/a	pyFR	0	TJ029
1684.056	1.6	2438737	WORD	n/a	wordpools/wordpool_EN.txt	PASTE	4.0	12	n/a	n/a	pyFR	0	TJ029
1686.56	1.6	2441241	WORD	n/a	wordpools/wordpool_EN.txt	ROCK	5.0	12	n/a	n/a	pyFR	0	TJ029
1689.182	1.6	2443863	WORD	n/a	wordpools/wordpool_EN.txt	BEAK	6.0	12	n/a	n/a	pyFR	0	TJ029
1691.721	1.6	2446402	WORD	n/a	wordpools/wordpool_EN.txt	TOE	7.0	12	n/a	n/a	pyFR	0	TJ029
1694.341	1.6	2449022	WORD	n/a	wordpools/wordpool_EN.txt	POND	8.0	12	n/a	n/a	pyFR	0	TJ029
1696.864	1.6	2451545	WORD	n/a	wordpools/wordpool_EN.txt	DRUM	9.0	12	n/a	n/a	pyFR	0	TJ029
1699.568	1.6	2454249	WORD	n/a	wordpools/wordpool_EN.txt	HAND	10.0	12	n/a	n/a	pyFR	0	TJ029
1702.239	1.6	2456920	WORD	n/a	wordpools/wordpool_EN.txt	TOAD	11.0	12	n/a	n/a	pyFR	0	TJ029
1704.862	1.6	2459543	WORD	n/a	wordpools/wordpool_EN.txt	CHIEF	12.0	12	n/a	n/a	pyFR	0	TJ029
1707.549	1.6	2462229	WORD	n/a	wordpools/wordpool_EN.txt	JAR	13.0	12	n/a	n/a	pyFR	0	TJ029
1710.271	1.6	2464951	WORD	n/a	wordpools/wordpool_EN.txt	TRASH	14.0	12	n/a	n/a	pyFR	0	TJ029
1712.76	1.6	2467440	WORD	n/a	wordpools/wordpool_EN.txt	ARK	15.0	12	n/a	n/a	pyFR	0	TJ029
1714.38	0.95	2469060	START	n/a	n/a	n/a	n/a	12	[-999 -999 -999]	-999.0	pyFR	0	TJ029
1715.33	4.141	2470010	PROB	4.088	n/a	n/a	n/a	12	[2 5 8]	15.0	pyFR	0	TJ029
1719.471	2.738	2474151	PROB	2.683	n/a	n/a	n/a	12	[4 1 1]	6.0	pyFR	0	TJ029
1722.209	3.691	2476889	PROB	3.65	n/a	n/a	n/a	12	[7 4 1]	12.0	pyFR	0	TJ029
1725.9	3.389	2480580	PROB	3.334	n/a	n/a	n/a	12	[7 2 4]	13.0	pyFR	0	TJ029
1729.289	2.556	2483969	PROB	2.514	n/a	n/a	n/a	12	[7 2 7]	16.0	pyFR	0	TJ029
1731.845	2.319	2486525	PROB	2.277	n/a	n/a	n/a	12	[3 1 5]	9.0	pyFR	0	TJ029
1734.164	3.695	2488843	PROB	3.695	n/a	n/a	n/a	12	[2 2 9]	13.0	pyFR	0	TJ029
1737.859	1.165	2492538	STOP	n/a	n/a	n/a	n/a	12	[-999 -999 -999]	-999.0	pyFR	0	TJ029
1739.024	3.677	2493703	REC_START	n/a	n/a	n/a	-999.0	-999	n/a	n/a	pyFR	0	TJ029
1742.701	2.406	2497380	REC_WORD	3.677	n/a	HAND	-999.0	12	n/a	n/a	pyFR	0	TJ029
1745.107	3.105	2499786	REC_WORD	6.083	n/a	DRUM	-999.0	12	n/a	n/a	pyFR	0	TJ029
1748.212	3.032	2502891	REC_WORD	9.188	n/a	ARK	-999.0	12	n/a	n/a	pyFR	0	TJ029
1751.244	27.979	2505923	REC_WORD	12.22	n/a	TOE	-999.0	12	n/a	n/a	pyFR	0	TJ029
1779.223	2.858	2533900	REC_WORD	40.199	n/a	MOON	-999.0	12	n/a	n/a	pyFR	0	TJ029
1782.081	10.777	2536758	REC_WORD	43.057	n/a	LOCK	-999.0	12	n/a	n/a	pyFR	0	TJ029
1792.858	0.015	2547535	TRIAL	n/a	n/a	n/a	-999.0	-999	n/a	n/a	pyFR	0	TJ029
1792.873	1.6	2547550	ORIENT	n/a	n/a	n/a	-999.0	-999	n/a	n/a	pyFR	0	TJ029
1795.527	1.6	2550204	WORD	n/a	wordpools/wordpool_EN.txt	CHIN	1.0	13	n/a	n/a	pyFR	0	TJ029
1798.316	1.6	2552993	WORD	n/a	wordpools/wordpool_EN.txt	SAIL	2.0	13	n/a	n/a	pyFR	0	TJ029
1800.921	1.6	2555598	WORD	n/a	wordpools/wordpool_EN.txt	DEER	3.0	13	n/a	n/a	pyFR	0	TJ029
1803.575	1.6	2558252	WORD	n/a	wordpools/wordpool_EN.txt	PARK	4.0	13	n/a	n/a	pyFR	0	TJ029
1806.197	1.6	2560873	WORD	n/a	wordpools/wordpool_EN.txt	SKI	5.0	13	n/a	n/a	pyFR	0	TJ029
1808.886	1.6	2563562	WORD	n/a	wordpools/wordpool_EN.txt	WORM	6.0	13	n/a	n/a	pyFR	0	TJ029
1811.64	1.6	2566316	WORD	n/a	wordpools/wordpool_EN.txt	LIP	7.0	13	n/a	n/a	pyFR	0	TJ029
1814.295	1.6	2568971	WORD	n/a	wordpools/wordpool_EN.txt	PIT	8.0	13	n/a	n/a	pyFR	0	TJ029
1816.784	1.6	2571460	WORD	n/a	wordpools/wordpool_EN.txt	SMILE	9.0	13	n/a	n/a	pyFR	0	TJ029
1819.288	1.6	2573964	WORD	n/a	wordpools/wordpool_EN.txt	FLOOR	10.0	13	n/a	n/a	pyFR	0	TJ029
1822.026	1.6	2576702	WORD	n/a	wordpools/wordpool_EN.txt	FLUTE	11.0	13	n/a	n/a	pyFR	0	TJ029
1824.699	1.6	2579375	WORD	n/a	wordpools/wordpool_EN.txt	SHARK	12.0	13	n/a	n/a	pyFR	0	TJ029
1827.202	1.6	2581878	WORD	n/a	wordpools/wordpool_EN.txt	HOOK	13.0	13	n/a	n/a	pyFR	0	TJ029
1829.791	1.6	2584466	WORD	n/a	wordpools/wordpool_EN.txt	ROOT	14.0	13	n/a	n/a	pyFR	0	TJ029
1832.262	1.6	2586937	WORD	n/a	wordpools/wordpool_EN.txt	CHEEK	15.0	13	n/a	n/a	pyFR	0	TJ029
1833.867	1.017	2588542	START	n/a	n/a	n/a	n/a	13	[-999 -999 -999]	-999.0	pyFR	0	TJ029
1834.884	3.857	2589559	PROB	3.815	n/a	n/a	n/a	13	[7 1 7]	15.0	pyFR	0	TJ029
1838.741	4.357	2593416	PROB	4.317	n/a	n/a	n/a	13	[9 6 4]	19.0	pyFR	0	TJ029
1843.098	5.093	2597773	PROB	5.04	n/a	n/a	n/a	13	[4 1 9]	14.0	pyFR	0	TJ029
1848.191	4.776	2602866	PROB	4.723	n/a	n/a	n/a	13	[7 3 7]	17.0	pyFR	0	TJ029
1852.967	3.131	2607642	PROB	3.131	n/a	n/a	n/a	13	[2 5 8]	15.0	pyFR	0	TJ029
1856.098	1.227	2610773	STOP	n/a	n/a	n/a	n/a	13	[-999 -999 -999]	-999.0	pyFR	0	TJ029
1857.325	1.759	2611999	REC_START	n/a	n/a	n/a	-999.0	-999	n/a	n/a	pyFR	0	TJ029
1859.084	1.551	2613758	REC_WORD	1.759	n/a	<>	-999.0	13	n/a	n/a	pyFR	0	TJ029
1860.635	2.59	2615309	REC_WORD	3.31	n/a	CHIN	-999.0	13	n/a	n/a	pyFR	0	TJ029
1863.225	6.382	2617899	REC_WORD	5.9	n/a	SKI	-999.0	13	n/a	n/a	pyFR	0	TJ029
1869.607	21.405	2624281	REC_WORD	12.282	n/a	FLOOR	-999.0	13	n/a	n/a	pyFR	0	TJ029
1891.012	13.852	2645685	REC_WORD	33.687	n/a	OWL	-999.0	13	n/a	n/a	pyFR	0	TJ029
1904.864	0.015	2659536	TRIAL	n/a	n/a	n/a	-999.0	-999	n/a	n/a	pyFR	0	TJ029
1904.879	1.6	2659551	ORIENT	n/a	n/a	n/a	-999.0	-999	n/a	n/a	pyFR	0	TJ029
1907.734	1.6	2662406	WORD	n/a	wordpools/wordpool_EN.txt	FROG	1.0	14	n/a	n/a	pyFR	0	TJ029
1910.271	1.6	2664943	WORD	n/a	wordpools/wordpool_EN.txt	HAWK	2.0	14	n/a	n/a	pyFR	0	TJ029
1912.977	1.6	2667649	WORD	n/a	wordpools/wordpool_EN.txt	LEG	3.0	14	n/a	n/a	pyFR	0	TJ029
1915.783	1.6	2670455	WORD	n/a	wordpools/wordpool_EN.txt	MOUTH	4.0	14	n/a	n/a	pyFR	0	TJ029
1918.453	1.6	2673125	WORD	n/a	wordpools/wordpool_EN.txt	JUDGE	5.0	14	n/a	n/a	pyFR	0	TJ029
1921.058	1.6	2675730	WORD	n/a	wordpools/wordpool_EN.txt	OAK	6.0	14	n/a	n/a	pyFR	0	TJ029
1923.881	1.6	2678553	WORD	n/a	wordpools/wordpool_EN.txt	WHEEL	7.0	14	n/a	n/a	pyFR	0	TJ029
1926.401	1.6	2681073	WORD	n/a	wordpools/wordpool_EN.txt	HOUSE	8.0	14	n/a	n/a	pyFR	0	TJ029
1928.857	1.6	2683528	WORD	n/a	wordpools/wordpool_EN.txt	RUG	9.0	14	n/a	n/a	pyFR	0	TJ029
1931.343	1.6	2686014	WORD	n/a	wordpools/wordpool_EN.txt	NOSE	10.0	14	n/a	n/a	pyFR	0	TJ029
1933.999	1.6	2688670	WORD	n/a	wordpools/wordpool_EN.txt	BLOOM	11.0	14	n/a	n/a	pyFR	0	TJ029
1936.52	1.6	2691191	WORD	n/a	wordpools/wordpool_EN.txt	ZOO	12.0	14	n/a	n/a	pyFR	0	TJ029
1939.208	1.6	2693879	WORD	n/a	wordpools/wordpool_EN.txt	SWAMP	13.0	14	n/a	n/a	pyFR	0	TJ029
1941.747	1.6	2696418	WORD	n/a	wordpools/wordpool_EN.txt	PET	14.0	14	n/a	n/a	pyFR	0	TJ029
1944.217	1.6	2698888	WORD	n/a	wordpools/wordpool_EN.txt	COAT	15.0	14	n/a	n/a	pyFR	0	TJ029
1945.823	0.95	2700494	START	n/a	n/a	n/a	n/a	14	[-999 -999 -999]	-999.0	pyFR	0	TJ029
1946.773	4.207	2701444	PROB	4.158	n/a	n/a	n/a	14	[1 2 9]	12.0	pyFR	0	TJ029
1950.98	3.991	2705651	PROB	3.943	n/a	n/a	n/a	14	[7 7 6]	20.0	pyFR	0	TJ029
1954.971	3.272	2709641	PROB	3.231	n/a	n/a	n/a	14	[7 3 9]	19.0	pyFR	0	TJ029
1958.243	3.773	2712913	PROB	3.728	n/a	n/a	n/a	14	[6 5 3]	19.0	pyFR	0	TJ029
1962.016	4.218	2716686	PROB	4.218	n/a	n/a	n/a	14	[7 1 8]	16.0	pyFR	0	TJ029
1966.234	1.11	2720904	STOP	n/a	n/a	n/a	n/a	14	[-999 -999 -999]	-999.0	pyFR	0	TJ029
1967.344	3.576	2722014	REC_START	n/a	n/a	n/a	-999.0	-999	n/a	n/a	pyFR	0	TJ029
1970.92	2.802	2725590	REC_WORD	3.576	n/a	BLOOM	-999.0	14	n/a	n/a	pyFR	0	TJ029
1973.722	76.175	2728392	REC_WORD	6.378	n/a	SWAMP	-999.0	14	n/a	n/a	pyFR	0	TJ029
2049.897	0.015	2804563	TRIAL	n/a	n/a	n/a	-999.0	-999	n/a	n/a	pyFR	0	TJ029
2049.912	1.6	2804578	ORIENT	n/a	n/a	n/a	-999.0	-999	n/a	n/a	pyFR	0	TJ029
2052.884	1.6	2807550	WORD	n/a	wordpools/wordpool_EN.txt	BAT	1.0	15	n/a	n/a	pyFR	0	TJ029
2055.488	1.6	2810154	WORD	n/a	wordpools/wordpool_EN.txt	SIGN	2.0	15	n/a	n/a	pyFR	0	TJ029
2058.093	1.6	2812759	WORD	n/a	wordpools/wordpool_EN.txt	MOOSE	3.0	15	n/a	n/a	pyFR	0	TJ029
2060.816	1.6	2815482	WORD	n/a	wordpools/wordpool_EN.txt	PLANE	4.0	15	n/a	n/a	pyFR	0	TJ029
2063.653	1.6	2818319	WORD	n/a	wordpools/wordpool_EN.txt	BEAR	5.0	15	n/a	n/a	pyFR	0	TJ029
2066.124	1.6	2820790	WORD	n/a	wordpools/wordpool_EN.txt	EEL	6.0	15	n/a	n/a	pyFR	0	TJ029
2068.931	1.6	2823597	WORD	n/a	wordpools/wordpool_EN.txt	HILL	7.0	15	n/a	n/a	pyFR	0	TJ029
2071.568	1.6	2826234	WORD	n/a	wordpools/wordpool_EN.txt	FOAM	8.0	15	n/a	n/a	pyFR	0	TJ029
2074.106	1.6	2828772	WORD	n/a	wordpools/wordpool_EN.txt	SINK	9.0	15	n/a	n/a	pyFR	0	TJ029
2076.745	1.6	2831410	WORD	n/a	wordpools/wordpool_EN.txt	PEAR	10.0	15	n/a	n/a	pyFR	0	TJ029
2079.365	1.6	2834030	WORD	n/a	wordpools/wordpool_EN.txt	KEY	11.0	15	n/a	n/a	pyFR	0	TJ029
2081.871	1.6	2836536	WORD	n/a	wordpools/wordpool_EN.txt	FISH	12.0	15	n/a	n/a	pyFR	0	TJ029
2084.441	1.6	2839106	WORD	n/a	wordpools/wordpool_EN.txt	HEART	13.0	15	n/a	n/a	pyFR	0	TJ029
2086.997	1.6	2841662	WORD	n/a	wordpools/wordpool_EN.txt	MAT	14.0	15	n/a	n/a	pyFR	0	TJ029
2089.584	1.6	2844249	WORD	n/a	wordpools/wordpool_EN.txt	RAIN	15.0	15	n/a	n/a	pyFR	0	TJ029
2091.189	1.0	2845854	START	n/a	n/a	n/a	n/a	15	[-999 -999 -999]	-999.0	pyFR	0	TJ029
2092.189	4.76	2846854	PROB	4.718	n/a	n/a	n/a	15	[6 2 6]	14.0	pyFR	0	TJ029
2096.949	2.805	2851614	PROB	2.75	n/a	n/a	n/a	15	[3 7 9]	19.0	pyFR	0	TJ029
2099.754	2.37	2854419	PROB	2.32	n/a	n/a	n/a	15	[1 6 6]	13.0	pyFR	0	TJ029
2102.124	3.056	2856788	PROB	3.013	n/a	n/a	n/a	15	[5 1 2]	8.0	pyFR	0	TJ029
2105.18	3.022	2859844	PROB	2.974	n/a	n/a	n/a	15	[5 9 1]	15.0	pyFR	0	TJ029
2108.202	6.464	2862866	PROB	6.464	n/a	n/a	n/a	15	[8 5 9]	22.0	pyFR	0	TJ029
2114.666	1.151	2869330	STOP	n/a	n/a	n/a	n/a	15	[-999 -999 -999]	-999.0	pyFR	0	TJ029
2115.817	1.733	2870481	REC_START	n/a	n/a	n/a	-999.0	-999	n/a	n/a	pyFR	0	TJ029
2117.55	0.568	2872214	REC_WORD	1.733	n/a	<>	-999.0	15	n/a	n/a	pyFR	0	TJ029
2118.118	2.441	2872782	REC_WORD	2.301	n/a	MOOSE	-999.0	15	n/a	n/a	pyFR	0	TJ029
2120.559	3.138	2875223	REC_WORD	4.742	n/a	BAT	-999.0	15	n/a	n/a	pyFR	0	TJ029
2123.697	3.324	2878360	REC_WORD	7.88	n/a	RAIN	-999.0	15	n/a	n/a	pyFR	0	TJ029
2127.021	3.115	2881684	REC_WORD	11.204	n/a	MAT	-999.0	15	n/a	n/a	pyFR	0	TJ029
2130.136	3.21	2884799	REC_WORD	14.319	n/a	HEART	-999.0	15	n/a	n/a	pyFR	0	TJ029
2133.346	7.755	2888009	REC_WORD	17.529	n/a	EEL	-999.0	15	n/a	n/a	pyFR	0	TJ029
2141.101	7.03	2895764	REC_WORD	25.284	n/a	HILL	-999.0	15	n/a	n/a	pyFR	0	TJ029
2148.131	7.704	2902793	REC_WORD	32.314	n/a	BEAR	-999.0	15	n/a	n/a	pyFR	0	TJ029
2155.835	9.389	2910497	REC_WORD	40.018	n/a	PLANE	-999.0	15	n/a	n/a	pyFR	0	TJ029
2165.224	0.016	2919886	TRIAL	n/a	n/a	n/a	-999.0	-999	n/a	n/a	pyFR	0	TJ029
2165.24	1.6	2919902	ORIENT	n/a	n/a	n/a	-999.0	-999	n/a	n/a	pyFR	0	TJ029
2168.028	1.6	2922690	WORD	n/a	wordpools/wordpool_EN.txt	MAP	1.0	16	n/a	n/a	pyFR	0	TJ029
2170.466	1.6	2925128	WORD	n/a	wordpools/wordpool_EN.txt	DOOR	2.0	16	n/a	n/a	pyFR	0	TJ029
2172.955	1.6	2927616	WORD	n/a	wordpools/wordpool_EN.txt	BEE	3.0	16	n/a	n/a	pyFR	0	TJ029
2175.492	1.6	2930153	WORD	n/a	wordpools/wordpool_EN.txt	SOUP	4.0	16	n/a	n/a	pyFR	0	TJ029
2178.297	1.6	2932958	WORD	n/a	wordpools/wordpool_EN.txt	TAIL	5.0	16	n/a	n/a	pyFR	0	TJ029
2180.953	1.6	2935614	WORD	n/a	wordpools/wordpool_EN.txt	CHALK	6.0	16	n/a	n/a	pyFR	0	TJ029
2183.44	1.6	2938101	WORD	n/a	wordpools/wordpool_EN.txt	WHALE	7.0	16	n/a	n/a	pyFR	0	TJ029
2186.095	1.6	2940756	WORD	n/a	wordpools/wordpool_EN.txt	RIB	8.0	16	n/a	n/a	pyFR	0	TJ029
2188.818	1.6	2943479	WORD	n/a	wordpools/wordpool_EN.txt	STEM	9.0	16	n/a	n/a	pyFR	0	TJ029
2191.288	1.6	2945949	WORD	n/a	wordpools/wordpool_EN.txt	JEEP	10.0	16	n/a	n/a	pyFR	0	TJ029
2193.91	1.6	2948571	WORD	n/a	wordpools/wordpool_EN.txt	LEAF	11.0	16	n/a	n/a	pyFR	0	TJ029
2196.547	1.6	2951208	WORD	n/a	wordpools/wordpool_EN.txt	FLEA	12.0	16	n/a	n/a	pyFR	0	TJ029
2199.202	1.6	2953862	WORD	n/a	wordpools/wordpool_EN.txt	BATH	13.0	16	n/a	n/a	pyFR	0	TJ029
2201.842	1.6	2956502	WORD	n/a	wordpools/wordpool_EN.txt	CARD	14.0	16	n/a	n/a	pyFR	0	TJ029
2204.562	1.6	2959222	WORD	n/a	wordpools/wordpool_EN.txt	CART	15.0	16	n/a	n/a	pyFR	0	TJ029
2206.167	0.933	2960827	START	n/a	n/a	n/a	n/a	16	[-999 -999 -999]	-999.0	pyFR	0	TJ029
2207.1	13.508	2961760	PROB	13.462	n/a	n/a	n/a	16	[7 8 9]	25.0	pyFR	0	TJ029
2220.608	4.726	2975268	PROB	4.682	n/a	n/a	n/a	16	[4 7 4]	15.0	pyFR	0	TJ029
2225.334	3.02	2979993	PROB	3.02	n/a	n/a	n/a	16	[5 4 6]	15.0	pyFR	0	TJ029
2228.354	1.205	2983013	STOP	n/a	n/a	n/a	n/a	16	[-999 -999 -999]	-999.0	pyFR	0	TJ029
2229.559	2.258	2984218	REC_START	n/a	n/a	n/a	-999.0	-999	n/a	n/a	pyFR	0	TJ029
2231.817	0.986	2986476	REC_WORD	2.258	n/a	<>	-999.0	16	n/a	n/a	pyFR	0	TJ029
2232.803	2.032	2987462	REC_WORD	3.244	n/a	MAP	-999.0	16	n/a	n/a	pyFR	0	TJ029
2234.835	4.533	2989494	REC_WORD	5.276	n/a	DOOR	-999.0	16	n/a	n/a	pyFR	0	TJ029
2239.368	3.654	2994027	REC_WORD	9.809	n/a	HEART	-999.0	16	n/a	n/a	pyFR	0	TJ029
2243.022	27.398	2997681	REC_WORD	13.463	n/a	RIB	-999.0	16	n/a	n/a	pyFR	0	TJ029
2270.42	626.232	3025078	REC_WORD	40.861	n/a	WHALE	-999.0	16	n/a	n/a	pyFR	0	TJ029
2896.652	0.116	3651284	SESS_END	n/a	n/a	n/a	-999.0	-999	n/a	n/a	pyFR	0	TJ029
2896.768	0.0	3651400	E	n/a	n/a	n/a	-999.0	-999	n/a	n/a	pyFR	0	TJ029
