onset	duration	sample	trial_type	response_time	stim_file	item_name	serialpos	list	test	answer	experiment	session	subject
0.0	0.0	47828	SESS_START	n/a	n/a	n/a	-999	-999	n/a	n/a	pyFR	0	UP046
0.0	65.836	47828	B	n/a	n/a	n/a	-999	-999	n/a	n/a	pyFR	0	UP046
65.836	0.02	64287	START	n/a	n/a	n/a	n/a	0	[-999 -999 -999]	-999	pyFR	0	UP046
65.856	19.469	64292	PROB	19.44	n/a	n/a	n/a	0	[9 1 1]	11	pyFR	0	UP046
85.325	9.95	69159	PROB	9.914	n/a	n/a	n/a	0	[6 5 5]	16	pyFR	0	UP046
95.275	6.292	71647	PROB	6.292	n/a	n/a	n/a	0	[9 3 3]	15	pyFR	0	UP046
101.567	111.896	73220	STOP	n/a	n/a	n/a	n/a	0	[-999 -999 -999]	-999	pyFR	0	UP046
213.463	0.016	101194	TRIAL	n/a	n/a	n/a	-999	1	n/a	n/a	pyFR	0	UP046
213.479	3.001	101198	ORIENT	n/a	n/a	n/a	-999	1	n/a	n/a	pyFR	0	UP046
216.48	2.816	101948	WORD	n/a	wordpools/wordpool_EN.txt	PLANE	1	1	n/a	n/a	pyFR	0	UP046
219.296	2.517	102652	WORD	n/a	wordpools/wordpool_EN.txt	DOCK	2	1	n/a	n/a	pyFR	0	UP046
221.813	2.5	103281	WORD	n/a	wordpools/wordpool_EN.txt	LEG	3	1	n/a	n/a	pyFR	0	UP046
224.313	2.583	103906	WORD	n/a	wordpools/wordpool_EN.txt	CASH	4	1	n/a	n/a	pyFR	0	UP046
226.896	2.801	104552	WORD	n/a	wordpools/wordpool_EN.txt	SEAT	5	1	n/a	n/a	pyFR	0	UP046
229.697	2.816	105252	WORD	n/a	wordpools/wordpool_EN.txt	ARK	6	1	n/a	n/a	pyFR	0	UP046
232.513	2.649	105956	WORD	n/a	wordpools/wordpool_EN.txt	FENCE	7	1	n/a	n/a	pyFR	0	UP046
235.162	2.718	106619	WORD	n/a	wordpools/wordpool_EN.txt	HOUSE	8	1	n/a	n/a	pyFR	0	UP046
237.88	2.5	107298	WORD	n/a	wordpools/wordpool_EN.txt	PEN	9	1	n/a	n/a	pyFR	0	UP046
240.38	2.733	107923	WORD	n/a	wordpools/wordpool_EN.txt	INK	10	1	n/a	n/a	pyFR	0	UP046
243.113	2.634	108606	WORD	n/a	wordpools/wordpool_EN.txt	STAIR	11	1	n/a	n/a	pyFR	0	UP046
245.747	2.617	109265	WORD	n/a	wordpools/wordpool_EN.txt	PIT	12	1	n/a	n/a	pyFR	0	UP046
248.364	2.583	109919	WORD	n/a	wordpools/wordpool_EN.txt	THREAD	13	1	n/a	n/a	pyFR	0	UP046
250.947	2.817	110565	WORD	n/a	wordpools/wordpool_EN.txt	FOG	14	1	n/a	n/a	pyFR	0	UP046
253.764	1.618	111269	WORD	n/a	wordpools/wordpool_EN.txt	SMILE	15	1	n/a	n/a	pyFR	0	UP046
255.382	0.914	111673	START	n/a	n/a	n/a	n/a	1	[-999 -999 -999]	-999	pyFR	0	UP046
256.296	8.766	111902	PROB	8.728	n/a	n/a	n/a	1	[5 3 7]	15	pyFR	0	UP046
265.062	3.317	114093	PROB	3.283	n/a	n/a	n/a	1	[1 9 2]	12	pyFR	0	UP046
268.379	3.884	114923	PROB	3.845	n/a	n/a	n/a	1	[7 4 3]	14	pyFR	0	UP046
272.263	5.881	115894	PROB	5.881	n/a	n/a	n/a	1	[2 1 5]	8	pyFR	0	UP046
278.144	1.227	117364	STOP	n/a	n/a	n/a	n/a	1	[-999 -999 -999]	-999	pyFR	0	UP046
279.371	4.584	117671	REC_START	n/a	n/a	n/a	-999	1	n/a	n/a	pyFR	0	UP046
283.955	2.37	118817	REC_WORD_VV	4.584	n/a	<>	-999	1	n/a	n/a	pyFR	0	UP046
286.325	7.745	119409	REC_WORD_VV	6.954	n/a	<>	-999	1	n/a	n/a	pyFR	0	UP046
294.07	2.772	121345	REC_WORD_VV	14.699	n/a	<>	-999	1	n/a	n/a	pyFR	0	UP046
296.842	0.718	122038	REC_WORD_VV	17.471	n/a	<>	-999	1	n/a	n/a	pyFR	0	UP046
297.56	5.973	122218	REC_WORD_VV	18.189	n/a	<>	-999	1	n/a	n/a	pyFR	0	UP046
303.533	1.475	123711	REC_WORD	24.162	n/a	DOCK	-999	1	n/a	n/a	pyFR	0	UP046
305.008	10.717	124080	REC_WORD_VV	25.637	n/a	<>	-999	1	n/a	n/a	pyFR	0	UP046
315.725	1.434	126759	REC_WORD	36.354	n/a	FOG	-999	1	n/a	n/a	pyFR	0	UP046
317.159	3.475	127118	REC_WORD_VV	37.788	n/a	<>	-999	1	n/a	n/a	pyFR	0	UP046
320.634	29.85	127986	REC_WORD	41.263	n/a	PLANE	-999	1	n/a	n/a	pyFR	0	UP046
350.484	0.017	135449	TRIAL	n/a	n/a	n/a	-999	2	n/a	n/a	pyFR	0	UP046
350.501	2.883	135453	ORIENT	n/a	n/a	n/a	-999	2	n/a	n/a	pyFR	0	UP046
353.384	2.632	136174	WORD	n/a	wordpools/wordpool_EN.txt	STAR	1	2	n/a	n/a	pyFR	0	UP046
356.016	2.683	136832	WORD	n/a	wordpools/wordpool_EN.txt	CLOUD	2	2	n/a	n/a	pyFR	0	UP046
358.699	2.784	137503	WORD	n/a	wordpools/wordpool_EN.txt	BOX	3	2	n/a	n/a	pyFR	0	UP046
361.483	2.55	138199	WORD	n/a	wordpools/wordpool_EN.txt	SPOON	4	2	n/a	n/a	pyFR	0	UP046
364.033	2.801	138836	WORD	n/a	wordpools/wordpool_EN.txt	HAWK	5	2	n/a	n/a	pyFR	0	UP046
366.834	2.467	139536	WORD	n/a	wordpools/wordpool_EN.txt	PANTS	6	2	n/a	n/a	pyFR	0	UP046
369.301	2.699	140153	WORD	n/a	wordpools/wordpool_EN.txt	WAND	7	2	n/a	n/a	pyFR	0	UP046
372.0	2.468	140828	WORD	n/a	wordpools/wordpool_EN.txt	ROOM	8	2	n/a	n/a	pyFR	0	UP046
374.468	2.549	141445	WORD	n/a	wordpools/wordpool_EN.txt	TOE	9	2	n/a	n/a	pyFR	0	UP046
377.017	2.735	142082	WORD	n/a	wordpools/wordpool_EN.txt	FUR	10	2	n/a	n/a	pyFR	0	UP046
379.752	2.631	142766	WORD	n/a	wordpools/wordpool_EN.txt	FACE	11	2	n/a	n/a	pyFR	0	UP046
382.383	2.768	143424	WORD	n/a	wordpools/wordpool_EN.txt	CAGE	12	2	n/a	n/a	pyFR	0	UP046
385.151	2.801	144116	WORD	n/a	wordpools/wordpool_EN.txt	CONE	13	2	n/a	n/a	pyFR	0	UP046
387.952	2.45	144816	WORD	n/a	wordpools/wordpool_EN.txt	SEAL	14	2	n/a	n/a	pyFR	0	UP046
390.402	1.618	145428	WORD	n/a	wordpools/wordpool_EN.txt	PURSE	15	2	n/a	n/a	pyFR	0	UP046
392.02	1.163	145833	START	n/a	n/a	n/a	n/a	2	[-999 -999 -999]	-999	pyFR	0	UP046
393.183	9.568	146124	PROB	9.534	n/a	n/a	n/a	2	[3 9 9]	21	pyFR	0	UP046
402.751	6.916	148516	PROB	6.885	n/a	n/a	n/a	2	[9 6 3]	18	pyFR	0	UP046
409.667	13.304	150245	PROB	13.304	n/a	n/a	n/a	2	[4 2 7]	13	pyFR	0	UP046
422.971	1.132	153571	STOP	n/a	n/a	n/a	n/a	2	[-999 -999 -999]	-999	pyFR	0	UP046
424.103	4.823	153854	REC_START	n/a	n/a	n/a	-999	2	n/a	n/a	pyFR	0	UP046
428.926	3.92	155059	REC_WORD	4.823	n/a	HAWK	-999	2	n/a	n/a	pyFR	0	UP046
432.846	3.464	156039	REC_WORD	8.743	n/a	STAR	-999	2	n/a	n/a	pyFR	0	UP046
436.31	22.16	156905	REC_WORD	12.207	n/a	SPOON	-999	2	n/a	n/a	pyFR	0	UP046
458.47	4.402	162445	REC_WORD_VV	34.367	n/a	<>	-999	2	n/a	n/a	pyFR	0	UP046
462.872	3.683	163546	REC_WORD_VV	38.769	n/a	<>	-999	2	n/a	n/a	pyFR	0	UP046
466.555	10.95	164467	REC_WORD	42.452	n/a	TOE	-999	2	n/a	n/a	pyFR	0	UP046
477.505	0.017	167204	TRIAL	n/a	n/a	n/a	-999	3	n/a	n/a	pyFR	0	UP046
477.522	2.883	167208	ORIENT	n/a	n/a	n/a	-999	3	n/a	n/a	pyFR	0	UP046
480.405	2.649	167929	WORD	n/a	wordpools/wordpool_EN.txt	SOAP	1	3	n/a	n/a	pyFR	0	UP046
483.054	2.584	168591	WORD	n/a	wordpools/wordpool_EN.txt	SCHOOL	2	3	n/a	n/a	pyFR	0	UP046
485.638	2.566	169237	WORD	n/a	wordpools/wordpool_EN.txt	DOOR	3	3	n/a	n/a	pyFR	0	UP046
488.204	2.701	169879	WORD	n/a	wordpools/wordpool_EN.txt	WING	4	3	n/a	n/a	pyFR	0	UP046
490.905	2.7	170554	WORD	n/a	wordpools/wordpool_EN.txt	MAP	5	3	n/a	n/a	pyFR	0	UP046
493.605	2.583	171229	WORD	n/a	wordpools/wordpool_EN.txt	CLIFF	6	3	n/a	n/a	pyFR	0	UP046
496.188	2.501	171875	WORD	n/a	wordpools/wordpool_EN.txt	CHIEF	7	3	n/a	n/a	pyFR	0	UP046
498.689	2.432	172500	WORD	n/a	wordpools/wordpool_EN.txt	MOUTH	8	3	n/a	n/a	pyFR	0	UP046
501.121	2.468	173108	WORD	n/a	wordpools/wordpool_EN.txt	DIME	9	3	n/a	n/a	pyFR	0	UP046
503.589	2.649	173725	WORD	n/a	wordpools/wordpool_EN.txt	MAIL	10	3	n/a	n/a	pyFR	0	UP046
506.238	2.8	174387	WORD	n/a	wordpools/wordpool_EN.txt	MOUSE	11	3	n/a	n/a	pyFR	0	UP046
509.038	2.668	175087	WORD	n/a	wordpools/wordpool_EN.txt	WEB	12	3	n/a	n/a	pyFR	0	UP046
511.706	2.617	175754	WORD	n/a	wordpools/wordpool_EN.txt	STORE	13	3	n/a	n/a	pyFR	0	UP046
514.323	2.782	176409	WORD	n/a	wordpools/wordpool_EN.txt	CAKE	14	3	n/a	n/a	pyFR	0	UP046
517.105	1.619	177104	WORD	n/a	wordpools/wordpool_EN.txt	POOL	15	3	n/a	n/a	pyFR	0	UP046
518.724	1.097	177509	START	n/a	n/a	n/a	n/a	3	[-999 -999 -999]	-999	pyFR	0	UP046
519.821	30.794	177783	PROB	30.794	n/a	n/a	n/a	3	[9 9 8]	26	pyFR	0	UP046
550.615	1.043	185482	STOP	n/a	n/a	n/a	n/a	3	[-999 -999 -999]	-999	pyFR	0	UP046
551.658	2.522	185742	REC_START	n/a	n/a	n/a	-999	3	n/a	n/a	pyFR	0	UP046
554.18	2.648	186373	REC_WORD	2.522	n/a	SCHOOL	-999	3	n/a	n/a	pyFR	0	UP046
556.828	8.351	187035	REC_WORD_VV	5.17	n/a	<>	-999	3	n/a	n/a	pyFR	0	UP046
565.179	0.48	189123	REC_WORD_VV	13.521	n/a	<>	-999	3	n/a	n/a	pyFR	0	UP046
565.659	4.781	189243	REC_WORD	14.001	n/a	STAR	-999	3	n/a	n/a	pyFR	0	UP046
570.44	8.543	190438	REC_WORD_VV	18.782	n/a	<>	-999	3	n/a	n/a	pyFR	0	UP046
578.983	4.376	192574	REC_WORD_VV	27.325	n/a	<>	-999	3	n/a	n/a	pyFR	0	UP046
583.359	7.193	193668	REC_WORD_VV	31.701	n/a	<>	-999	3	n/a	n/a	pyFR	0	UP046
590.552	2.101	195466	REC_WORD_VV	38.894	n/a	<>	-999	3	n/a	n/a	pyFR	0	UP046
592.653	11.439	195991	REC_WORD	40.995	n/a	HAWK	-999	3	n/a	n/a	pyFR	0	UP046
604.092	0.016	198851	TRIAL	n/a	n/a	n/a	-999	4	n/a	n/a	pyFR	0	UP046
604.108	2.734	198855	ORIENT	n/a	n/a	n/a	-999	4	n/a	n/a	pyFR	0	UP046
606.842	2.501	199538	WORD	n/a	wordpools/wordpool_EN.txt	BRICK	1	4	n/a	n/a	pyFR	0	UP046
609.343	2.566	200164	WORD	n/a	wordpools/wordpool_EN.txt	HORN	2	4	n/a	n/a	pyFR	0	UP046
611.909	2.749	200805	WORD	n/a	wordpools/wordpool_EN.txt	TRAY	3	4	n/a	n/a	pyFR	0	UP046
614.658	2.618	201492	WORD	n/a	wordpools/wordpool_EN.txt	MAT	4	4	n/a	n/a	pyFR	0	UP046
617.276	2.698	202147	WORD	n/a	wordpools/wordpool_EN.txt	JAR	5	4	n/a	n/a	pyFR	0	UP046
619.974	2.652	202821	WORD	n/a	wordpools/wordpool_EN.txt	GLOVE	6	4	n/a	n/a	pyFR	0	UP046
622.626	2.483	203484	WORD	n/a	wordpools/wordpool_EN.txt	SPONGE	7	4	n/a	n/a	pyFR	0	UP046
625.109	2.684	204105	WORD	n/a	wordpools/wordpool_EN.txt	CANE	8	4	n/a	n/a	pyFR	0	UP046
627.793	2.584	204776	WORD	n/a	wordpools/wordpool_EN.txt	CAVE	9	4	n/a	n/a	pyFR	0	UP046
630.377	2.799	205422	WORD	n/a	wordpools/wordpool_EN.txt	TIE	10	4	n/a	n/a	pyFR	0	UP046
633.176	2.684	206122	WORD	n/a	wordpools/wordpool_EN.txt	DUCK	11	4	n/a	n/a	pyFR	0	UP046
635.86	2.667	206793	WORD	n/a	wordpools/wordpool_EN.txt	ANT	12	4	n/a	n/a	pyFR	0	UP046
638.527	2.816	207460	WORD	n/a	wordpools/wordpool_EN.txt	SKI	13	4	n/a	n/a	pyFR	0	UP046
641.343	2.434	208164	WORD	n/a	wordpools/wordpool_EN.txt	DART	14	4	n/a	n/a	pyFR	0	UP046
643.777	1.618	208772	WORD	n/a	wordpools/wordpool_EN.txt	TRUCK	15	4	n/a	n/a	pyFR	0	UP046
645.395	1.03	209177	START	n/a	n/a	n/a	n/a	4	[-999 -999 -999]	-999	pyFR	0	UP046
646.425	14.633	209434	PROB	14.602	n/a	n/a	n/a	4	[2 9 5]	16	pyFR	0	UP046
661.058	5.713	213092	PROB	5.713	n/a	n/a	n/a	4	[4 1 4]	9	pyFR	0	UP046
666.771	1.141	214521	STOP	n/a	n/a	n/a	n/a	4	[-999 -999 -999]	-999	pyFR	0	UP046
667.912	2.024	214806	REC_START	n/a	n/a	n/a	-999	4	n/a	n/a	pyFR	0	UP046
669.936	3.872	215312	REC_WORD	2.024	n/a	BRICK	-999	4	n/a	n/a	pyFR	0	UP046
673.808	1.629	216280	REC_WORD	5.896	n/a	SPONGE	-999	4	n/a	n/a	pyFR	0	UP046
675.437	9.136	216687	REC_WORD	7.525	n/a	CAVE	-999	4	n/a	n/a	pyFR	0	UP046
684.573	3.444	218971	REC_WORD_VV	16.661	n/a	<>	-999	4	n/a	n/a	pyFR	0	UP046
688.017	4.361	219832	REC_WORD_VV	20.105	n/a	<>	-999	4	n/a	n/a	pyFR	0	UP046
692.378	2.119	220922	REC_WORD_VV	24.466	n/a	<>	-999	4	n/a	n/a	pyFR	0	UP046
694.497	6.644	221452	REC_WORD_VV	26.585	n/a	<>	-999	4	n/a	n/a	pyFR	0	UP046
701.141	6.848	223113	REC_WORD	33.229	n/a	TOE	-999	4	n/a	n/a	pyFR	0	UP046
707.989	4.151	224825	REC_WORD_VV	40.077	n/a	<>	-999	4	n/a	n/a	pyFR	0	UP046
712.14	7.039	225863	REC_WORD_VV	44.228	n/a	<>	-999	4	n/a	n/a	pyFR	0	UP046
719.179	0.016	227622	TRIAL	n/a	n/a	n/a	-999	5	n/a	n/a	pyFR	0	UP046
719.195	2.984	227626	ORIENT	n/a	n/a	n/a	-999	5	n/a	n/a	pyFR	0	UP046
722.179	2.567	228372	WORD	n/a	wordpools/wordpool_EN.txt	KING	1	5	n/a	n/a	pyFR	0	UP046
724.746	2.784	229014	WORD	n/a	wordpools/wordpool_EN.txt	CAT	2	5	n/a	n/a	pyFR	0	UP046
727.53	2.733	229710	WORD	n/a	wordpools/wordpool_EN.txt	STOOL	3	5	n/a	n/a	pyFR	0	UP046
730.263	2.816	230393	WORD	n/a	wordpools/wordpool_EN.txt	SEED	4	5	n/a	n/a	pyFR	0	UP046
733.079	2.751	231097	WORD	n/a	wordpools/wordpool_EN.txt	TRASH	5	5	n/a	n/a	pyFR	0	UP046
735.83	2.75	231785	WORD	n/a	wordpools/wordpool_EN.txt	WAVE	6	5	n/a	n/a	pyFR	0	UP046
738.58	2.817	232473	WORD	n/a	wordpools/wordpool_EN.txt	FRUIT	7	5	n/a	n/a	pyFR	0	UP046
741.397	2.467	233177	WORD	n/a	wordpools/wordpool_EN.txt	STRING	8	5	n/a	n/a	pyFR	0	UP046
743.864	2.683	233794	WORD	n/a	wordpools/wordpool_EN.txt	TAPE	9	5	n/a	n/a	pyFR	0	UP046
746.547	2.649	234464	WORD	n/a	wordpools/wordpool_EN.txt	PARK	10	5	n/a	n/a	pyFR	0	UP046
749.196	2.566	235127	WORD	n/a	wordpools/wordpool_EN.txt	PET	11	5	n/a	n/a	pyFR	0	UP046
751.762	2.835	235768	WORD	n/a	wordpools/wordpool_EN.txt	BEAR	12	5	n/a	n/a	pyFR	0	UP046
754.597	2.633	236477	WORD	n/a	wordpools/wordpool_EN.txt	STEM	13	5	n/a	n/a	pyFR	0	UP046
757.23	2.817	237135	WORD	n/a	wordpools/wordpool_EN.txt	VEST	14	5	n/a	n/a	pyFR	0	UP046
760.047	1.619	237839	WORD	n/a	wordpools/wordpool_EN.txt	RAT	15	5	n/a	n/a	pyFR	0	UP046
761.666	0.93	238244	START	n/a	n/a	n/a	n/a	5	[-999 -999 -999]	-999	pyFR	0	UP046
762.596	12.069	238477	PROB	12.036	n/a	n/a	n/a	5	[2 5 8]	15	pyFR	0	UP046
774.665	10.302	241494	PROB	10.302	n/a	n/a	n/a	5	[9 6 6]	21	pyFR	0	UP046
784.967	1.198	244069	STOP	n/a	n/a	n/a	n/a	5	[-999 -999 -999]	-999	pyFR	0	UP046
786.165	3.101	244369	REC_START	n/a	n/a	n/a	-999	5	n/a	n/a	pyFR	0	UP046
789.266	25.059	245144	REC_WORD_VV	3.101	n/a	<>	-999	5	n/a	n/a	pyFR	0	UP046
814.325	11.876	251409	REC_WORD_VV	28.16	n/a	<>	-999	5	n/a	n/a	pyFR	0	UP046
826.201	4.375	254378	REC_WORD_VV	40.036	n/a	<>	-999	5	n/a	n/a	pyFR	0	UP046
830.576	41.109	255472	REC_WORD_VV	44.411	n/a	<>	-999	5	n/a	n/a	pyFR	0	UP046
871.685	0.016	265749	TRIAL	n/a	n/a	n/a	-999	6	n/a	n/a	pyFR	0	UP046
871.701	2.867	265753	ORIENT	n/a	n/a	n/a	-999	6	n/a	n/a	pyFR	0	UP046
874.568	2.767	266470	WORD	n/a	wordpools/wordpool_EN.txt	FORT	1	6	n/a	n/a	pyFR	0	UP046
877.335	2.816	267161	WORD	n/a	wordpools/wordpool_EN.txt	BOMB	2	6	n/a	n/a	pyFR	0	UP046
880.151	2.484	267865	WORD	n/a	wordpools/wordpool_EN.txt	GOLD	3	6	n/a	n/a	pyFR	0	UP046
882.635	2.667	268486	WORD	n/a	wordpools/wordpool_EN.txt	CLAY	4	6	n/a	n/a	pyFR	0	UP046
885.302	2.666	269153	WORD	n/a	wordpools/wordpool_EN.txt	JET	5	6	n/a	n/a	pyFR	0	UP046
887.968	2.684	269820	WORD	n/a	wordpools/wordpool_EN.txt	EGG	6	6	n/a	n/a	pyFR	0	UP046
890.652	2.633	270491	WORD	n/a	wordpools/wordpool_EN.txt	STRAW	7	6	n/a	n/a	pyFR	0	UP046
893.285	2.683	271149	WORD	n/a	wordpools/wordpool_EN.txt	HOOF	8	6	n/a	n/a	pyFR	0	UP046
895.968	2.534	271820	WORD	n/a	wordpools/wordpool_EN.txt	CARD	9	6	n/a	n/a	pyFR	0	UP046
898.502	2.649	272453	WORD	n/a	wordpools/wordpool_EN.txt	VASE	10	6	n/a	n/a	pyFR	0	UP046
901.151	2.685	273115	WORD	n/a	wordpools/wordpool_EN.txt	FLOOR	11	6	n/a	n/a	pyFR	0	UP046
903.836	2.683	273787	WORD	n/a	wordpools/wordpool_EN.txt	GEESE	12	6	n/a	n/a	pyFR	0	UP046
906.519	2.75	274457	WORD	n/a	wordpools/wordpool_EN.txt	HOOK	13	6	n/a	n/a	pyFR	0	UP046
909.269	2.5	275145	WORD	n/a	wordpools/wordpool_EN.txt	SOCK	14	6	n/a	n/a	pyFR	0	UP046
911.769	1.619	275770	WORD	n/a	wordpools/wordpool_EN.txt	RAIN	15	6	n/a	n/a	pyFR	0	UP046
913.388	1.163	276175	START	n/a	n/a	n/a	n/a	6	[-999 -999 -999]	-999	pyFR	0	UP046
914.551	8.835	276465	PROB	8.812	n/a	n/a	n/a	6	[4 3 5]	12	pyFR	0	UP046
923.386	7.698	278674	PROB	7.672	n/a	n/a	n/a	6	[5 9 2]	16	pyFR	0	UP046
931.084	5.646	280599	PROB	5.646	n/a	n/a	n/a	6	[6 1 7]	14	pyFR	0	UP046
936.73	1.058	282010	STOP	n/a	n/a	n/a	n/a	6	[-999 -999 -999]	-999	pyFR	0	UP046
937.788	2.358	282275	REC_START	n/a	n/a	n/a	-999	6	n/a	n/a	pyFR	0	UP046
940.146	9.748	282864	REC_WORD	2.358	n/a	GOOSE	-999	6	n/a	n/a	pyFR	0	UP046
949.894	18.877	285301	REC_WORD	12.106	n/a	BRICK	-999	6	n/a	n/a	pyFR	0	UP046
968.771	10.913	290020	REC_WORD	30.983	n/a	GEESE	-999	6	n/a	n/a	pyFR	0	UP046
979.684	2.939	292749	REC_WORD_VV	41.896	n/a	<>	-999	6	n/a	n/a	pyFR	0	UP046
982.623	3.983	293483	REC_WORD	44.835	n/a	TOE	-999	6	n/a	n/a	pyFR	0	UP046
986.606	0.016	294479	TRIAL	n/a	n/a	n/a	-999	7	n/a	n/a	pyFR	0	UP046
986.622	2.733	294483	ORIENT	n/a	n/a	n/a	-999	7	n/a	n/a	pyFR	0	UP046
989.355	2.649	295166	WORD	n/a	wordpools/wordpool_EN.txt	CAPE	1	7	n/a	n/a	pyFR	0	UP046
992.004	2.735	295829	WORD	n/a	wordpools/wordpool_EN.txt	MOTH	2	7	n/a	n/a	pyFR	0	UP046
994.739	2.733	296512	WORD	n/a	wordpools/wordpool_EN.txt	SKUNK	3	7	n/a	n/a	pyFR	0	UP046
997.472	2.784	297196	WORD	n/a	wordpools/wordpool_EN.txt	QUEEN	4	7	n/a	n/a	pyFR	0	UP046
1000.256	2.7	297892	WORD	n/a	wordpools/wordpool_EN.txt	STORM	5	7	n/a	n/a	pyFR	0	UP046
1002.956	2.733	298567	WORD	n/a	wordpools/wordpool_EN.txt	CROWN	6	7	n/a	n/a	pyFR	0	UP046
1005.689	2.633	299250	WORD	n/a	wordpools/wordpool_EN.txt	CHIN	7	7	n/a	n/a	pyFR	0	UP046
1008.322	2.567	299908	WORD	n/a	wordpools/wordpool_EN.txt	BLOOM	8	7	n/a	n/a	pyFR	0	UP046
1010.889	2.667	300550	WORD	n/a	wordpools/wordpool_EN.txt	TOOTH	9	7	n/a	n/a	pyFR	0	UP046
1013.556	2.649	301217	WORD	n/a	wordpools/wordpool_EN.txt	BENCH	10	7	n/a	n/a	pyFR	0	UP046
1016.205	2.551	301879	WORD	n/a	wordpools/wordpool_EN.txt	WALL	11	7	n/a	n/a	pyFR	0	UP046
1018.756	2.767	302517	WORD	n/a	wordpools/wordpool_EN.txt	PIG	12	7	n/a	n/a	pyFR	0	UP046
1021.523	2.815	303208	WORD	n/a	wordpools/wordpool_EN.txt	APE	13	7	n/a	n/a	pyFR	0	UP046
1024.338	2.568	303912	WORD	n/a	wordpools/wordpool_EN.txt	CROW	14	7	n/a	n/a	pyFR	0	UP046
1026.906	1.619	304554	WORD	n/a	wordpools/wordpool_EN.txt	PEARL	15	7	n/a	n/a	pyFR	0	UP046
1028.525	0.93	304959	START	n/a	n/a	n/a	n/a	7	[-999 -999 -999]	-999	pyFR	0	UP046
1029.455	17.117	305191	PROB	17.088	n/a	n/a	n/a	7	[8 9 4]	21	pyFR	0	UP046
1046.572	20.801	309471	PROB	20.801	n/a	n/a	n/a	7	[7 4 6]	17	pyFR	0	UP046
1067.373	1.086	314671	STOP	n/a	n/a	n/a	n/a	7	[-999 -999 -999]	-999	pyFR	0	UP046
1068.459	6.367	314942	REC_START	n/a	n/a	n/a	-999	7	n/a	n/a	pyFR	0	UP046
1074.826	4.415	316534	REC_WORD	6.367	n/a	PIG	-999	7	n/a	n/a	pyFR	0	UP046
1079.241	4.353	317638	REC_WORD_VV	10.782	n/a	<>	-999	7	n/a	n/a	pyFR	0	UP046
1083.594	7.391	318726	REC_WORD_VV	15.135	n/a	<>	-999	7	n/a	n/a	pyFR	0	UP046
1090.985	13.52	320574	REC_WORD_VV	22.526	n/a	<>	-999	7	n/a	n/a	pyFR	0	UP046
1104.505	7.034	323954	REC_WORD	36.046	n/a	TOOTH	-999	7	n/a	n/a	pyFR	0	UP046
1111.539	12.453	325712	REC_WORD_VV	43.08	n/a	<>	-999	7	n/a	n/a	pyFR	0	UP046
1123.992	0.017	328826	TRIAL	n/a	n/a	n/a	-999	8	n/a	n/a	pyFR	0	UP046
1124.009	2.834	328830	ORIENT	n/a	n/a	n/a	-999	8	n/a	n/a	pyFR	0	UP046
1126.843	2.765	329538	WORD	n/a	wordpools/wordpool_EN.txt	STEAK	1	8	n/a	n/a	pyFR	0	UP046
1129.608	2.468	330230	WORD	n/a	wordpools/wordpool_EN.txt	CUBE	2	8	n/a	n/a	pyFR	0	UP046
1132.076	2.767	330847	WORD	n/a	wordpools/wordpool_EN.txt	ELF	3	8	n/a	n/a	pyFR	0	UP046
1134.843	2.584	331538	WORD	n/a	wordpools/wordpool_EN.txt	BIRD	4	8	n/a	n/a	pyFR	0	UP046
1137.427	2.749	332184	WORD	n/a	wordpools/wordpool_EN.txt	KITE	5	8	n/a	n/a	pyFR	0	UP046
1140.176	2.6	332872	WORD	n/a	wordpools/wordpool_EN.txt	THUMB	6	8	n/a	n/a	pyFR	0	UP046
1142.776	2.601	333522	WORD	n/a	wordpools/wordpool_EN.txt	RIB	7	8	n/a	n/a	pyFR	0	UP046
1145.377	2.5	334172	WORD	n/a	wordpools/wordpool_EN.txt	CHALK	8	8	n/a	n/a	pyFR	0	UP046
1147.877	2.6	334797	WORD	n/a	wordpools/wordpool_EN.txt	COIN	9	8	n/a	n/a	pyFR	0	UP046
1150.477	2.599	335447	WORD	n/a	wordpools/wordpool_EN.txt	BROOM	10	8	n/a	n/a	pyFR	0	UP046
1153.076	2.651	336097	WORD	n/a	wordpools/wordpool_EN.txt	YARD	11	8	n/a	n/a	pyFR	0	UP046
1155.727	2.634	336759	WORD	n/a	wordpools/wordpool_EN.txt	BOY	12	8	n/a	n/a	pyFR	0	UP046
1158.361	2.716	337418	WORD	n/a	wordpools/wordpool_EN.txt	MULE	13	8	n/a	n/a	pyFR	0	UP046
1161.077	2.751	338097	WORD	n/a	wordpools/wordpool_EN.txt	NET	14	8	n/a	n/a	pyFR	0	UP046
1163.828	1.618	338785	WORD	n/a	wordpools/wordpool_EN.txt	TOAD	15	8	n/a	n/a	pyFR	0	UP046
1165.446	0.947	339189	START	n/a	n/a	n/a	n/a	8	[-999 -999 -999]	-999	pyFR	0	UP046
1166.393	9.834	339426	PROB	9.8	n/a	n/a	n/a	8	[9 6 8]	23	pyFR	0	UP046
1176.227	5.932	341884	PROB	5.91	n/a	n/a	n/a	8	[9 1 8]	18	pyFR	0	UP046
1182.159	10.178	343367	PROB	10.178	n/a	n/a	n/a	8	[3 5 9]	17	pyFR	0	UP046
1192.337	1.143	345912	STOP	n/a	n/a	n/a	n/a	8	[-999 -999 -999]	-999	pyFR	0	UP046
1193.48	8.615	346197	REC_START	n/a	n/a	n/a	-999	8	n/a	n/a	pyFR	0	UP046
1202.095	5.898	348351	REC_WORD	8.615	n/a	TOOTH	-999	8	n/a	n/a	pyFR	0	UP046
1207.993	16.332	349826	REC_WORD_VV	14.513	n/a	<>	-999	8	n/a	n/a	pyFR	0	UP046
1224.325	5.415	353909	REC_WORD_VV	30.845	n/a	<>	-999	8	n/a	n/a	pyFR	0	UP046
1229.74	17.29	355262	REC_WORD_VV	36.26	n/a	<>	-999	8	n/a	n/a	pyFR	0	UP046
1247.03	0.016	359585	TRIAL	n/a	n/a	n/a	-999	9	n/a	n/a	pyFR	0	UP046
1247.046	2.701	359589	ORIENT	n/a	n/a	n/a	-999	9	n/a	n/a	pyFR	0	UP046
1249.747	2.784	360264	WORD	n/a	wordpools/wordpool_EN.txt	SHIELD	1	9	n/a	n/a	pyFR	0	UP046
1252.531	2.715	360960	WORD	n/a	wordpools/wordpool_EN.txt	ROOF	2	9	n/a	n/a	pyFR	0	UP046
1255.246	2.784	361639	WORD	n/a	wordpools/wordpool_EN.txt	HORSE	3	9	n/a	n/a	pyFR	0	UP046
1258.03	2.501	362335	WORD	n/a	wordpools/wordpool_EN.txt	CHEEK	4	9	n/a	n/a	pyFR	0	UP046
1260.531	2.75	362960	WORD	n/a	wordpools/wordpool_EN.txt	FROG	5	9	n/a	n/a	pyFR	0	UP046
1263.281	2.747	363648	WORD	n/a	wordpools/wordpool_EN.txt	SAIL	6	9	n/a	n/a	pyFR	0	UP046
1266.028	2.736	364334	WORD	n/a	wordpools/wordpool_EN.txt	POLE	7	9	n/a	n/a	pyFR	0	UP046
1268.764	2.567	365018	WORD	n/a	wordpools/wordpool_EN.txt	BUSH	8	9	n/a	n/a	pyFR	0	UP046
1271.331	2.766	365660	WORD	n/a	wordpools/wordpool_EN.txt	FOAM	9	9	n/a	n/a	pyFR	0	UP046
1274.097	2.584	366352	WORD	n/a	wordpools/wordpool_EN.txt	GATE	10	9	n/a	n/a	pyFR	0	UP046
1276.681	2.433	366998	WORD	n/a	wordpools/wordpool_EN.txt	CLOWN	11	9	n/a	n/a	pyFR	0	UP046
1279.114	2.468	367606	WORD	n/a	wordpools/wordpool_EN.txt	BALL	12	9	n/a	n/a	pyFR	0	UP046
1281.582	2.75	368223	WORD	n/a	wordpools/wordpool_EN.txt	GLASS	13	9	n/a	n/a	pyFR	0	UP046
1284.332	2.633	368910	WORD	n/a	wordpools/wordpool_EN.txt	BEE	14	9	n/a	n/a	pyFR	0	UP046
1286.965	1.619	369569	WORD	n/a	wordpools/wordpool_EN.txt	JUDGE	15	9	n/a	n/a	pyFR	0	UP046
1288.584	0.898	369973	START	n/a	n/a	n/a	n/a	9	[-999 -999 -999]	-999	pyFR	0	UP046
1289.482	5.597	370198	PROB	5.57	n/a	n/a	n/a	9	[9 1 6]	16	pyFR	0	UP046
1295.079	4.235	371597	PROB	4.198	n/a	n/a	n/a	9	[2 2 3]	7	pyFR	0	UP046
1299.314	35.578	372656	PROB	35.578	n/a	n/a	n/a	9	[9 8 9]	26	pyFR	0	UP046
1334.892	1.125	381550	STOP	n/a	n/a	n/a	n/a	9	[-999 -999 -999]	-999	pyFR	0	UP046
1336.017	11.642	381832	REC_START	n/a	n/a	n/a	-999	9	n/a	n/a	pyFR	0	UP046
1347.659	8.034	384742	REC_WORD	11.642	n/a	JUDGE	-999	9	n/a	n/a	pyFR	0	UP046
1355.693	23.82	386751	REC_WORD_VV	19.676	n/a	<>	-999	9	n/a	n/a	pyFR	0	UP046
1379.513	35.556	392706	REC_WORD_VV	43.496	n/a	<>	-999	9	n/a	n/a	pyFR	0	UP046
1415.069	0.016	401595	TRIAL	n/a	n/a	n/a	-999	10	n/a	n/a	pyFR	0	UP046
1415.085	2.818	401599	ORIENT	n/a	n/a	n/a	-999	10	n/a	n/a	pyFR	0	UP046
1417.903	2.5	402303	WORD	n/a	wordpools/wordpool_EN.txt	BELL	1	10	n/a	n/a	pyFR	0	UP046
1420.403	2.533	402928	WORD	n/a	wordpools/wordpool_EN.txt	HEART	2	10	n/a	n/a	pyFR	0	UP046
1422.936	2.667	403561	WORD	n/a	wordpools/wordpool_EN.txt	FORK	3	10	n/a	n/a	pyFR	0	UP046
1425.603	2.684	404228	WORD	n/a	wordpools/wordpool_EN.txt	TANK	4	10	n/a	n/a	pyFR	0	UP046
1428.287	2.616	404899	WORD	n/a	wordpools/wordpool_EN.txt	BAT	5	10	n/a	n/a	pyFR	0	UP046
1430.903	2.6	405553	WORD	n/a	wordpools/wordpool_EN.txt	PEA	6	10	n/a	n/a	pyFR	0	UP046
1433.503	2.516	406203	WORD	n/a	wordpools/wordpool_EN.txt	BREAD	7	10	n/a	n/a	pyFR	0	UP046
1436.019	2.584	406832	WORD	n/a	wordpools/wordpool_EN.txt	HOLE	8	10	n/a	n/a	pyFR	0	UP046
1438.603	2.801	407478	WORD	n/a	wordpools/wordpool_EN.txt	SNAIL	9	10	n/a	n/a	pyFR	0	UP046
1441.404	2.765	408178	WORD	n/a	wordpools/wordpool_EN.txt	LAMP	10	10	n/a	n/a	pyFR	0	UP046
1444.169	2.717	408870	WORD	n/a	wordpools/wordpool_EN.txt	ROAD	11	10	n/a	n/a	pyFR	0	UP046
1446.886	2.468	409549	WORD	n/a	wordpools/wordpool_EN.txt	SWORD	12	10	n/a	n/a	pyFR	0	UP046
1449.354	2.467	410166	WORD	n/a	wordpools/wordpool_EN.txt	SHARK	13	10	n/a	n/a	pyFR	0	UP046
1451.821	2.75	410783	WORD	n/a	wordpools/wordpool_EN.txt	VAN	14	10	n/a	n/a	pyFR	0	UP046
1454.571	1.617	411470	WORD	n/a	wordpools/wordpool_EN.txt	DESK	15	10	n/a	n/a	pyFR	0	UP046
1456.188	1.148	411874	START	n/a	n/a	n/a	n/a	10	[-999 -999 -999]	-999	pyFR	0	UP046
1457.336	5.832	412161	PROB	5.799	n/a	n/a	n/a	10	[2 6 3]	11	pyFR	0	UP046
1463.168	4.168	413619	PROB	4.144	n/a	n/a	n/a	10	[1 3 8]	12	pyFR	0	UP046
1467.336	4.383	414661	PROB	4.36	n/a	n/a	n/a	10	[5 1 3]	8	pyFR	0	UP046
1471.719	11.68	415757	PROB	11.68	n/a	n/a	n/a	10	[8 7 4]	19	pyFR	0	UP046
1483.399	1.224	418677	STOP	n/a	n/a	n/a	n/a	10	[-999 -999 -999]	-999	pyFR	0	UP046
1484.623	16.535	418983	REC_START	n/a	n/a	n/a	-999	10	n/a	n/a	pyFR	0	UP046
1501.158	13.759	423117	REC_WORD_VV	16.535	n/a	<>	-999	10	n/a	n/a	pyFR	0	UP046
1514.917	12.362	426557	REC_WORD	30.294	n/a	BRICK	-999	10	n/a	n/a	pyFR	0	UP046
1527.279	21.029	429647	REC_WORD_VV	42.656	n/a	<>	-999	10	n/a	n/a	pyFR	0	UP046
1548.308	0.016	434904	TRIAL	n/a	n/a	n/a	-999	11	n/a	n/a	pyFR	0	UP046
1548.324	2.882	434908	ORIENT	n/a	n/a	n/a	-999	11	n/a	n/a	pyFR	0	UP046
1551.206	2.668	435629	WORD	n/a	wordpools/wordpool_EN.txt	CORD	1	11	n/a	n/a	pyFR	0	UP046
1553.874	2.817	436296	WORD	n/a	wordpools/wordpool_EN.txt	FILM	2	11	n/a	n/a	pyFR	0	UP046
1556.691	2.7	437000	WORD	n/a	wordpools/wordpool_EN.txt	SHELL	3	11	n/a	n/a	pyFR	0	UP046
1559.391	2.467	437675	WORD	n/a	wordpools/wordpool_EN.txt	STEAM	4	11	n/a	n/a	pyFR	0	UP046
1561.858	2.433	438292	WORD	n/a	wordpools/wordpool_EN.txt	BOAT	5	11	n/a	n/a	pyFR	0	UP046
1564.291	2.567	438900	WORD	n/a	wordpools/wordpool_EN.txt	LOCK	6	11	n/a	n/a	pyFR	0	UP046
1566.858	2.783	439542	WORD	n/a	wordpools/wordpool_EN.txt	NEST	7	11	n/a	n/a	pyFR	0	UP046
1569.641	2.433	440238	WORD	n/a	wordpools/wordpool_EN.txt	HOSE	8	11	n/a	n/a	pyFR	0	UP046
1572.074	2.434	440846	WORD	n/a	wordpools/wordpool_EN.txt	TAIL	9	11	n/a	n/a	pyFR	0	UP046
1574.508	2.599	441454	WORD	n/a	wordpools/wordpool_EN.txt	OAR	10	11	n/a	n/a	pyFR	0	UP046
1577.107	2.685	442104	WORD	n/a	wordpools/wordpool_EN.txt	ZOO	11	11	n/a	n/a	pyFR	0	UP046
1579.792	2.7	442775	WORD	n/a	wordpools/wordpool_EN.txt	BAND	12	11	n/a	n/a	pyFR	0	UP046
1582.492	2.549	443450	WORD	n/a	wordpools/wordpool_EN.txt	BARN	13	11	n/a	n/a	pyFR	0	UP046
1585.041	2.801	444088	WORD	n/a	wordpools/wordpool_EN.txt	STOVE	14	11	n/a	n/a	pyFR	0	UP046
1587.842	1.618	444788	WORD	n/a	wordpools/wordpool_EN.txt	AXE	15	11	n/a	n/a	pyFR	0	UP046
1589.46	1.03	445192	START	n/a	n/a	n/a	n/a	11	[-999 -999 -999]	-999	pyFR	0	UP046
1590.49	8.483	445450	PROB	8.457	n/a	n/a	n/a	11	[9 4 6]	19	pyFR	0	UP046
1598.973	7.718	447571	PROB	7.694	n/a	n/a	n/a	11	[3 4 3]	10	pyFR	0	UP046
1606.691	10.671	449500	PROB	10.671	n/a	n/a	n/a	11	[2 5 7]	14	pyFR	0	UP046
1617.362	1.065	452168	STOP	n/a	n/a	n/a	n/a	11	[-999 -999 -999]	-999	pyFR	0	UP046
1618.427	2.976	452434	REC_START	n/a	n/a	n/a	-999	11	n/a	n/a	pyFR	0	UP046
1621.403	14.791	453178	REC_WORD	2.976	n/a	ZOO	-999	11	n/a	n/a	pyFR	0	UP046
1636.194	6.734	456876	REC_WORD	17.767	n/a	BRICK	-999	11	n/a	n/a	pyFR	0	UP046
1642.928	10.256	458559	REC_WORD	24.501	n/a	STAR	-999	11	n/a	n/a	pyFR	0	UP046
1653.184	4.13	461123	REC_WORD_VV	34.757	n/a	<>	-999	11	n/a	n/a	pyFR	0	UP046
1657.314	23.963	462156	REC_WORD_VV	38.887	n/a	<>	-999	11	n/a	n/a	pyFR	0	UP046
1681.277	0.016	468146	TRIAL	n/a	n/a	n/a	-999	12	n/a	n/a	pyFR	0	UP046
1681.293	2.969	468150	ORIENT	n/a	n/a	n/a	-999	12	n/a	n/a	pyFR	0	UP046
1684.262	2.732	468893	WORD	n/a	wordpools/wordpool_EN.txt	FLUTE	1	12	n/a	n/a	pyFR	0	UP046
1686.994	2.468	469576	WORD	n/a	wordpools/wordpool_EN.txt	CLOTH	2	12	n/a	n/a	pyFR	0	UP046
1689.462	2.732	470193	WORD	n/a	wordpools/wordpool_EN.txt	BEACH	3	12	n/a	n/a	pyFR	0	UP046
1692.194	2.435	470876	WORD	n/a	wordpools/wordpool_EN.txt	SINK	4	12	n/a	n/a	pyFR	0	UP046
1694.629	2.599	471484	WORD	n/a	wordpools/wordpool_EN.txt	MAZE	5	12	n/a	n/a	pyFR	0	UP046
1697.228	2.734	472134	WORD	n/a	wordpools/wordpool_EN.txt	COW	6	12	n/a	n/a	pyFR	0	UP046
1699.962	2.6	472818	WORD	n/a	wordpools/wordpool_EN.txt	CLOCK	7	12	n/a	n/a	pyFR	0	UP046
1702.562	2.633	473468	WORD	n/a	wordpools/wordpool_EN.txt	FAN	8	12	n/a	n/a	pyFR	0	UP046
1705.195	2.534	474126	WORD	n/a	wordpools/wordpool_EN.txt	BRANCH	9	12	n/a	n/a	pyFR	0	UP046
1707.729	2.516	474759	WORD	n/a	wordpools/wordpool_EN.txt	SMOKE	10	12	n/a	n/a	pyFR	0	UP046
1710.245	2.468	475388	WORD	n/a	wordpools/wordpool_EN.txt	WOOD	11	12	n/a	n/a	pyFR	0	UP046
1712.713	2.816	476005	WORD	n/a	wordpools/wordpool_EN.txt	TENT	12	12	n/a	n/a	pyFR	0	UP046
1715.529	2.649	476709	WORD	n/a	wordpools/wordpool_EN.txt	SUN	13	12	n/a	n/a	pyFR	0	UP046
1718.178	2.485	477372	WORD	n/a	wordpools/wordpool_EN.txt	BOARD	14	12	n/a	n/a	pyFR	0	UP046
1720.663	1.618	477993	WORD	n/a	wordpools/wordpool_EN.txt	WORM	15	12	n/a	n/a	pyFR	0	UP046
1722.281	0.929	478397	START	n/a	n/a	n/a	n/a	12	[-999 -999 -999]	-999	pyFR	0	UP046
1723.21	8.085	478630	PROB	8.052	n/a	n/a	n/a	12	[4 5 9]	18	pyFR	0	UP046
1731.295	24.55	480651	PROB	24.55	n/a	n/a	n/a	12	[7 3 9]	19	pyFR	0	UP046
1755.845	1.12	486788	STOP	n/a	n/a	n/a	n/a	12	[-999 -999 -999]	-999	pyFR	0	UP046
1756.965	4.851	487068	REC_START	n/a	n/a	n/a	-999	12	n/a	n/a	pyFR	0	UP046
1761.816	0.922	488281	REC_WORD	4.851	n/a	SMOKE	-999	12	n/a	n/a	pyFR	0	UP046
1762.738	0.831	488512	REC_WORD	5.773	n/a	WOOD	-999	12	n/a	n/a	pyFR	0	UP046
1763.569	8.219	488719	REC_WORD	6.604	n/a	WORM	-999	12	n/a	n/a	pyFR	0	UP046
1771.788	9.569	490774	REC_WORD	14.823	n/a	FLUTE	-999	12	n/a	n/a	pyFR	0	UP046
1781.357	3.914	493166	REC_WORD_VV	24.392	n/a	<>	-999	12	n/a	n/a	pyFR	0	UP046
1785.271	5.455	494145	REC_WORD_VV	28.306	n/a	<>	-999	12	n/a	n/a	pyFR	0	UP046
1790.726	2.852	495509	REC_WORD_VV	33.761	n/a	<>	-999	12	n/a	n/a	pyFR	0	UP046
1793.578	4.502	496222	REC_WORD	36.613	n/a	MAT	-999	12	n/a	n/a	pyFR	0	UP046
1798.08	12.386	497347	REC_WORD_VV	41.115	n/a	<>	-999	12	n/a	n/a	pyFR	0	UP046
1810.466	0.017	500444	TRIAL	n/a	n/a	n/a	-999	13	n/a	n/a	pyFR	0	UP046
1810.483	2.8	500448	ORIENT	n/a	n/a	n/a	-999	13	n/a	n/a	pyFR	0	UP046
1813.283	2.799	501148	WORD	n/a	wordpools/wordpool_EN.txt	COAT	1	13	n/a	n/a	pyFR	0	UP046
1816.082	2.601	501848	WORD	n/a	wordpools/wordpool_EN.txt	STICK	2	13	n/a	n/a	pyFR	0	UP046
1818.683	2.65	502498	WORD	n/a	wordpools/wordpool_EN.txt	HAND	3	13	n/a	n/a	pyFR	0	UP046
1821.333	2.682	503160	WORD	n/a	wordpools/wordpool_EN.txt	BAG	4	13	n/a	n/a	pyFR	0	UP046
1824.015	2.551	503831	WORD	n/a	wordpools/wordpool_EN.txt	WHEEL	5	13	n/a	n/a	pyFR	0	UP046
1826.566	2.815	504469	WORD	n/a	wordpools/wordpool_EN.txt	CORN	6	13	n/a	n/a	pyFR	0	UP046
1829.381	2.502	505172	WORD	n/a	wordpools/wordpool_EN.txt	NOSE	7	13	n/a	n/a	pyFR	0	UP046
1831.883	2.616	505798	WORD	n/a	wordpools/wordpool_EN.txt	MUG	8	13	n/a	n/a	pyFR	0	UP046
1834.499	2.468	506452	WORD	n/a	wordpools/wordpool_EN.txt	SNAKE	9	13	n/a	n/a	pyFR	0	UP046
1836.967	2.55	507069	WORD	n/a	wordpools/wordpool_EN.txt	SHRIMP	10	13	n/a	n/a	pyFR	0	UP046
1839.517	2.699	507706	WORD	n/a	wordpools/wordpool_EN.txt	GOAT	11	13	n/a	n/a	pyFR	0	UP046
1842.216	2.783	508381	WORD	n/a	wordpools/wordpool_EN.txt	PASTE	12	13	n/a	n/a	pyFR	0	UP046
1844.999	2.601	509077	WORD	n/a	wordpools/wordpool_EN.txt	WEED	13	13	n/a	n/a	pyFR	0	UP046
1847.6	2.817	509727	WORD	n/a	wordpools/wordpool_EN.txt	PLANT	14	13	n/a	n/a	pyFR	0	UP046
1850.417	1.618	510431	WORD	n/a	wordpools/wordpool_EN.txt	BED	15	13	n/a	n/a	pyFR	0	UP046
1852.035	1.046	510836	START	n/a	n/a	n/a	n/a	13	[-999 -999 -999]	-999	pyFR	0	UP046
1853.081	8.185	511097	PROB	8.152	n/a	n/a	n/a	13	[8 3 5]	16	pyFR	0	UP046
1861.266	5.7	513144	PROB	5.672	n/a	n/a	n/a	13	[6 8 2]	16	pyFR	0	UP046
1866.966	6.715	514569	PROB	6.715	n/a	n/a	n/a	13	[7 1 1]	9	pyFR	0	UP046
1873.681	1.155	516247	STOP	n/a	n/a	n/a	n/a	13	[-999 -999 -999]	-999	pyFR	0	UP046
1874.836	8.836	516536	REC_START	n/a	n/a	n/a	-999	13	n/a	n/a	pyFR	0	UP046
1883.672	2.121	518745	REC_WORD	8.836	n/a	WEED	-999	13	n/a	n/a	pyFR	0	UP046
1885.793	8.515	519275	REC_WORD_VV	10.957	n/a	<>	-999	13	n/a	n/a	pyFR	0	UP046
1894.308	2.67	521404	REC_WORD_VV	19.472	n/a	<>	-999	13	n/a	n/a	pyFR	0	UP046
1896.978	11.0	522072	REC_WORD_VV	22.142	n/a	<>	-999	13	n/a	n/a	pyFR	0	UP046
1907.978	21.392	524822	REC_WORD	33.142	n/a	STEEL	-999	13	n/a	n/a	pyFR	0	UP046
1929.37	0.017	530170	TRIAL	n/a	n/a	n/a	-999	14	n/a	n/a	pyFR	0	UP046
1929.387	2.682	530174	ORIENT	n/a	n/a	n/a	-999	14	n/a	n/a	pyFR	0	UP046
1932.069	2.434	530844	WORD	n/a	wordpools/wordpool_EN.txt	GRASS	1	14	n/a	n/a	pyFR	0	UP046
1934.503	2.616	531453	WORD	n/a	wordpools/wordpool_EN.txt	MOLE	2	14	n/a	n/a	pyFR	0	UP046
1937.119	2.585	532107	WORD	n/a	wordpools/wordpool_EN.txt	FOOT	3	14	n/a	n/a	pyFR	0	UP046
1939.704	2.833	532753	WORD	n/a	wordpools/wordpool_EN.txt	SPARK	4	14	n/a	n/a	pyFR	0	UP046
1942.537	2.783	533461	WORD	n/a	wordpools/wordpool_EN.txt	OAK	5	14	n/a	n/a	pyFR	0	UP046
1945.32	2.816	534157	WORD	n/a	wordpools/wordpool_EN.txt	JAIL	6	14	n/a	n/a	pyFR	0	UP046
1948.136	2.651	534861	WORD	n/a	wordpools/wordpool_EN.txt	DRUM	7	14	n/a	n/a	pyFR	0	UP046
1950.787	2.65	535524	WORD	n/a	wordpools/wordpool_EN.txt	ROOT	8	14	n/a	n/a	pyFR	0	UP046
1953.437	2.633	536186	WORD	n/a	wordpools/wordpool_EN.txt	FARM	9	14	n/a	n/a	pyFR	0	UP046
1956.07	2.801	536845	WORD	n/a	wordpools/wordpool_EN.txt	FLAME	10	14	n/a	n/a	pyFR	0	UP046
1958.871	2.717	537545	WORD	n/a	wordpools/wordpool_EN.txt	ROPE	11	14	n/a	n/a	pyFR	0	UP046
1961.588	2.632	538224	WORD	n/a	wordpools/wordpool_EN.txt	STREET	12	14	n/a	n/a	pyFR	0	UP046
1964.22	2.435	538882	WORD	n/a	wordpools/wordpool_EN.txt	CUP	13	14	n/a	n/a	pyFR	0	UP046
1966.655	2.7	539491	WORD	n/a	wordpools/wordpool_EN.txt	TOY	14	14	n/a	n/a	pyFR	0	UP046
1969.355	1.617	540166	WORD	n/a	wordpools/wordpool_EN.txt	BOWL	15	14	n/a	n/a	pyFR	0	UP046
1970.972	1.082	540570	START	n/a	n/a	n/a	n/a	14	[-999 -999 -999]	-999	pyFR	0	UP046
1972.054	4.401	540841	PROB	4.376	n/a	n/a	n/a	14	[2 5 1]	8	pyFR	0	UP046
1976.455	8.547	541941	PROB	8.51	n/a	n/a	n/a	14	[6 3 2]	11	pyFR	0	UP046
1985.002	3.851	544078	PROB	3.827	n/a	n/a	n/a	14	[3 9 1]	13	pyFR	0	UP046
1988.853	3.816	545040	PROB	3.816	n/a	n/a	n/a	14	[1 1 2]	4	pyFR	0	UP046
1992.669	1.221	545994	STOP	n/a	n/a	n/a	n/a	14	[-999 -999 -999]	-999	pyFR	0	UP046
1993.89	1.503	546300	REC_START	n/a	n/a	n/a	-999	14	n/a	n/a	pyFR	0	UP046
1995.393	1.626	546675	REC_WORD	1.503	n/a	GRASS	-999	14	n/a	n/a	pyFR	0	UP046
1997.019	4.665	547082	REC_WORD	3.129	n/a	JAIL	-999	14	n/a	n/a	pyFR	0	UP046
2001.684	6.173	548248	REC_WORD	7.794	n/a	TOY	-999	14	n/a	n/a	pyFR	0	UP046
2007.857	9.58	549791	REC_WORD	13.967	n/a	RAT	-999	14	n/a	n/a	pyFR	0	UP046
2017.437	19.758	552186	REC_WORD	23.547	n/a	BRICK	-999	14	n/a	n/a	pyFR	0	UP046
2037.195	22.912	557126	REC_WORD_VV	43.305	n/a	<>	-999	14	n/a	n/a	pyFR	0	UP046
2060.107	0.016	562854	TRIAL	n/a	n/a	n/a	-999	15	n/a	n/a	pyFR	0	UP046
2060.123	3.0	562858	ORIENT	n/a	n/a	n/a	-999	15	n/a	n/a	pyFR	0	UP046
2063.123	2.801	563608	WORD	n/a	wordpools/wordpool_EN.txt	PALM	1	15	n/a	n/a	pyFR	0	UP046
2065.924	2.567	564308	WORD	n/a	wordpools/wordpool_EN.txt	DAD	2	15	n/a	n/a	pyFR	0	UP046
2068.491	2.633	564950	WORD	n/a	wordpools/wordpool_EN.txt	SUIT	3	15	n/a	n/a	pyFR	0	UP046
2071.124	2.634	565608	WORD	n/a	wordpools/wordpool_EN.txt	CART	4	15	n/a	n/a	pyFR	0	UP046
2073.758	2.7	566267	WORD	n/a	wordpools/wordpool_EN.txt	SEA	5	15	n/a	n/a	pyFR	0	UP046
2076.458	2.666	566942	WORD	n/a	wordpools/wordpool_EN.txt	CHAIR	6	15	n/a	n/a	pyFR	0	UP046
2079.124	2.634	567608	WORD	n/a	wordpools/wordpool_EN.txt	DITCH	7	15	n/a	n/a	pyFR	0	UP046
2081.758	2.767	568267	WORD	n/a	wordpools/wordpool_EN.txt	SLEEVE	8	15	n/a	n/a	pyFR	0	UP046
2084.525	2.549	568958	WORD	n/a	wordpools/wordpool_EN.txt	MOOSE	9	15	n/a	n/a	pyFR	0	UP046
2087.074	2.551	569596	WORD	n/a	wordpools/wordpool_EN.txt	SWAMP	10	15	n/a	n/a	pyFR	0	UP046
2089.625	2.634	570233	WORD	n/a	wordpools/wordpool_EN.txt	SHOE	11	15	n/a	n/a	pyFR	0	UP046
2092.259	2.815	570892	WORD	n/a	wordpools/wordpool_EN.txt	DOLL	12	15	n/a	n/a	pyFR	0	UP046
2095.074	2.585	571596	WORD	n/a	wordpools/wordpool_EN.txt	FLEA	13	15	n/a	n/a	pyFR	0	UP046
2097.659	2.683	572242	WORD	n/a	wordpools/wordpool_EN.txt	PEAR	14	15	n/a	n/a	pyFR	0	UP046
2100.342	1.619	572913	WORD	n/a	wordpools/wordpool_EN.txt	VINE	15	15	n/a	n/a	pyFR	0	UP046
2101.961	1.18	573317	START	n/a	n/a	n/a	n/a	15	[-999 -999 -999]	-999	pyFR	0	UP046
2103.141	4.433	573612	PROB	4.396	n/a	n/a	n/a	15	[1 6 4]	11	pyFR	0	UP046
2107.574	8.184	574720	PROB	8.147	n/a	n/a	n/a	15	[8 7 2]	17	pyFR	0	UP046
2115.758	8.843	576766	PROB	8.843	n/a	n/a	n/a	15	[9 9 5]	23	pyFR	0	UP046
2124.601	1.11	578977	STOP	n/a	n/a	n/a	n/a	15	[-999 -999 -999]	-999	pyFR	0	UP046
2125.711	7.675	579255	REC_START	n/a	n/a	n/a	-999	15	n/a	n/a	pyFR	0	UP046
2133.386	1.903	581173	REC_WORD	7.675	n/a	DAD	-999	15	n/a	n/a	pyFR	0	UP046
2135.289	2.903	581649	REC_WORD_VV	9.578	n/a	<>	-999	15	n/a	n/a	pyFR	0	UP046
2138.192	17.696	582375	REC_WORD	12.481	n/a	SLEEP	-999	15	n/a	n/a	pyFR	0	UP046
2155.888	9.913	586799	REC_WORD_VV	30.177	n/a	<>	-999	15	n/a	n/a	pyFR	0	UP046
2165.801	20.728	589277	REC_WORD_VV	40.09	n/a	<>	-999	15	n/a	n/a	pyFR	0	UP046
2186.529	0.016	594459	TRIAL	n/a	n/a	n/a	-999	16	n/a	n/a	pyFR	0	UP046
2186.545	3.017	594463	ORIENT	n/a	n/a	n/a	-999	16	n/a	n/a	pyFR	0	UP046
2189.562	2.499	595217	WORD	n/a	wordpools/wordpool_EN.txt	LAWN	1	16	n/a	n/a	pyFR	0	UP046
2192.061	2.768	595842	WORD	n/a	wordpools/wordpool_EN.txt	TRAIN	2	16	n/a	n/a	pyFR	0	UP046
2194.829	2.648	596534	WORD	n/a	wordpools/wordpool_EN.txt	JUICE	3	16	n/a	n/a	pyFR	0	UP046
2197.477	2.684	597196	WORD	n/a	wordpools/wordpool_EN.txt	TOAST	4	16	n/a	n/a	pyFR	0	UP046
2200.161	2.501	597867	WORD	n/a	wordpools/wordpool_EN.txt	MILK	5	16	n/a	n/a	pyFR	0	UP046
2202.662	2.8	598492	WORD	n/a	wordpools/wordpool_EN.txt	CAR	6	16	n/a	n/a	pyFR	0	UP046
2205.462	2.516	599192	WORD	n/a	wordpools/wordpool_EN.txt	RAKE	7	16	n/a	n/a	pyFR	0	UP046
2207.978	2.749	599821	WORD	n/a	wordpools/wordpool_EN.txt	WOLF	8	16	n/a	n/a	pyFR	0	UP046
2210.727	2.451	600509	WORD	n/a	wordpools/wordpool_EN.txt	PLATE	9	16	n/a	n/a	pyFR	0	UP046
2213.178	2.718	601121	WORD	n/a	wordpools/wordpool_EN.txt	ROSE	10	16	n/a	n/a	pyFR	0	UP046
2215.896	2.767	601801	WORD	n/a	wordpools/wordpool_EN.txt	BEAN	11	16	n/a	n/a	pyFR	0	UP046
2218.663	2.6	602493	WORD	n/a	wordpools/wordpool_EN.txt	SLIME	12	16	n/a	n/a	pyFR	0	UP046
2221.263	2.667	603143	WORD	n/a	wordpools/wordpool_EN.txt	RICE	13	16	n/a	n/a	pyFR	0	UP046
2223.93	2.833	603809	WORD	n/a	wordpools/wordpool_EN.txt	SIGN	14	16	n/a	n/a	pyFR	0	UP046
2226.763	1.619	604518	WORD	n/a	wordpools/wordpool_EN.txt	NAIL	15	16	n/a	n/a	pyFR	0	UP046
2228.382	1.063	604922	START	n/a	n/a	n/a	n/a	16	[-999 -999 -999]	-999	pyFR	0	UP046
2229.445	5.2	605188	PROB	5.168	n/a	n/a	n/a	16	[3 9 1]	13	pyFR	0	UP046
2234.645	12.368	606488	PROB	12.334	n/a	n/a	n/a	16	[5 7 3]	15	pyFR	0	UP046
2247.013	8.174	609580	PROB	8.174	n/a	n/a	n/a	16	[4 3 1]	8	pyFR	0	UP046
2255.187	1.079	611624	STOP	n/a	n/a	n/a	n/a	16	[-999 -999 -999]	-999	pyFR	0	UP046
2256.266	5.67	611893	REC_START	n/a	n/a	n/a	-999	16	n/a	n/a	pyFR	0	UP046
2261.936	1.91	613311	REC_WORD	5.67	n/a	NAIL	-999	16	n/a	n/a	pyFR	0	UP046
2263.846	11.378	613788	REC_WORD	7.58	n/a	TOY	-999	16	n/a	n/a	pyFR	0	UP046
2275.224	5.123	616633	REC_WORD_VV	18.958	n/a	<>	-999	16	n/a	n/a	pyFR	0	UP046
2280.347	13.105	617914	REC_WORD_VV	24.081	n/a	<>	-999	16	n/a	n/a	pyFR	0	UP046
2293.452	620.918	621190	REC_WORD_VV	37.186	n/a	<>	-999	16	n/a	n/a	pyFR	0	UP046
2914.37	0.099	776419	SESS_END	n/a	n/a	n/a	-999	16	n/a	n/a	pyFR	0	UP046
2914.469	0.0	776444	E	n/a	n/a	n/a	-999	16	n/a	n/a	pyFR	0	UP046
