onset	duration	sample	trial_type	response_time	stim_file	item_name	serialpos	list	test	answer	experiment	session	subject
0.0	3.546	0	E	n/a	n/a	n/a	-999	-999	n/a	n/a	pyFR	0	TJ040
3.546	0.0	0	SESS_START	n/a	n/a	n/a	-999	-999	n/a	n/a	pyFR	0	TJ040
3.546	1107.436	0	B	n/a	n/a	n/a	-999	-999	n/a	n/a	pyFR	0	TJ040
1110.982	0.0	36977	SESS_START	n/a	n/a	n/a	-999	-999	n/a	n/a	pyFR	0	TJ040
1110.982	107.166	36977	B	n/a	n/a	n/a	-999	-999	n/a	n/a	pyFR	0	TJ040
1218.148	0.019	144143	START	n/a	n/a	n/a	n/a	0	[-999 -999 -999]	-999	pyFR	0	TJ040
1218.167	17.234	144162	PROB	n/a	n/a	n/a	n/a	0	[5 4 1]	7	pyFR	0	TJ040
1235.401	12.797	161396	PROB	n/a	n/a	n/a	n/a	0	[9 4 7]	19	pyFR	0	TJ040
1248.198	92.249	174192	STOP	n/a	n/a	n/a	n/a	0	[-999 -999 -999]	-999	pyFR	0	TJ040
1340.447	0.016	266441	TRIAL	n/a	n/a	n/a	-999	1	n/a	n/a	pyFR	0	TJ040
1340.463	2.854	266457	ORIENT	n/a	n/a	n/a	-999	1	n/a	n/a	pyFR	0	TJ040
1343.317	2.722	269311	WORD	n/a	wordpools/wordpool_EN.txt	TANK	1	1	n/a	n/a	pyFR	0	TJ040
1346.039	2.64	272033	WORD	n/a	wordpools/wordpool_EN.txt	PALM	2	1	n/a	n/a	pyFR	0	TJ040
1348.679	2.621	274673	WORD	n/a	wordpools/wordpool_EN.txt	TREE	3	1	n/a	n/a	pyFR	0	TJ040
1351.3	2.789	277294	WORD	n/a	wordpools/wordpool_EN.txt	HEART	4	1	n/a	n/a	pyFR	0	TJ040
1354.089	2.489	280083	WORD	n/a	wordpools/wordpool_EN.txt	TOOL	5	1	n/a	n/a	pyFR	0	TJ040
1356.578	2.571	282572	WORD	n/a	wordpools/wordpool_EN.txt	STEAK	6	1	n/a	n/a	pyFR	0	TJ040
1359.149	2.706	285143	WORD	n/a	wordpools/wordpool_EN.txt	JEEP	7	1	n/a	n/a	pyFR	0	TJ040
1361.855	2.739	287849	WORD	n/a	wordpools/wordpool_EN.txt	HORSE	8	1	n/a	n/a	pyFR	0	TJ040
1364.594	2.554	290588	WORD	n/a	wordpools/wordpool_EN.txt	RAKE	9	1	n/a	n/a	pyFR	0	TJ040
1367.148	2.523	293142	WORD	n/a	wordpools/wordpool_EN.txt	HOUSE	10	1	n/a	n/a	pyFR	0	TJ040
1369.671	2.504	295665	WORD	n/a	wordpools/wordpool_EN.txt	BOY	11	1	n/a	n/a	pyFR	0	TJ040
1372.175	2.822	298169	WORD	n/a	wordpools/wordpool_EN.txt	GRAPE	12	1	n/a	n/a	pyFR	0	TJ040
1374.997	2.573	300991	WORD	n/a	wordpools/wordpool_EN.txt	VINE	13	1	n/a	n/a	pyFR	0	TJ040
1377.57	2.671	303564	WORD	n/a	wordpools/wordpool_EN.txt	FORK	14	1	n/a	n/a	pyFR	0	TJ040
1380.241	1.606	306235	WORD	n/a	wordpools/wordpool_EN.txt	FUDGE	15	1	n/a	n/a	pyFR	0	TJ040
1381.847	1.166	307841	START	n/a	n/a	n/a	n/a	1	[-999 -999 -999]	-999	pyFR	0	TJ040
1383.013	5.78	309007	PROB	n/a	n/a	n/a	n/a	1	[3 3 2]	8	pyFR	0	TJ040
1388.793	7.564	314787	PROB	n/a	n/a	n/a	n/a	1	[9 2 2]	13	pyFR	0	TJ040
1396.357	7.98	322351	PROB	n/a	n/a	n/a	n/a	1	[7 1 7]	8	pyFR	0	TJ040
1404.337	1.157	330331	STOP	n/a	n/a	n/a	n/a	1	[-999 -999 -999]	-999	pyFR	0	TJ040
1405.494	0.0	331487	REC_WORD_VV	0.0	n/a	<>	-999	1	n/a	n/a	pyFR	0	TJ040
1405.494	1.0	331487	REC_START	n/a	n/a	n/a	-999	1	n/a	n/a	pyFR	0	TJ040
1406.494	1.0	332487	REC_WORD_VV	1.0	n/a	<>	-999	1	n/a	n/a	pyFR	0	TJ040
1407.494	1.0	333487	REC_WORD_VV	1.0	n/a	<>	-999	1	n/a	n/a	pyFR	0	TJ040
1408.494	1.0	334487	REC_WORD_VV	1.0	n/a	<>	-999	1	n/a	n/a	pyFR	0	TJ040
1409.494	1.0	335487	REC_WORD_VV	1.0	n/a	<>	-999	1	n/a	n/a	pyFR	0	TJ040
1410.494	1.829	336487	REC_WORD_VV	1.829	n/a	<>	-999	1	n/a	n/a	pyFR	0	TJ040
1412.323	1.588	338316	REC_WORD	1.588	n/a	GRAPE	-999	1	n/a	n/a	pyFR	0	TJ040
1413.911	1.902	339904	REC_WORD	1.902	n/a	TANK	-999	1	n/a	n/a	pyFR	0	TJ040
1415.813	3.602	341806	REC_WORD	3.602	n/a	HORSE	-999	1	n/a	n/a	pyFR	0	TJ040
1419.415	1.0	345408	REC_WORD	1.0	n/a	VINE	-999	1	n/a	n/a	pyFR	0	TJ040
1420.415	3.915	346408	REC_WORD_VV	3.915	n/a	<>	-999	1	n/a	n/a	pyFR	0	TJ040
1424.33	7.623	350323	REC_WORD_VV	7.623	n/a	<>	-999	1	n/a	n/a	pyFR	0	TJ040
1431.953	3.631	357946	REC_WORD_VV	3.631	n/a	<>	-999	1	n/a	n/a	pyFR	0	TJ040
1435.584	1.0	361577	REC_WORD_VV	1.0	n/a	<>	-999	1	n/a	n/a	pyFR	0	TJ040
1436.584	29.447	362577	REC_WORD_VV	29.447	n/a	<>	-999	1	n/a	n/a	pyFR	0	TJ040
1466.031	0.015	392024	TRIAL	n/a	n/a	n/a	-999	2	n/a	n/a	pyFR	0	TJ040
1466.046	2.707	392039	ORIENT	n/a	n/a	n/a	-999	2	n/a	n/a	pyFR	0	TJ040
1468.753	2.805	394746	WORD	n/a	wordpools/wordpool_EN.txt	SHOE	1	2	n/a	n/a	pyFR	0	TJ040
1471.558	2.705	397551	WORD	n/a	wordpools/wordpool_EN.txt	DRESS	2	2	n/a	n/a	pyFR	0	TJ040
1474.263	2.489	400256	WORD	n/a	wordpools/wordpool_EN.txt	KITE	3	2	n/a	n/a	pyFR	0	TJ040
1476.752	2.772	402745	WORD	n/a	wordpools/wordpool_EN.txt	FOAM	4	2	n/a	n/a	pyFR	0	TJ040
1479.524	2.454	405517	WORD	n/a	wordpools/wordpool_EN.txt	BOOT	5	2	n/a	n/a	pyFR	0	TJ040
1481.978	2.64	407971	WORD	n/a	wordpools/wordpool_EN.txt	COAT	6	2	n/a	n/a	pyFR	0	TJ040
1484.618	2.554	410611	WORD	n/a	wordpools/wordpool_EN.txt	PHONE	7	2	n/a	n/a	pyFR	0	TJ040
1487.172	2.472	413165	WORD	n/a	wordpools/wordpool_EN.txt	CLOWN	8	2	n/a	n/a	pyFR	0	TJ040
1489.644	2.571	415637	WORD	n/a	wordpools/wordpool_EN.txt	MAT	9	2	n/a	n/a	pyFR	0	TJ040
1492.215	2.473	418208	WORD	n/a	wordpools/wordpool_EN.txt	NEST	10	2	n/a	n/a	pyFR	0	TJ040
1494.688	2.739	420681	WORD	n/a	wordpools/wordpool_EN.txt	MILK	11	2	n/a	n/a	pyFR	0	TJ040
1497.427	2.52	423420	WORD	n/a	wordpools/wordpool_EN.txt	CORD	12	2	n/a	n/a	pyFR	0	TJ040
1499.947	2.49	425940	WORD	n/a	wordpools/wordpool_EN.txt	DITCH	13	2	n/a	n/a	pyFR	0	TJ040
1502.437	2.688	428430	WORD	n/a	wordpools/wordpool_EN.txt	FLAME	14	2	n/a	n/a	pyFR	0	TJ040
1505.125	1.622	431118	WORD	n/a	wordpools/wordpool_EN.txt	WAVE	15	2	n/a	n/a	pyFR	0	TJ040
1506.747	1.151	432740	START	n/a	n/a	n/a	n/a	2	[-999 -999 -999]	-999	pyFR	0	TJ040
1507.898	7.464	433891	PROB	n/a	n/a	n/a	n/a	2	[2 9 8]	19	pyFR	0	TJ040
1515.362	4.976	441355	PROB	n/a	n/a	n/a	n/a	2	[4 6 8]	18	pyFR	0	TJ040
1520.338	6.164	446331	PROB	n/a	n/a	n/a	n/a	2	[4 3 2]	9	pyFR	0	TJ040
1526.502	6.79	452495	PROB	n/a	n/a	n/a	n/a	2	[5 9 9]	23	pyFR	0	TJ040
1533.292	1.193	459285	STOP	n/a	n/a	n/a	n/a	2	[-999 -999 -999]	-999	pyFR	0	TJ040
1534.485	4.694	460478	REC_START	n/a	n/a	n/a	-999	2	n/a	n/a	pyFR	0	TJ040
1539.179	1.181	465172	REC_WORD_VV	1.181	n/a	<>	-999	2	n/a	n/a	pyFR	0	TJ040
1540.36	3.891	466353	REC_WORD	3.891	n/a	BOOT	-999	2	n/a	n/a	pyFR	0	TJ040
1544.251	0.615	470244	REC_WORD_VV	0.615	n/a	<>	-999	2	n/a	n/a	pyFR	0	TJ040
1544.866	4.979	470859	REC_WORD	4.979	n/a	KITE	-999	2	n/a	n/a	pyFR	0	TJ040
1549.845	0.109	475838	REC_WORD_VV	0.109	n/a	<>	-999	2	n/a	n/a	pyFR	0	TJ040
1549.954	9.37	475947	REC_WORD	9.37	n/a	HOUSE	-999	2	n/a	n/a	pyFR	0	TJ040
1559.324	0.2	485317	REC_WORD_VV	0.2	n/a	<>	-999	2	n/a	n/a	pyFR	0	TJ040
1559.524	15.867	485517	REC_WORD	15.867	n/a	FLIGHT	-999	2	n/a	n/a	pyFR	0	TJ040
1575.391	1.0	501383	REC_WORD_VV	1.0	n/a	<>	-999	2	n/a	n/a	pyFR	0	TJ040
1576.391	7.026	502383	REC_WORD_VV	7.026	n/a	<>	-999	2	n/a	n/a	pyFR	0	TJ040
1583.417	0.015	509409	TRIAL	n/a	n/a	n/a	-999	3	n/a	n/a	pyFR	0	TJ040
1583.432	2.939	509424	ORIENT	n/a	n/a	n/a	-999	3	n/a	n/a	pyFR	0	TJ040
1586.371	2.722	512363	WORD	n/a	wordpools/wordpool_EN.txt	BLOOM	1	3	n/a	n/a	pyFR	0	TJ040
1589.093	2.706	515085	WORD	n/a	wordpools/wordpool_EN.txt	BAND	2	3	n/a	n/a	pyFR	0	TJ040
1591.799	2.504	517791	WORD	n/a	wordpools/wordpool_EN.txt	ICE	3	3	n/a	n/a	pyFR	0	TJ040
1594.303	2.706	520295	WORD	n/a	wordpools/wordpool_EN.txt	STAR	4	3	n/a	n/a	pyFR	0	TJ040
1597.009	2.823	523001	WORD	n/a	wordpools/wordpool_EN.txt	TAPE	5	3	n/a	n/a	pyFR	0	TJ040
1599.832	2.638	525824	WORD	n/a	wordpools/wordpool_EN.txt	SQUARE	6	3	n/a	n/a	pyFR	0	TJ040
1602.47	2.455	528462	WORD	n/a	wordpools/wordpool_EN.txt	ROSE	7	3	n/a	n/a	pyFR	0	TJ040
1604.925	2.505	530917	WORD	n/a	wordpools/wordpool_EN.txt	SPONGE	8	3	n/a	n/a	pyFR	0	TJ040
1607.43	2.822	533422	WORD	n/a	wordpools/wordpool_EN.txt	TOOTH	9	3	n/a	n/a	pyFR	0	TJ040
1610.252	2.489	536244	WORD	n/a	wordpools/wordpool_EN.txt	CART	10	3	n/a	n/a	pyFR	0	TJ040
1612.741	2.537	538733	WORD	n/a	wordpools/wordpool_EN.txt	LAKE	11	3	n/a	n/a	pyFR	0	TJ040
1615.278	2.806	541270	WORD	n/a	wordpools/wordpool_EN.txt	STEAM	12	3	n/a	n/a	pyFR	0	TJ040
1618.084	2.59	544076	WORD	n/a	wordpools/wordpool_EN.txt	STRING	13	3	n/a	n/a	pyFR	0	TJ040
1620.674	2.772	546666	WORD	n/a	wordpools/wordpool_EN.txt	TOY	14	3	n/a	n/a	pyFR	0	TJ040
1623.446	1.62	549438	WORD	n/a	wordpools/wordpool_EN.txt	SUN	15	3	n/a	n/a	pyFR	0	TJ040
1625.066	0.9	551058	START	n/a	n/a	n/a	n/a	3	[-999 -999 -999]	-999	pyFR	0	TJ040
1625.966	4.176	551958	PROB	n/a	n/a	n/a	n/a	3	[3 4 5]	12	pyFR	0	TJ040
1630.142	3.624	556134	PROB	n/a	n/a	n/a	n/a	3	[1 8 4]	12	pyFR	0	TJ040
1633.766	5.111	559758	PROB	n/a	n/a	n/a	n/a	3	[8 6 3]	12	pyFR	0	TJ040
1638.877	4.224	564869	PROB	n/a	n/a	n/a	n/a	3	[3 8 7]	18	pyFR	0	TJ040
1643.101	3.22	569093	PROB	n/a	n/a	n/a	n/a	3	[4 2 7]	11	pyFR	0	TJ040
1646.321	1.174	572313	STOP	n/a	n/a	n/a	n/a	3	[-999 -999 -999]	-999	pyFR	0	TJ040
1647.495	1.646	573487	REC_START	n/a	n/a	n/a	-999	3	n/a	n/a	pyFR	0	TJ040
1649.141	2.134	575133	REC_WORD	2.134	n/a	SUN	-999	3	n/a	n/a	pyFR	0	TJ040
1651.275	1.361	577267	REC_WORD	1.361	n/a	TOY	-999	3	n/a	n/a	pyFR	0	TJ040
1652.636	2.259	578628	REC_WORD	2.259	n/a	LAKE	-999	3	n/a	n/a	pyFR	0	TJ040
1654.895	2.881	580887	REC_WORD	2.881	n/a	STEAM	-999	3	n/a	n/a	pyFR	0	TJ040
1657.776	10.226	583768	REC_WORD_VV	10.226	n/a	<>	-999	3	n/a	n/a	pyFR	0	TJ040
1668.002	8.64	593994	REC_WORD_VV	8.64	n/a	<>	-999	3	n/a	n/a	pyFR	0	TJ040
1676.642	19.583	602634	REC_WORD_VV	19.583	n/a	<>	-999	3	n/a	n/a	pyFR	0	TJ040
1696.225	0.016	622217	TRIAL	n/a	n/a	n/a	-999	4	n/a	n/a	pyFR	0	TJ040
1696.241	2.989	622233	ORIENT	n/a	n/a	n/a	-999	4	n/a	n/a	pyFR	0	TJ040
1699.23	2.623	625222	WORD	n/a	wordpools/wordpool_EN.txt	LAND	1	4	n/a	n/a	pyFR	0	TJ040
1701.853	2.772	627845	WORD	n/a	wordpools/wordpool_EN.txt	PLANE	2	4	n/a	n/a	pyFR	0	TJ040
1704.625	2.487	630617	WORD	n/a	wordpools/wordpool_EN.txt	MOLE	3	4	n/a	n/a	pyFR	0	TJ040
1707.112	2.64	633104	WORD	n/a	wordpools/wordpool_EN.txt	MOOSE	4	4	n/a	n/a	pyFR	0	TJ040
1709.752	2.454	635744	WORD	n/a	wordpools/wordpool_EN.txt	GATE	5	4	n/a	n/a	pyFR	0	TJ040
1712.206	2.472	638198	WORD	n/a	wordpools/wordpool_EN.txt	NAIL	6	4	n/a	n/a	pyFR	0	TJ040
1714.678	2.588	640670	WORD	n/a	wordpools/wordpool_EN.txt	CAVE	7	4	n/a	n/a	pyFR	0	TJ040
1717.266	2.523	643258	WORD	n/a	wordpools/wordpool_EN.txt	DEER	8	4	n/a	n/a	pyFR	0	TJ040
1719.789	2.755	645781	WORD	n/a	wordpools/wordpool_EN.txt	CORN	9	4	n/a	n/a	pyFR	0	TJ040
1722.544	2.721	648536	WORD	n/a	wordpools/wordpool_EN.txt	CAKE	10	4	n/a	n/a	pyFR	0	TJ040
1725.265	2.722	651257	WORD	n/a	wordpools/wordpool_EN.txt	MULE	11	4	n/a	n/a	pyFR	0	TJ040
1727.987	2.456	653978	WORD	n/a	wordpools/wordpool_EN.txt	SEA	12	4	n/a	n/a	pyFR	0	TJ040
1730.443	2.755	656434	WORD	n/a	wordpools/wordpool_EN.txt	PET	13	4	n/a	n/a	pyFR	0	TJ040
1733.198	2.589	659189	WORD	n/a	wordpools/wordpool_EN.txt	BENCH	14	4	n/a	n/a	pyFR	0	TJ040
1735.787	1.622	661778	WORD	n/a	wordpools/wordpool_EN.txt	SNAIL	15	4	n/a	n/a	pyFR	0	TJ040
1737.409	1.201	663400	START	n/a	n/a	n/a	n/a	4	[-999 -999 -999]	-999	pyFR	0	TJ040
1738.61	6.428	664601	PROB	n/a	n/a	n/a	n/a	4	[6 6 3]	15	pyFR	0	TJ040
1745.038	6.481	671029	PROB	n/a	n/a	n/a	n/a	4	[8 3 2]	14	pyFR	0	TJ040
1751.519	9.574	677510	PROB	n/a	n/a	n/a	n/a	4	[4 5 8]	17	pyFR	0	TJ040
1761.093	1.13	687084	STOP	n/a	n/a	n/a	n/a	4	[-999 -999 -999]	-999	pyFR	0	TJ040
1762.223	2.639	688214	REC_START	n/a	n/a	n/a	-999	4	n/a	n/a	pyFR	0	TJ040
1764.862	0.637	690853	REC_WORD_VV	0.637	n/a	<>	-999	4	n/a	n/a	pyFR	0	TJ040
1765.499	4.822	691490	REC_WORD	4.822	n/a	LAND	-999	4	n/a	n/a	pyFR	0	TJ040
1770.321	2.698	696312	REC_WORD	2.698	n/a	LAKE	-999	4	n/a	n/a	pyFR	0	TJ040
1773.019	3.119	699010	REC_WORD	3.119	n/a	SEA	-999	4	n/a	n/a	pyFR	0	TJ040
1776.138	0.375	702129	REC_WORD_VV	0.375	n/a	<>	-999	4	n/a	n/a	pyFR	0	TJ040
1776.513	3.239	702504	REC_WORD	3.239	n/a	DEER	-999	4	n/a	n/a	pyFR	0	TJ040
1779.752	11.645	705743	REC_WORD	11.645	n/a	MULE	-999	4	n/a	n/a	pyFR	0	TJ040
1791.397	0.412	717388	REC_WORD_VV	0.412	n/a	<>	-999	4	n/a	n/a	pyFR	0	TJ040
1791.809	4.557	717800	REC_WORD	4.557	n/a	TREE	-999	4	n/a	n/a	pyFR	0	TJ040
1796.366	4.905	722357	REC_WORD_VV	4.905	n/a	<>	-999	4	n/a	n/a	pyFR	0	TJ040
1801.271	7.664	727262	REC_WORD_VV	7.664	n/a	<>	-999	4	n/a	n/a	pyFR	0	TJ040
1808.935	0.015	734926	TRIAL	n/a	n/a	n/a	-999	5	n/a	n/a	pyFR	0	TJ040
1808.95	2.689	734941	ORIENT	n/a	n/a	n/a	-999	5	n/a	n/a	pyFR	0	TJ040
1811.639	2.671	737630	WORD	n/a	wordpools/wordpool_EN.txt	KEY	1	5	n/a	n/a	pyFR	0	TJ040
1814.31	2.789	740301	WORD	n/a	wordpools/wordpool_EN.txt	TOE	2	5	n/a	n/a	pyFR	0	TJ040
1817.099	2.707	743090	WORD	n/a	wordpools/wordpool_EN.txt	TRUCK	3	5	n/a	n/a	pyFR	0	TJ040
1819.806	2.722	745797	WORD	n/a	wordpools/wordpool_EN.txt	PIG	4	5	n/a	n/a	pyFR	0	TJ040
1822.528	2.721	748519	WORD	n/a	wordpools/wordpool_EN.txt	CANE	5	5	n/a	n/a	pyFR	0	TJ040
1825.249	2.705	751240	WORD	n/a	wordpools/wordpool_EN.txt	LEAF	6	5	n/a	n/a	pyFR	0	TJ040
1827.954	2.807	753945	WORD	n/a	wordpools/wordpool_EN.txt	FOOT	7	5	n/a	n/a	pyFR	0	TJ040
1830.761	2.805	756752	WORD	n/a	wordpools/wordpool_EN.txt	GIRL	8	5	n/a	n/a	pyFR	0	TJ040
1833.566	2.705	759557	WORD	n/a	wordpools/wordpool_EN.txt	SCHOOL	9	5	n/a	n/a	pyFR	0	TJ040
1836.271	2.489	762262	WORD	n/a	wordpools/wordpool_EN.txt	FACE	10	5	n/a	n/a	pyFR	0	TJ040
1838.76	2.823	764751	WORD	n/a	wordpools/wordpool_EN.txt	HILL	11	5	n/a	n/a	pyFR	0	TJ040
1841.583	2.654	767574	WORD	n/a	wordpools/wordpool_EN.txt	PIT	12	5	n/a	n/a	pyFR	0	TJ040
1844.237	2.556	770228	WORD	n/a	wordpools/wordpool_EN.txt	WHEEL	13	5	n/a	n/a	pyFR	0	TJ040
1846.793	2.705	772784	WORD	n/a	wordpools/wordpool_EN.txt	FISH	14	5	n/a	n/a	pyFR	0	TJ040
1849.498	1.621	775489	WORD	n/a	wordpools/wordpool_EN.txt	FOOD	15	5	n/a	n/a	pyFR	0	TJ040
1851.119	1.084	777110	START	n/a	n/a	n/a	n/a	5	[-999 -999 -999]	-999	pyFR	0	TJ040
1852.203	5.043	778194	PROB	n/a	n/a	n/a	n/a	5	[1 4 6]	11	pyFR	0	TJ040
1857.246	6.631	783237	PROB	n/a	n/a	n/a	n/a	5	[3 4 4]	10	pyFR	0	TJ040
1863.877	5.645	789868	PROB	n/a	n/a	n/a	n/a	5	[1 4 8]	13	pyFR	0	TJ040
1869.522	3.937	795513	PROB	n/a	n/a	n/a	n/a	5	[1 1 2]	4	pyFR	0	TJ040
1873.459	1.257	799450	STOP	n/a	n/a	n/a	n/a	5	[-999 -999 -999]	-999	pyFR	0	TJ040
1874.716	1.428	800707	REC_START	n/a	n/a	n/a	-999	5	n/a	n/a	pyFR	0	TJ040
1876.144	1.0	802135	REC_WORD_VV	1.0	n/a	<>	-999	5	n/a	n/a	pyFR	0	TJ040
1877.144	1.0	803135	REC_WORD_VV	1.0	n/a	<>	-999	5	n/a	n/a	pyFR	0	TJ040
1878.144	1.0	804135	REC_WORD_VV	1.0	n/a	<>	-999	5	n/a	n/a	pyFR	0	TJ040
1879.144	4.835	805135	REC_WORD_VV	4.835	n/a	<>	-999	5	n/a	n/a	pyFR	0	TJ040
1883.979	2.933	809970	REC_WORD	2.933	n/a	FRIEND	-999	5	n/a	n/a	pyFR	0	TJ040
1886.912	0.637	812903	REC_WORD_VV	0.637	n/a	<>	-999	5	n/a	n/a	pyFR	0	TJ040
1887.549	4.939	813540	REC_WORD	4.939	n/a	TOE	-999	5	n/a	n/a	pyFR	0	TJ040
1892.488	2.901	818478	REC_WORD	2.901	n/a	BOAT	-999	5	n/a	n/a	pyFR	0	TJ040
1895.389	3.01	821379	REC_WORD_VV	3.01	n/a	<>	-999	5	n/a	n/a	pyFR	0	TJ040
1898.399	2.623	824389	REC_WORD_VV	2.623	n/a	<>	-999	5	n/a	n/a	pyFR	0	TJ040
1901.022	0.537	827012	REC_WORD_VV	0.537	n/a	<>	-999	5	n/a	n/a	pyFR	0	TJ040
1901.559	1.53	827549	REC_WORD	1.53	n/a	FAITH	-999	5	n/a	n/a	pyFR	0	TJ040
1903.089	0.447	829079	REC_WORD_VV	0.447	n/a	<>	-999	5	n/a	n/a	pyFR	0	TJ040
1903.536	0.767	829526	REC_WORD	0.767	n/a	HILL	-999	5	n/a	n/a	pyFR	0	TJ040
1904.303	1.71	830293	REC_WORD_VV	1.71	n/a	<>	-999	5	n/a	n/a	pyFR	0	TJ040
1906.013	8.493	832003	REC_WORD_VV	8.493	n/a	<>	-999	5	n/a	n/a	pyFR	0	TJ040
1914.506	2.101	840496	REC_WORD_VV	2.101	n/a	<>	-999	5	n/a	n/a	pyFR	0	TJ040
1916.607	0.653	842597	REC_WORD_VV	0.653	n/a	<>	-999	5	n/a	n/a	pyFR	0	TJ040
1917.26	1.0	843250	REC_WORD	1.0	n/a	TOE	-999	5	n/a	n/a	pyFR	0	TJ040
1918.26	0.352	844250	REC_WORD_VV	0.352	n/a	<>	-999	5	n/a	n/a	pyFR	0	TJ040
1918.612	5.303	844602	REC_WORD	5.303	n/a	FOOT	-999	5	n/a	n/a	pyFR	0	TJ040
1923.915	0.016	849905	TRIAL	n/a	n/a	n/a	-999	6	n/a	n/a	pyFR	0	TJ040
1923.931	2.805	849921	ORIENT	n/a	n/a	n/a	-999	6	n/a	n/a	pyFR	0	TJ040
1926.736	2.689	852726	WORD	n/a	wordpools/wordpool_EN.txt	BED	1	6	n/a	n/a	pyFR	0	TJ040
1929.425	2.438	855415	WORD	n/a	wordpools/wordpool_EN.txt	BEAK	2	6	n/a	n/a	pyFR	0	TJ040
1931.863	2.672	857853	WORD	n/a	wordpools/wordpool_EN.txt	TEETH	3	6	n/a	n/a	pyFR	0	TJ040
1934.535	2.755	860525	WORD	n/a	wordpools/wordpool_EN.txt	COUCH	4	6	n/a	n/a	pyFR	0	TJ040
1937.29	2.806	863280	WORD	n/a	wordpools/wordpool_EN.txt	SHARK	5	6	n/a	n/a	pyFR	0	TJ040
1940.096	2.706	866086	WORD	n/a	wordpools/wordpool_EN.txt	DESK	6	6	n/a	n/a	pyFR	0	TJ040
1942.802	2.789	868792	WORD	n/a	wordpools/wordpool_EN.txt	TEA	7	6	n/a	n/a	pyFR	0	TJ040
1945.591	2.437	871581	WORD	n/a	wordpools/wordpool_EN.txt	APE	8	6	n/a	n/a	pyFR	0	TJ040
1948.028	2.656	874018	WORD	n/a	wordpools/wordpool_EN.txt	MOTH	9	6	n/a	n/a	pyFR	0	TJ040
1950.684	2.756	876674	WORD	n/a	wordpools/wordpool_EN.txt	FOG	10	6	n/a	n/a	pyFR	0	TJ040
1953.44	2.688	879430	WORD	n/a	wordpools/wordpool_EN.txt	DART	11	6	n/a	n/a	pyFR	0	TJ040
1956.128	2.773	882118	WORD	n/a	wordpools/wordpool_EN.txt	CHALK	12	6	n/a	n/a	pyFR	0	TJ040
1958.901	2.47	884891	WORD	n/a	wordpools/wordpool_EN.txt	DRUM	13	6	n/a	n/a	pyFR	0	TJ040
1961.371	2.839	887361	WORD	n/a	wordpools/wordpool_EN.txt	MAP	14	6	n/a	n/a	pyFR	0	TJ040
1964.21	1.606	890200	WORD	n/a	wordpools/wordpool_EN.txt	MAIL	15	6	n/a	n/a	pyFR	0	TJ040
1965.816	0.884	891806	START	n/a	n/a	n/a	n/a	6	[-999 -999 -999]	-999	pyFR	0	TJ040
1966.7	5.093	892690	PROB	n/a	n/a	n/a	n/a	6	[3 7 8]	18	pyFR	0	TJ040
1971.793	3.724	897783	PROB	n/a	n/a	n/a	n/a	6	[9 8 2]	18	pyFR	0	TJ040
1975.517	3.657	901507	PROB	n/a	n/a	n/a	n/a	6	[6 7 5]	18	pyFR	0	TJ040
1979.174	7.016	905164	PROB	n/a	n/a	n/a	n/a	6	[8 6 5]	19	pyFR	0	TJ040
1986.19	1.252	912180	STOP	n/a	n/a	n/a	n/a	6	[-999 -999 -999]	-999	pyFR	0	TJ040
1987.442	2.271	913432	REC_START	n/a	n/a	n/a	-999	6	n/a	n/a	pyFR	0	TJ040
1989.713	1.455	915703	REC_WORD_VV	1.455	n/a	<>	-999	6	n/a	n/a	pyFR	0	TJ040
1991.168	1.414	917158	REC_WORD_VV	1.414	n/a	<>	-999	6	n/a	n/a	pyFR	0	TJ040
1992.582	2.505	918572	REC_WORD	2.505	n/a	MAIL	-999	6	n/a	n/a	pyFR	0	TJ040
1995.087	1.0	921077	REC_WORD_VV	1.0	n/a	<>	-999	6	n/a	n/a	pyFR	0	TJ040
1996.087	4.373	922077	REC_WORD_VV	4.373	n/a	<>	-999	6	n/a	n/a	pyFR	0	TJ040
2000.46	4.735	926450	REC_WORD_VV	4.735	n/a	<>	-999	6	n/a	n/a	pyFR	0	TJ040
2005.195	1.0	931185	REC_WORD	1.0	n/a	BOOK	-999	6	n/a	n/a	pyFR	0	TJ040
2006.195	3.432	932185	REC_WORD_VV	3.432	n/a	<>	-999	6	n/a	n/a	pyFR	0	TJ040
2009.627	1.0	935617	REC_WORD	1.0	n/a	CAVE	-999	6	n/a	n/a	pyFR	0	TJ040
2010.627	3.988	936617	REC_WORD_VV	3.988	n/a	<>	-999	6	n/a	n/a	pyFR	0	TJ040
2014.615	6.324	940605	REC_WORD	6.324	n/a	TEETH	-999	6	n/a	n/a	pyFR	0	TJ040
2020.939	2.551	946929	REC_WORD_VV	2.551	n/a	<>	-999	6	n/a	n/a	pyFR	0	TJ040
2023.49	3.87	949480	REC_WORD	3.87	n/a	DRINK	-999	6	n/a	n/a	pyFR	0	TJ040
2027.36	7.927	953350	REC_WORD	7.927	n/a	FOOD	-999	6	n/a	n/a	pyFR	0	TJ040
2035.287	0.016	961277	TRIAL	n/a	n/a	n/a	-999	7	n/a	n/a	pyFR	0	TJ040
2035.303	2.739	961293	ORIENT	n/a	n/a	n/a	-999	7	n/a	n/a	pyFR	0	TJ040
2038.042	2.739	964032	WORD	n/a	wordpools/wordpool_EN.txt	SUIT	1	7	n/a	n/a	pyFR	0	TJ040
2040.781	2.571	966771	WORD	n/a	wordpools/wordpool_EN.txt	THUMB	2	7	n/a	n/a	pyFR	0	TJ040
2043.352	2.439	969342	WORD	n/a	wordpools/wordpool_EN.txt	PLANT	3	7	n/a	n/a	pyFR	0	TJ040
2045.791	2.605	971781	WORD	n/a	wordpools/wordpool_EN.txt	PEAR	4	7	n/a	n/a	pyFR	0	TJ040
2048.396	2.472	974386	WORD	n/a	wordpools/wordpool_EN.txt	HOSE	5	7	n/a	n/a	pyFR	0	TJ040
2050.868	2.521	976857	WORD	n/a	wordpools/wordpool_EN.txt	SHRIMP	6	7	n/a	n/a	pyFR	0	TJ040
2053.389	2.689	979378	WORD	n/a	wordpools/wordpool_EN.txt	RAT	7	7	n/a	n/a	pyFR	0	TJ040
2056.078	2.472	982067	WORD	n/a	wordpools/wordpool_EN.txt	WEED	8	7	n/a	n/a	pyFR	0	TJ040
2058.55	2.721	984539	WORD	n/a	wordpools/wordpool_EN.txt	HOOK	9	7	n/a	n/a	pyFR	0	TJ040
2061.271	2.806	987260	WORD	n/a	wordpools/wordpool_EN.txt	BEACH	10	7	n/a	n/a	pyFR	0	TJ040
2064.077	2.59	990066	WORD	n/a	wordpools/wordpool_EN.txt	ELF	11	7	n/a	n/a	pyFR	0	TJ040
2066.667	2.772	992656	WORD	n/a	wordpools/wordpool_EN.txt	EEL	12	7	n/a	n/a	pyFR	0	TJ040
2069.439	2.537	995428	WORD	n/a	wordpools/wordpool_EN.txt	CUBE	13	7	n/a	n/a	pyFR	0	TJ040
2071.976	2.606	997965	WORD	n/a	wordpools/wordpool_EN.txt	FARM	14	7	n/a	n/a	pyFR	0	TJ040
2074.582	1.621	1000571	WORD	n/a	wordpools/wordpool_EN.txt	STAIR	15	7	n/a	n/a	pyFR	0	TJ040
2076.203	0.867	1002192	START	n/a	n/a	n/a	n/a	7	[-999 -999 -999]	-999	pyFR	0	TJ040
2077.07	6.514	1003059	PROB	n/a	n/a	n/a	n/a	7	[2 6 9]	17	pyFR	0	TJ040
2083.584	4.158	1009573	PROB	n/a	n/a	n/a	n/a	7	[3 8 7]	18	pyFR	0	TJ040
2087.742	4.308	1013731	PROB	n/a	n/a	n/a	n/a	7	[2 2 7]	11	pyFR	0	TJ040
2092.05	5.105	1018039	PROB	n/a	n/a	n/a	n/a	7	[1 1 3]	5	pyFR	0	TJ040
2097.155	1.175	1023144	STOP	n/a	n/a	n/a	n/a	7	[-999 -999 -999]	-999	pyFR	0	TJ040
2098.33	1.276	1024319	REC_START	n/a	n/a	n/a	-999	7	n/a	n/a	pyFR	0	TJ040
2099.606	2.107	1025595	REC_WORD_VV	2.107	n/a	<>	-999	7	n/a	n/a	pyFR	0	TJ040
2101.713	1.0	1027702	REC_WORD	1.0	n/a	STAIR	-999	7	n/a	n/a	pyFR	0	TJ040
2102.713	0.128	1028702	REC_WORD_VV	0.128	n/a	<>	-999	7	n/a	n/a	pyFR	0	TJ040
2102.841	1.0	1028830	REC_WORD	1.0	n/a	SPEAK	-999	7	n/a	n/a	pyFR	0	TJ040
2103.841	2.443	1029830	REC_WORD_VV	2.443	n/a	<>	-999	7	n/a	n/a	pyFR	0	TJ040
2106.284	6.052	1032273	REC_WORD_VV	6.052	n/a	<>	-999	7	n/a	n/a	pyFR	0	TJ040
2112.336	0.602	1038325	REC_WORD	0.602	n/a	STAIR	-999	7	n/a	n/a	pyFR	0	TJ040
2112.938	4.581	1038927	REC_WORD	4.581	n/a	SPEAK	-999	7	n/a	n/a	pyFR	0	TJ040
2117.519	8.334	1043508	REC_WORD	8.334	n/a	FOAM	-999	7	n/a	n/a	pyFR	0	TJ040
2125.853	20.273	1051842	REC_WORD	20.273	n/a	QUIET	-999	7	n/a	n/a	pyFR	0	TJ040
2146.126	0.015	1072115	TRIAL	n/a	n/a	n/a	-999	8	n/a	n/a	pyFR	0	TJ040
2146.141	2.823	1072130	ORIENT	n/a	n/a	n/a	-999	8	n/a	n/a	pyFR	0	TJ040
2148.964	2.472	1074953	WORD	n/a	wordpools/wordpool_EN.txt	BOAT	1	8	n/a	n/a	pyFR	0	TJ040
2151.436	2.655	1077425	WORD	n/a	wordpools/wordpool_EN.txt	PANTS	2	8	n/a	n/a	pyFR	0	TJ040
2154.091	2.656	1080080	WORD	n/a	wordpools/wordpool_EN.txt	CLOUD	3	8	n/a	n/a	pyFR	0	TJ040
2156.747	2.722	1082736	WORD	n/a	wordpools/wordpool_EN.txt	TRAIN	4	8	n/a	n/a	pyFR	0	TJ040
2159.469	2.571	1085458	WORD	n/a	wordpools/wordpool_EN.txt	SLUSH	5	8	n/a	n/a	pyFR	0	TJ040
2162.04	2.489	1088029	WORD	n/a	wordpools/wordpool_EN.txt	BOX	6	8	n/a	n/a	pyFR	0	TJ040
2164.529	2.588	1090518	WORD	n/a	wordpools/wordpool_EN.txt	SEED	7	8	n/a	n/a	pyFR	0	TJ040
2167.117	2.656	1093106	WORD	n/a	wordpools/wordpool_EN.txt	SALT	8	8	n/a	n/a	pyFR	0	TJ040
2169.773	2.739	1095762	WORD	n/a	wordpools/wordpool_EN.txt	THREAD	9	8	n/a	n/a	pyFR	0	TJ040
2172.512	2.788	1098501	WORD	n/a	wordpools/wordpool_EN.txt	ARK	10	8	n/a	n/a	pyFR	0	TJ040
2175.3	2.805	1101289	WORD	n/a	wordpools/wordpool_EN.txt	VEST	11	8	n/a	n/a	pyFR	0	TJ040
2178.105	2.44	1104094	WORD	n/a	wordpools/wordpool_EN.txt	TAIL	12	8	n/a	n/a	pyFR	0	TJ040
2180.545	2.537	1106534	WORD	n/a	wordpools/wordpool_EN.txt	SPOON	13	8	n/a	n/a	pyFR	0	TJ040
2183.082	2.439	1109071	WORD	n/a	wordpools/wordpool_EN.txt	FLUTE	14	8	n/a	n/a	pyFR	0	TJ040
2185.521	1.62	1111510	WORD	n/a	wordpools/wordpool_EN.txt	BRANCH	15	8	n/a	n/a	pyFR	0	TJ040
2187.141	1.018	1113130	START	n/a	n/a	n/a	n/a	8	[-999 -999 -999]	-999	pyFR	0	TJ040
2188.159	5.579	1114148	PROB	n/a	n/a	n/a	n/a	8	[9 9 9]	27	pyFR	0	TJ040
2193.738	7.03	1119727	PROB	n/a	n/a	n/a	n/a	8	[5 9 7]	21	pyFR	0	TJ040
2200.768	4.777	1126757	PROB	n/a	n/a	n/a	n/a	8	[4 4 6]	14	pyFR	0	TJ040
2205.545	18.374	1131534	PROB	n/a	n/a	n/a	n/a	8	[1 8 8]	10	pyFR	0	TJ040
2223.919	1.131	1149907	STOP	n/a	n/a	n/a	n/a	8	[-999 -999 -999]	-999	pyFR	0	TJ040
2225.05	3.482	1151038	REC_START	n/a	n/a	n/a	-999	8	n/a	n/a	pyFR	0	TJ040
2228.532	2.283	1154520	REC_WORD	2.283	n/a	BOAT	-999	8	n/a	n/a	pyFR	0	TJ040
2230.815	3.258	1156803	REC_WORD	3.258	n/a	SALT	-999	8	n/a	n/a	pyFR	0	TJ040
2234.073	2.49	1160061	REC_WORD_VV	2.49	n/a	<>	-999	8	n/a	n/a	pyFR	0	TJ040
2236.563	0.503	1162551	REC_WORD_VV	0.503	n/a	<>	-999	8	n/a	n/a	pyFR	0	TJ040
2237.066	3.315	1163054	REC_WORD	3.315	n/a	THREAD	-999	8	n/a	n/a	pyFR	0	TJ040
2240.381	1.0	1166369	REC_WORD_VV	1.0	n/a	<>	-999	8	n/a	n/a	pyFR	0	TJ040
2241.381	10.956	1167369	REC_WORD_VV	10.956	n/a	<>	-999	8	n/a	n/a	pyFR	0	TJ040
2252.337	1.0	1178325	REC_WORD_VV	1.0	n/a	<>	-999	8	n/a	n/a	pyFR	0	TJ040
2253.337	1.0	1179325	REC_WORD_VV	1.0	n/a	<>	-999	8	n/a	n/a	pyFR	0	TJ040
2254.337	170.664	1180325	REC_WORD_VV	170.664	n/a	<>	-999	8	n/a	n/a	pyFR	0	TJ040
2425.001	0.015	1350988	TRIAL	n/a	n/a	n/a	-999	9	n/a	n/a	pyFR	0	TJ040
2425.016	3.006	1351003	ORIENT	n/a	n/a	n/a	-999	9	n/a	n/a	pyFR	0	TJ040
2428.022	2.456	1354009	WORD	n/a	wordpools/wordpool_EN.txt	HORN	1	9	n/a	n/a	pyFR	0	TJ040
2430.478	2.738	1356465	WORD	n/a	wordpools/wordpool_EN.txt	OWL	2	9	n/a	n/a	pyFR	0	TJ040
2433.216	2.69	1359203	WORD	n/a	wordpools/wordpool_EN.txt	TRASH	3	9	n/a	n/a	pyFR	0	TJ040
2435.906	2.806	1361893	WORD	n/a	wordpools/wordpool_EN.txt	BEAR	4	9	n/a	n/a	pyFR	0	TJ040
2438.712	2.503	1364699	WORD	n/a	wordpools/wordpool_EN.txt	GLOVE	5	9	n/a	n/a	pyFR	0	TJ040
2441.215	2.839	1367202	WORD	n/a	wordpools/wordpool_EN.txt	FLAG	6	9	n/a	n/a	pyFR	0	TJ040
2444.054	2.724	1370041	WORD	n/a	wordpools/wordpool_EN.txt	JET	7	9	n/a	n/a	pyFR	0	TJ040
2446.778	2.52	1372765	WORD	n/a	wordpools/wordpool_EN.txt	SEAT	8	9	n/a	n/a	pyFR	0	TJ040
2449.298	2.756	1375285	WORD	n/a	wordpools/wordpool_EN.txt	JUICE	9	9	n/a	n/a	pyFR	0	TJ040
2452.054	2.472	1378041	WORD	n/a	wordpools/wordpool_EN.txt	HOLE	10	9	n/a	n/a	pyFR	0	TJ040
2454.526	2.521	1380513	WORD	n/a	wordpools/wordpool_EN.txt	ROCK	11	9	n/a	n/a	pyFR	0	TJ040
2457.047	2.439	1383034	WORD	n/a	wordpools/wordpool_EN.txt	BEAN	12	9	n/a	n/a	pyFR	0	TJ040
2459.486	2.588	1385473	WORD	n/a	wordpools/wordpool_EN.txt	PASTE	13	9	n/a	n/a	pyFR	0	TJ040
2462.074	2.74	1388061	WORD	n/a	wordpools/wordpool_EN.txt	TENT	14	9	n/a	n/a	pyFR	0	TJ040
2464.814	1.621	1390801	WORD	n/a	wordpools/wordpool_EN.txt	STORM	15	9	n/a	n/a	pyFR	0	TJ040
2466.435	0.833	1392422	START	n/a	n/a	n/a	n/a	9	[-999 -999 -999]	-999	pyFR	0	TJ040
2467.268	5.911	1393255	PROB	n/a	n/a	n/a	n/a	9	[5 2 9]	16	pyFR	0	TJ040
2473.179	3.325	1399166	PROB	n/a	n/a	n/a	n/a	9	[8 2 7]	17	pyFR	0	TJ040
2476.504	3.357	1402491	PROB	n/a	n/a	n/a	n/a	9	[2 2 6]	9	pyFR	0	TJ040
2479.861	5.811	1405848	PROB	n/a	n/a	n/a	n/a	9	[6 1 8]	15	pyFR	0	TJ040
2485.672	4.334	1411659	PROB	n/a	n/a	n/a	n/a	9	[1 5 6]	12	pyFR	0	TJ040
2490.006	1.127	1415993	STOP	n/a	n/a	n/a	n/a	9	[-999 -999 -999]	-999	pyFR	0	TJ040
2491.133	3.39	1417120	REC_START	n/a	n/a	n/a	-999	9	n/a	n/a	pyFR	0	TJ040
2494.523	0.525	1420510	REC_WORD_VV	0.525	n/a	<>	-999	9	n/a	n/a	pyFR	0	TJ040
2495.048	1.644	1421035	REC_WORD	1.644	n/a	HORN	-999	9	n/a	n/a	pyFR	0	TJ040
2496.692	2.094	1422679	REC_WORD	2.094	n/a	OWL	-999	9	n/a	n/a	pyFR	0	TJ040
2498.786	0.92	1424773	REC_WORD_VV	0.92	n/a	<>	-999	9	n/a	n/a	pyFR	0	TJ040
2499.706	3.657	1425693	REC_WORD	3.657	n/a	STORM	-999	9	n/a	n/a	pyFR	0	TJ040
2503.363	1.0	1429350	REC_WORD_VV	1.0	n/a	<>	-999	9	n/a	n/a	pyFR	0	TJ040
2504.363	1.888	1430350	REC_WORD_VV	1.888	n/a	<>	-999	9	n/a	n/a	pyFR	0	TJ040
2506.251	4.822	1432238	REC_WORD_VV	4.822	n/a	<>	-999	9	n/a	n/a	pyFR	0	TJ040
2511.073	5.17	1437060	REC_WORD	5.17	n/a	TRASH	-999	9	n/a	n/a	pyFR	0	TJ040
2516.243	10.83	1442230	REC_WORD	10.83	n/a	FLAG	-999	9	n/a	n/a	pyFR	0	TJ040
2527.073	3.322	1453060	REC_WORD_VV	3.322	n/a	<>	-999	9	n/a	n/a	pyFR	0	TJ040
2530.395	9.001	1456382	REC_WORD_VV	9.001	n/a	<>	-999	9	n/a	n/a	pyFR	0	TJ040
2539.396	0.017	1465382	TRIAL	n/a	n/a	n/a	-999	10	n/a	n/a	pyFR	0	TJ040
2539.413	2.705	1465399	ORIENT	n/a	n/a	n/a	-999	10	n/a	n/a	pyFR	0	TJ040
2542.118	2.673	1468104	WORD	n/a	wordpools/wordpool_EN.txt	JAIL	1	10	n/a	n/a	pyFR	0	TJ040
2544.791	2.705	1470777	WORD	n/a	wordpools/wordpool_EN.txt	GRASS	2	10	n/a	n/a	pyFR	0	TJ040
2547.496	2.438	1473482	WORD	n/a	wordpools/wordpool_EN.txt	ROPE	3	10	n/a	n/a	pyFR	0	TJ040
2549.934	2.505	1475920	WORD	n/a	wordpools/wordpool_EN.txt	PLATE	4	10	n/a	n/a	pyFR	0	TJ040
2552.439	2.655	1478425	WORD	n/a	wordpools/wordpool_EN.txt	WEB	5	10	n/a	n/a	pyFR	0	TJ040
2555.094	2.823	1481080	WORD	n/a	wordpools/wordpool_EN.txt	SINK	6	10	n/a	n/a	pyFR	0	TJ040
2557.917	2.772	1483903	WORD	n/a	wordpools/wordpool_EN.txt	SPRING	7	10	n/a	n/a	pyFR	0	TJ040
2560.689	2.604	1486675	WORD	n/a	wordpools/wordpool_EN.txt	GOLD	8	10	n/a	n/a	pyFR	0	TJ040
2563.293	2.823	1489279	WORD	n/a	wordpools/wordpool_EN.txt	SOCK	9	10	n/a	n/a	pyFR	0	TJ040
2566.116	2.489	1492102	WORD	n/a	wordpools/wordpool_EN.txt	HAND	10	10	n/a	n/a	pyFR	0	TJ040
2568.605	2.688	1494591	WORD	n/a	wordpools/wordpool_EN.txt	CAT	11	10	n/a	n/a	pyFR	0	TJ040
2571.293	2.822	1497279	WORD	n/a	wordpools/wordpool_EN.txt	TRAY	12	10	n/a	n/a	pyFR	0	TJ040
2574.115	2.69	1500101	WORD	n/a	wordpools/wordpool_EN.txt	WORM	13	10	n/a	n/a	pyFR	0	TJ040
2576.805	2.437	1502791	WORD	n/a	wordpools/wordpool_EN.txt	VAN	14	10	n/a	n/a	pyFR	0	TJ040
2579.242	1.622	1505228	WORD	n/a	wordpools/wordpool_EN.txt	LIP	15	10	n/a	n/a	pyFR	0	TJ040
2580.864	1.051	1506850	START	n/a	n/a	n/a	n/a	10	[-999 -999 -999]	-999	pyFR	0	TJ040
2581.915	5.544	1507901	PROB	n/a	n/a	n/a	n/a	10	[3 7 9]	19	pyFR	0	TJ040
2587.459	7.932	1513445	PROB	n/a	n/a	n/a	n/a	10	[4 2 5]	9	pyFR	0	TJ040
2595.391	6.635	1521377	PROB	n/a	n/a	n/a	n/a	10	[9 6 9]	23	pyFR	0	TJ040
2602.026	1.148	1528012	STOP	n/a	n/a	n/a	n/a	10	[-999 -999 -999]	-999	pyFR	0	TJ040
2603.174	3.104	1529160	REC_START	n/a	n/a	n/a	-999	10	n/a	n/a	pyFR	0	TJ040
2606.278	3.83	1532264	REC_WORD_VV	3.83	n/a	<>	-999	10	n/a	n/a	pyFR	0	TJ040
2610.108	2.403	1536094	REC_WORD_VV	2.403	n/a	<>	-999	10	n/a	n/a	pyFR	0	TJ040
2612.511	2.711	1538497	REC_WORD	2.711	n/a	PLATE	-999	10	n/a	n/a	pyFR	0	TJ040
2615.222	2.062	1541208	REC_WORD_VV	2.062	n/a	<>	-999	10	n/a	n/a	pyFR	0	TJ040
2617.284	1.0	1543270	REC_WORD_VV	1.0	n/a	<>	-999	10	n/a	n/a	pyFR	0	TJ040
2618.284	0.666	1544270	REC_WORD_VV	0.666	n/a	<>	-999	10	n/a	n/a	pyFR	0	TJ040
2618.95	2.593	1544936	REC_WORD	2.593	n/a	GLASS	-999	10	n/a	n/a	pyFR	0	TJ040
2621.543	5.272	1547529	REC_WORD	5.272	n/a	GOLD	-999	10	n/a	n/a	pyFR	0	TJ040
2626.815	5.396	1552801	REC_WORD	5.396	n/a	LIP	-999	10	n/a	n/a	pyFR	0	TJ040
2632.211	15.102	1558197	REC_WORD_VV	15.102	n/a	<>	-999	10	n/a	n/a	pyFR	0	TJ040
2647.313	4.359	1573299	REC_WORD_VV	4.359	n/a	<>	-999	10	n/a	n/a	pyFR	0	TJ040
2651.672	0.016	1577658	TRIAL	n/a	n/a	n/a	-999	11	n/a	n/a	pyFR	0	TJ040
2651.688	2.872	1577674	ORIENT	n/a	n/a	n/a	-999	11	n/a	n/a	pyFR	0	TJ040
2654.56	2.755	1580546	WORD	n/a	wordpools/wordpool_EN.txt	GLASS	1	11	n/a	n/a	pyFR	0	TJ040
2657.315	2.523	1583301	WORD	n/a	wordpools/wordpool_EN.txt	SHIP	2	11	n/a	n/a	pyFR	0	TJ040
2659.838	2.755	1585824	WORD	n/a	wordpools/wordpool_EN.txt	CROWN	3	11	n/a	n/a	pyFR	0	TJ040
2662.593	2.721	1588579	WORD	n/a	wordpools/wordpool_EN.txt	LAMP	4	11	n/a	n/a	pyFR	0	TJ040
2665.314	2.706	1591300	WORD	n/a	wordpools/wordpool_EN.txt	RAIN	5	11	n/a	n/a	pyFR	0	TJ040
2668.02	2.472	1594006	WORD	n/a	wordpools/wordpool_EN.txt	FROG	6	11	n/a	n/a	pyFR	0	TJ040
2670.492	2.771	1596478	WORD	n/a	wordpools/wordpool_EN.txt	BRIDGE	7	11	n/a	n/a	pyFR	0	TJ040
2673.263	2.607	1599249	WORD	n/a	wordpools/wordpool_EN.txt	STRAW	8	11	n/a	n/a	pyFR	0	TJ040
2675.87	2.822	1601856	WORD	n/a	wordpools/wordpool_EN.txt	MUD	9	11	n/a	n/a	pyFR	0	TJ040
2678.692	2.537	1604678	WORD	n/a	wordpools/wordpool_EN.txt	CAGE	10	11	n/a	n/a	pyFR	0	TJ040
2681.229	2.673	1607215	WORD	n/a	wordpools/wordpool_EN.txt	JAR	11	11	n/a	n/a	pyFR	0	TJ040
2683.902	2.454	1609888	WORD	n/a	wordpools/wordpool_EN.txt	VASE	12	11	n/a	n/a	pyFR	0	TJ040
2686.356	2.556	1612342	WORD	n/a	wordpools/wordpool_EN.txt	CAR	13	11	n/a	n/a	pyFR	0	TJ040
2688.912	2.806	1614898	WORD	n/a	wordpools/wordpool_EN.txt	SLIME	14	11	n/a	n/a	pyFR	0	TJ040
2691.718	1.62	1617704	WORD	n/a	wordpools/wordpool_EN.txt	BUSH	15	11	n/a	n/a	pyFR	0	TJ040
2693.338	0.884	1619324	START	n/a	n/a	n/a	n/a	11	[-999 -999 -999]	-999	pyFR	0	TJ040
2694.222	4.793	1620208	PROB	n/a	n/a	n/a	n/a	11	[5 5 6]	16	pyFR	0	TJ040
2699.015	4.025	1625000	PROB	n/a	n/a	n/a	n/a	11	[5 7 1]	8	pyFR	0	TJ040
2703.04	5.21	1629025	PROB	n/a	n/a	n/a	n/a	11	[1 5 4]	10	pyFR	0	TJ040
2708.25	3.174	1634235	PROB	n/a	n/a	n/a	n/a	11	[1 5 1]	7	pyFR	0	TJ040
2711.424	4.935	1637409	PROB	n/a	n/a	n/a	n/a	11	[8 5 3]	16	pyFR	0	TJ040
2716.359	1.245	1642344	STOP	n/a	n/a	n/a	n/a	11	[-999 -999 -999]	-999	pyFR	0	TJ040
2717.604	1.087	1643589	REC_START	n/a	n/a	n/a	-999	11	n/a	n/a	pyFR	0	TJ040
2718.691	0.929	1644676	REC_WORD_VV	0.929	n/a	<>	-999	11	n/a	n/a	pyFR	0	TJ040
2719.62	1.47	1645605	REC_WORD	1.47	n/a	GLASS	-999	11	n/a	n/a	pyFR	0	TJ040
2721.09	2.524	1647075	REC_WORD	2.524	n/a	SHIP	-999	11	n/a	n/a	pyFR	0	TJ040
2723.614	3.716	1649599	REC_WORD_VV	3.716	n/a	<>	-999	11	n/a	n/a	pyFR	0	TJ040
2727.33	3.893	1653315	REC_WORD	3.893	n/a	PLATE	-999	11	n/a	n/a	pyFR	0	TJ040
2731.223	4.868	1657208	REC_WORD	4.868	n/a	VASE	-999	11	n/a	n/a	pyFR	0	TJ040
2736.091	16.125	1662076	REC_WORD_VV	16.125	n/a	<>	-999	11	n/a	n/a	pyFR	0	TJ040
2752.216	1.0	1678201	REC_WORD_VV	1.0	n/a	<>	-999	11	n/a	n/a	pyFR	0	TJ040
2753.216	12.918	1679201	REC_WORD_VV	12.918	n/a	<>	-999	11	n/a	n/a	pyFR	0	TJ040
2766.134	0.016	1692119	TRIAL	n/a	n/a	n/a	-999	12	n/a	n/a	pyFR	0	TJ040
2766.15	2.989	1692135	ORIENT	n/a	n/a	n/a	-999	12	n/a	n/a	pyFR	0	TJ040
2769.139	2.79	1695124	WORD	n/a	wordpools/wordpool_EN.txt	COW	1	12	n/a	n/a	pyFR	0	TJ040
2771.929	2.622	1697914	WORD	n/a	wordpools/wordpool_EN.txt	POOL	2	12	n/a	n/a	pyFR	0	TJ040
2774.551	2.537	1700536	WORD	n/a	wordpools/wordpool_EN.txt	SNOW	3	12	n/a	n/a	pyFR	0	TJ040
2777.088	2.506	1703073	WORD	n/a	wordpools/wordpool_EN.txt	PIE	4	12	n/a	n/a	pyFR	0	TJ040
2779.594	2.671	1705579	WORD	n/a	wordpools/wordpool_EN.txt	SPARK	5	12	n/a	n/a	pyFR	0	TJ040
2782.265	2.756	1708250	WORD	n/a	wordpools/wordpool_EN.txt	MOUTH	6	12	n/a	n/a	pyFR	0	TJ040
2785.021	2.572	1711006	WORD	n/a	wordpools/wordpool_EN.txt	WOOD	7	12	n/a	n/a	pyFR	0	TJ040
2787.593	2.772	1713578	WORD	n/a	wordpools/wordpool_EN.txt	FORT	8	12	n/a	n/a	pyFR	0	TJ040
2790.365	2.456	1716350	WORD	n/a	wordpools/wordpool_EN.txt	ROOT	9	12	n/a	n/a	pyFR	0	TJ040
2792.821	2.822	1718806	WORD	n/a	wordpools/wordpool_EN.txt	SHELL	10	12	n/a	n/a	pyFR	0	TJ040
2795.643	2.805	1721628	WORD	n/a	wordpools/wordpool_EN.txt	SWAMP	11	12	n/a	n/a	pyFR	0	TJ040
2798.448	2.538	1724433	WORD	n/a	wordpools/wordpool_EN.txt	STREET	12	12	n/a	n/a	pyFR	0	TJ040
2800.986	2.706	1726971	WORD	n/a	wordpools/wordpool_EN.txt	OAR	13	12	n/a	n/a	pyFR	0	TJ040
2803.692	2.806	1729677	WORD	n/a	wordpools/wordpool_EN.txt	SHEEP	14	12	n/a	n/a	pyFR	0	TJ040
2806.498	1.62	1732483	WORD	n/a	wordpools/wordpool_EN.txt	CARD	15	12	n/a	n/a	pyFR	0	TJ040
2808.118	0.967	1734103	START	n/a	n/a	n/a	n/a	12	[-999 -999 -999]	-999	pyFR	0	TJ040
2809.085	4.309	1735070	PROB	n/a	n/a	n/a	n/a	12	[5 7 3]	13	pyFR	0	TJ040
2813.394	7.416	1739379	PROB	n/a	n/a	n/a	n/a	12	[1 4 4]	9	pyFR	0	TJ040
2820.81	4.041	1746795	PROB	n/a	n/a	n/a	n/a	12	[5 8 1]	13	pyFR	0	TJ040
2824.851	3.857	1750836	PROB	n/a	n/a	n/a	n/a	12	[5 9 8]	23	pyFR	0	TJ040
2828.708	1.154	1754693	STOP	n/a	n/a	n/a	n/a	12	[-999 -999 -999]	-999	pyFR	0	TJ040
2829.862	0.986	1755847	REC_START	n/a	n/a	n/a	-999	12	n/a	n/a	pyFR	0	TJ040
2830.848	0.661	1756833	REC_WORD_VV	0.661	n/a	<>	-999	12	n/a	n/a	pyFR	0	TJ040
2831.509	2.994	1757494	REC_WORD	2.994	n/a	SWAMP	-999	12	n/a	n/a	pyFR	0	TJ040
2834.503	2.251	1760488	REC_WORD_VV	2.251	n/a	<>	-999	12	n/a	n/a	pyFR	0	TJ040
2836.754	4.655	1762739	REC_WORD_VV	4.655	n/a	<>	-999	12	n/a	n/a	pyFR	0	TJ040
2841.409	5.473	1767394	REC_WORD	5.473	n/a	STREET	-999	12	n/a	n/a	pyFR	0	TJ040
2846.882	18.748	1772867	REC_WORD_VV	18.748	n/a	<>	-999	12	n/a	n/a	pyFR	0	TJ040
2865.63	1.0	1791614	REC_WORD_VV	1.0	n/a	<>	-999	12	n/a	n/a	pyFR	0	TJ040
2866.63	1.0	1792614	REC_WORD_VV	1.0	n/a	<>	-999	12	n/a	n/a	pyFR	0	TJ040
2867.63	19.013	1793614	REC_WORD_VV	19.013	n/a	<>	-999	12	n/a	n/a	pyFR	0	TJ040
2886.643	0.015	1812627	TRIAL	n/a	n/a	n/a	-999	13	n/a	n/a	pyFR	0	TJ040
2886.658	2.789	1812642	ORIENT	n/a	n/a	n/a	-999	13	n/a	n/a	pyFR	0	TJ040
2889.447	2.604	1815431	WORD	n/a	wordpools/wordpool_EN.txt	BADGE	1	13	n/a	n/a	pyFR	0	TJ040
2892.051	2.573	1818035	WORD	n/a	wordpools/wordpool_EN.txt	MOON	2	13	n/a	n/a	pyFR	0	TJ040
2894.624	2.588	1820608	WORD	n/a	wordpools/wordpool_EN.txt	EAR	3	13	n/a	n/a	pyFR	0	TJ040
2897.212	2.772	1823196	WORD	n/a	wordpools/wordpool_EN.txt	ARM	4	13	n/a	n/a	pyFR	0	TJ040
2899.984	2.723	1825968	WORD	n/a	wordpools/wordpool_EN.txt	BOWL	5	13	n/a	n/a	pyFR	0	TJ040
2902.707	2.538	1828691	WORD	n/a	wordpools/wordpool_EN.txt	PURSE	6	13	n/a	n/a	pyFR	0	TJ040
2905.245	2.606	1831229	WORD	n/a	wordpools/wordpool_EN.txt	CHIN	7	13	n/a	n/a	pyFR	0	TJ040
2907.851	2.655	1833835	WORD	n/a	wordpools/wordpool_EN.txt	BROOM	8	13	n/a	n/a	pyFR	0	TJ040
2910.506	2.688	1836490	WORD	n/a	wordpools/wordpool_EN.txt	RIB	9	13	n/a	n/a	pyFR	0	TJ040
2913.194	2.656	1839178	WORD	n/a	wordpools/wordpool_EN.txt	TOAD	10	13	n/a	n/a	pyFR	0	TJ040
2915.85	2.672	1841834	WORD	n/a	wordpools/wordpool_EN.txt	QUEEN	11	13	n/a	n/a	pyFR	0	TJ040
2918.522	2.454	1844506	WORD	n/a	wordpools/wordpool_EN.txt	GOAT	12	13	n/a	n/a	pyFR	0	TJ040
2920.976	2.773	1846960	WORD	n/a	wordpools/wordpool_EN.txt	FLEA	13	13	n/a	n/a	pyFR	0	TJ040
2923.749	2.571	1849733	WORD	n/a	wordpools/wordpool_EN.txt	SMILE	14	13	n/a	n/a	pyFR	0	TJ040
2926.32	1.622	1852304	WORD	n/a	wordpools/wordpool_EN.txt	BIRD	15	13	n/a	n/a	pyFR	0	TJ040
2927.942	1.184	1853926	START	n/a	n/a	n/a	n/a	13	[-999 -999 -999]	-999	pyFR	0	TJ040
2929.126	4.843	1855110	PROB	n/a	n/a	n/a	n/a	13	[1 7 5]	13	pyFR	0	TJ040
2933.969	5.545	1859953	PROB	n/a	n/a	n/a	n/a	13	[3 9 5]	17	pyFR	0	TJ040
2939.514	3.489	1865498	PROB	n/a	n/a	n/a	n/a	13	[5 7 3]	15	pyFR	0	TJ040
2943.003	5.02	1868987	PROB	n/a	n/a	n/a	n/a	13	[9 5 7]	21	pyFR	0	TJ040
2948.023	1.127	1874007	STOP	n/a	n/a	n/a	n/a	13	[-999 -999 -999]	-999	pyFR	0	TJ040
2949.15	1.382	1875134	REC_START	n/a	n/a	n/a	-999	13	n/a	n/a	pyFR	0	TJ040
2950.532	1.484	1876516	REC_WORD_VV	1.484	n/a	<>	-999	13	n/a	n/a	pyFR	0	TJ040
2952.016	1.72	1878000	REC_WORD_VV	1.72	n/a	<>	-999	13	n/a	n/a	pyFR	0	TJ040
2953.736	2.587	1879720	REC_WORD	2.587	n/a	BADGE	-999	13	n/a	n/a	pyFR	0	TJ040
2956.323	3.521	1882307	REC_WORD_VV	3.521	n/a	<>	-999	13	n/a	n/a	pyFR	0	TJ040
2959.844	1.0	1885828	REC_WORD_VV	1.0	n/a	<>	-999	13	n/a	n/a	pyFR	0	TJ040
2960.844	3.923	1886828	REC_WORD_VV	3.923	n/a	<>	-999	13	n/a	n/a	pyFR	0	TJ040
2964.767	2.195	1890751	REC_WORD	2.195	n/a	BADGE	-999	13	n/a	n/a	pyFR	0	TJ040
2966.962	1.0	1892946	REC_WORD	1.0	n/a	FACE	-999	13	n/a	n/a	pyFR	0	TJ040
2967.962	5.491	1893946	REC_WORD_VV	5.491	n/a	<>	-999	13	n/a	n/a	pyFR	0	TJ040
2973.453	5.696	1899437	REC_WORD_VV	5.696	n/a	<>	-999	13	n/a	n/a	pyFR	0	TJ040
2979.149	5.809	1905133	REC_WORD	5.809	n/a	BOOT	-999	13	n/a	n/a	pyFR	0	TJ040
2984.958	56.545	1910942	REC_WORD_VV	56.545	n/a	<>	-999	13	n/a	n/a	pyFR	0	TJ040
3041.503	0.016	1967486	TRIAL	n/a	n/a	n/a	-999	14	n/a	n/a	pyFR	0	TJ040
3041.519	2.939	1967502	ORIENT	n/a	n/a	n/a	-999	14	n/a	n/a	pyFR	0	TJ040
3044.458	2.487	1970441	WORD	n/a	wordpools/wordpool_EN.txt	ROOM	1	14	n/a	n/a	pyFR	0	TJ040
3046.945	2.473	1972928	WORD	n/a	wordpools/wordpool_EN.txt	SAIL	2	14	n/a	n/a	pyFR	0	TJ040
3049.418	2.455	1975401	WORD	n/a	wordpools/wordpool_EN.txt	BOARD	3	14	n/a	n/a	pyFR	0	TJ040
3051.873	2.504	1977856	WORD	n/a	wordpools/wordpool_EN.txt	GEESE	4	14	n/a	n/a	pyFR	0	TJ040
3054.377	2.472	1980360	WORD	n/a	wordpools/wordpool_EN.txt	WING	5	14	n/a	n/a	pyFR	0	TJ040
3056.849	2.672	1982832	WORD	n/a	wordpools/wordpool_EN.txt	DOLL	6	14	n/a	n/a	pyFR	0	TJ040
3059.521	2.504	1985504	WORD	n/a	wordpools/wordpool_EN.txt	CHEEK	7	14	n/a	n/a	pyFR	0	TJ040
3062.025	2.807	1988008	WORD	n/a	wordpools/wordpool_EN.txt	DAD	8	14	n/a	n/a	pyFR	0	TJ040
3064.832	2.722	1990815	WORD	n/a	wordpools/wordpool_EN.txt	PRINCE	9	14	n/a	n/a	pyFR	0	TJ040
3067.554	2.805	1993537	WORD	n/a	wordpools/wordpool_EN.txt	POLE	10	14	n/a	n/a	pyFR	0	TJ040
3070.359	2.522	1996342	WORD	n/a	wordpools/wordpool_EN.txt	CHAIR	11	14	n/a	n/a	pyFR	0	TJ040
3072.881	2.823	1998864	WORD	n/a	wordpools/wordpool_EN.txt	DOCK	12	14	n/a	n/a	pyFR	0	TJ040
3075.704	2.755	2001687	WORD	n/a	wordpools/wordpool_EN.txt	CLOCK	13	14	n/a	n/a	pyFR	0	TJ040
3078.459	2.738	2004442	WORD	n/a	wordpools/wordpool_EN.txt	SHEET	14	14	n/a	n/a	pyFR	0	TJ040
3081.197	1.622	2007180	WORD	n/a	wordpools/wordpool_EN.txt	CONE	15	14	n/a	n/a	pyFR	0	TJ040
3082.819	1.034	2008802	START	n/a	n/a	n/a	n/a	14	[-999 -999 -999]	-999	pyFR	0	TJ040
3083.853	4.358	2009836	PROB	n/a	n/a	n/a	n/a	14	[5 7 1]	13	pyFR	0	TJ040
3088.211	2.755	2014194	PROB	n/a	n/a	n/a	n/a	14	[7 6 1]	14	pyFR	0	TJ040
3090.966	4.627	2016949	PROB	n/a	n/a	n/a	n/a	14	[1 7 4]	12	pyFR	0	TJ040
3095.593	5.644	2021576	PROB	n/a	n/a	n/a	n/a	14	[8 8 4]	20	pyFR	0	TJ040
3101.237	3.589	2027220	PROB	n/a	n/a	n/a	n/a	14	[6 1 3]	10	pyFR	0	TJ040
3104.826	1.155	2030809	STOP	n/a	n/a	n/a	n/a	14	[-999 -999 -999]	-999	pyFR	0	TJ040
3105.981	1.58	2031964	REC_START	n/a	n/a	n/a	-999	14	n/a	n/a	pyFR	0	TJ040
3107.561	1.0	2033544	REC_WORD_VV	1.0	n/a	<>	-999	14	n/a	n/a	pyFR	0	TJ040
3108.561	1.748	2034544	REC_WORD_VV	1.748	n/a	<>	-999	14	n/a	n/a	pyFR	0	TJ040
3110.309	3.146	2036292	REC_WORD	3.146	n/a	DAD	-999	14	n/a	n/a	pyFR	0	TJ040
3113.455	1.0	2039438	REC_WORD_VV	1.0	n/a	<>	-999	14	n/a	n/a	pyFR	0	TJ040
3114.455	2.969	2040438	REC_WORD_VV	2.969	n/a	<>	-999	14	n/a	n/a	pyFR	0	TJ040
3117.424	3.988	2043407	REC_WORD	3.988	n/a	STREET	-999	14	n/a	n/a	pyFR	0	TJ040
3121.412	7.398	2047395	REC_WORD_VV	7.398	n/a	<>	-999	14	n/a	n/a	pyFR	0	TJ040
3128.81	5.189	2054793	REC_WORD	5.189	n/a	TALK	-999	14	n/a	n/a	pyFR	0	TJ040
3133.999	9.506	2059982	REC_WORD_VV	9.506	n/a	<>	-999	14	n/a	n/a	pyFR	0	TJ040
3143.505	10.873	2069488	REC_WORD	10.873	n/a	PRIDE	-999	14	n/a	n/a	pyFR	0	TJ040
3154.378	0.015	2080361	TRIAL	n/a	n/a	n/a	-999	15	n/a	n/a	pyFR	0	TJ040
3154.393	2.956	2080376	ORIENT	n/a	n/a	n/a	-999	15	n/a	n/a	pyFR	0	TJ040
3157.349	2.573	2083332	WORD	n/a	wordpools/wordpool_EN.txt	DOG	1	15	n/a	n/a	pyFR	0	TJ040
3159.922	2.454	2085905	WORD	n/a	wordpools/wordpool_EN.txt	CRANE	2	15	n/a	n/a	pyFR	0	TJ040
3162.376	2.523	2088359	WORD	n/a	wordpools/wordpool_EN.txt	FAN	3	15	n/a	n/a	pyFR	0	TJ040
3164.899	2.655	2090882	WORD	n/a	wordpools/wordpool_EN.txt	CAPE	4	15	n/a	n/a	pyFR	0	TJ040
3167.554	2.688	2093537	WORD	n/a	wordpools/wordpool_EN.txt	LEG	5	15	n/a	n/a	pyFR	0	TJ040
3170.242	2.705	2096225	WORD	n/a	wordpools/wordpool_EN.txt	BELL	6	15	n/a	n/a	pyFR	0	TJ040
3172.947	2.623	2098930	WORD	n/a	wordpools/wordpool_EN.txt	ROOF	7	15	n/a	n/a	pyFR	0	TJ040
3175.57	2.604	2101553	WORD	n/a	wordpools/wordpool_EN.txt	BRICK	8	15	n/a	n/a	pyFR	0	TJ040
3178.174	2.657	2104157	WORD	n/a	wordpools/wordpool_EN.txt	SIGN	9	15	n/a	n/a	pyFR	0	TJ040
3180.831	2.504	2106814	WORD	n/a	wordpools/wordpool_EN.txt	OAK	10	15	n/a	n/a	pyFR	0	TJ040
3183.335	2.638	2109317	WORD	n/a	wordpools/wordpool_EN.txt	PEN	11	15	n/a	n/a	pyFR	0	TJ040
3185.973	2.573	2111955	WORD	n/a	wordpools/wordpool_EN.txt	TOAST	12	15	n/a	n/a	pyFR	0	TJ040
3188.546	2.771	2114528	WORD	n/a	wordpools/wordpool_EN.txt	HOOF	13	15	n/a	n/a	pyFR	0	TJ040
3191.317	2.723	2117299	WORD	n/a	wordpools/wordpool_EN.txt	SKY	14	15	n/a	n/a	pyFR	0	TJ040
3194.04	1.622	2120022	WORD	n/a	wordpools/wordpool_EN.txt	LAMB	15	15	n/a	n/a	pyFR	0	TJ040
3195.662	1.017	2121644	START	n/a	n/a	n/a	n/a	15	[-999 -999 -999]	-999	pyFR	0	TJ040
3196.679	4.877	2122661	PROB	n/a	n/a	n/a	n/a	15	[9 4 9]	23	pyFR	0	TJ040
3201.556	2.838	2127538	PROB	n/a	n/a	n/a	n/a	15	[3 2 7]	12	pyFR	0	TJ040
3204.394	3.774	2130376	PROB	n/a	n/a	n/a	n/a	15	[5 2 2]	9	pyFR	0	TJ040
3208.168	5.01	2134150	PROB	n/a	n/a	n/a	n/a	15	[5 1 2]	8	pyFR	0	TJ040
3213.178	5.884	2139160	PROB	n/a	n/a	n/a	n/a	15	[1 7 9]	17	pyFR	0	TJ040
3219.062	1.164	2145044	STOP	n/a	n/a	n/a	n/a	15	[-999 -999 -999]	-999	pyFR	0	TJ040
3220.226	1.072	2146208	REC_START	n/a	n/a	n/a	-999	15	n/a	n/a	pyFR	0	TJ040
3221.298	1.323	2147280	REC_WORD_VV	1.323	n/a	<>	-999	15	n/a	n/a	pyFR	0	TJ040
3222.621	2.082	2148603	REC_WORD	2.082	n/a	DOG	-999	15	n/a	n/a	pyFR	0	TJ040
3224.703	1.0	2150685	REC_WORD_VV	1.0	n/a	<>	-999	15	n/a	n/a	pyFR	0	TJ040
3225.703	0.414	2151685	REC_WORD_VV	0.414	n/a	<>	-999	15	n/a	n/a	pyFR	0	TJ040
3226.117	1.0	2152099	REC_WORD	1.0	n/a	HOUSE	-999	15	n/a	n/a	pyFR	0	TJ040
3227.117	0.356	2153099	REC_WORD_VV	0.356	n/a	<>	-999	15	n/a	n/a	pyFR	0	TJ040
3227.473	2.197	2153455	REC_WORD	2.197	n/a	PEN	-999	15	n/a	n/a	pyFR	0	TJ040
3229.67	0.303	2155652	REC_WORD_VV	0.303	n/a	<>	-999	15	n/a	n/a	pyFR	0	TJ040
3229.973	4.178	2155955	REC_WORD	4.178	n/a	BRICK	-999	15	n/a	n/a	pyFR	0	TJ040
3234.151	1.0	2160133	REC_WORD_VV	1.0	n/a	<>	-999	15	n/a	n/a	pyFR	0	TJ040
3235.151	4.099	2161133	REC_WORD_VV	4.099	n/a	<>	-999	15	n/a	n/a	pyFR	0	TJ040
3239.25	0.913	2165232	REC_WORD_VV	0.913	n/a	<>	-999	15	n/a	n/a	pyFR	0	TJ040
3240.163	1.0	2166145	REC_WORD	1.0	n/a	ROOF	-999	15	n/a	n/a	pyFR	0	TJ040
3241.163	3.405	2167145	REC_WORD_VV	3.405	n/a	<>	-999	15	n/a	n/a	pyFR	0	TJ040
3244.568	26.761	2170550	REC_WORD_VV	26.761	n/a	<>	-999	15	n/a	n/a	pyFR	0	TJ040
3271.329	0.015	2197311	TRIAL	n/a	n/a	n/a	-999	16	n/a	n/a	pyFR	0	TJ040
3271.344	2.99	2197326	ORIENT	n/a	n/a	n/a	-999	16	n/a	n/a	pyFR	0	TJ040
3274.334	2.589	2200316	WORD	n/a	wordpools/wordpool_EN.txt	HEN	1	16	n/a	n/a	pyFR	0	TJ040
3276.923	2.706	2202905	WORD	n/a	wordpools/wordpool_EN.txt	KING	2	16	n/a	n/a	pyFR	0	TJ040
3279.629	2.587	2205611	WORD	n/a	wordpools/wordpool_EN.txt	DIME	3	16	n/a	n/a	pyFR	0	TJ040
3282.216	2.789	2208198	WORD	n/a	wordpools/wordpool_EN.txt	LAWN	4	16	n/a	n/a	pyFR	0	TJ040
3285.005	2.69	2210987	WORD	n/a	wordpools/wordpool_EN.txt	COIN	5	16	n/a	n/a	pyFR	0	TJ040
3287.695	2.537	2213677	WORD	n/a	wordpools/wordpool_EN.txt	SPEAR	6	16	n/a	n/a	pyFR	0	TJ040
3290.232	2.506	2216214	WORD	n/a	wordpools/wordpool_EN.txt	HAWK	7	16	n/a	n/a	pyFR	0	TJ040
3292.738	2.672	2218720	WORD	n/a	wordpools/wordpool_EN.txt	SHIRT	8	16	n/a	n/a	pyFR	0	TJ040
3295.41	2.522	2221392	WORD	n/a	wordpools/wordpool_EN.txt	WAND	9	16	n/a	n/a	pyFR	0	TJ040
3297.932	2.755	2223914	WORD	n/a	wordpools/wordpool_EN.txt	CHIEF	10	16	n/a	n/a	pyFR	0	TJ040
3300.687	2.722	2226669	WORD	n/a	wordpools/wordpool_EN.txt	STEM	11	16	n/a	n/a	pyFR	0	TJ040
3303.409	2.688	2229391	WORD	n/a	wordpools/wordpool_EN.txt	BLUSH	12	16	n/a	n/a	pyFR	0	TJ040
3306.097	2.773	2232079	WORD	n/a	wordpools/wordpool_EN.txt	CLIFF	13	16	n/a	n/a	pyFR	0	TJ040
3308.87	2.756	2234852	WORD	n/a	wordpools/wordpool_EN.txt	BALL	14	16	n/a	n/a	pyFR	0	TJ040
3311.626	1.62	2237608	WORD	n/a	wordpools/wordpool_EN.txt	DUCK	15	16	n/a	n/a	pyFR	0	TJ040
3313.246	1.084	2239228	START	n/a	n/a	n/a	n/a	16	[-999 -999 -999]	-999	pyFR	0	TJ040
3314.33	5.479	2240312	PROB	n/a	n/a	n/a	n/a	16	[5 9 2]	16	pyFR	0	TJ040
3319.809	3.657	2245791	PROB	n/a	n/a	n/a	n/a	16	[3 4 2]	9	pyFR	0	TJ040
3323.466	4.242	2249448	PROB	n/a	n/a	n/a	n/a	16	[8 2 5]	15	pyFR	0	TJ040
3327.708	3.439	2253690	PROB	n/a	n/a	n/a	n/a	16	[3 7 7]	17	pyFR	0	TJ040
3331.147	4.568	2257129	PROB	n/a	n/a	n/a	n/a	16	[4 7 7]	21	pyFR	0	TJ040
3335.715	1.112	2261697	STOP	n/a	n/a	n/a	n/a	16	[-999 -999 -999]	-999	pyFR	0	TJ040
3336.827	2.683	2262809	REC_START	n/a	n/a	n/a	-999	16	n/a	n/a	pyFR	0	TJ040
3339.51	0.973	2265492	REC_WORD_VV	0.973	n/a	<>	-999	16	n/a	n/a	pyFR	0	TJ040
3340.483	4.637	2266465	REC_WORD	4.637	n/a	BLUSH	-999	16	n/a	n/a	pyFR	0	TJ040
3345.12	1.0	2271101	REC_WORD_VV	1.0	n/a	<>	-999	16	n/a	n/a	pyFR	0	TJ040
3346.12	1.686	2272101	REC_WORD_VV	1.686	n/a	<>	-999	16	n/a	n/a	pyFR	0	TJ040
3347.806	4.478	2273787	REC_WORD_VV	4.478	n/a	<>	-999	16	n/a	n/a	pyFR	0	TJ040
3352.284	10.073	2278265	REC_WORD_VV	10.073	n/a	<>	-999	16	n/a	n/a	pyFR	0	TJ040
3362.357	8.962	2288338	REC_WORD	8.962	n/a	BED	-999	16	n/a	n/a	pyFR	0	TJ040
3371.319	6.337	2297300	REC_WORD_VV	6.337	n/a	<>	-999	16	n/a	n/a	pyFR	0	TJ040
3377.656	500.589	2303637	REC_WORD	500.589	n/a	HOUSE	-999	16	n/a	n/a	pyFR	0	TJ040
3878.245	0.141	2804223	SESS_END	n/a	n/a	n/a	-999	16	n/a	n/a	pyFR	0	TJ040
3878.386	0.0	2804364	E	n/a	n/a	n/a	-999	16	n/a	n/a	pyFR	0	TJ040
