onset	duration	sample	trial_type	response_time	stim_file	item_name	serialpos	list	test	answer	experiment	session	subject
0.0	6.093	693157	E	n/a	n/a	n/a	-999	16	n/a	n/a	pyFR	0	TJ055
6.093	0.0	699248	SESS_START	n/a	n/a	n/a	-999	-999	n/a	n/a	pyFR	0	TJ055
6.093	13.832	699248	B	n/a	n/a	n/a	-999	-999	n/a	n/a	pyFR	0	TJ055
19.925	0.034	713077	START	n/a	n/a	n/a	n/a	0	[-999 -999 -999]	-999	pyFR	0	TJ055
19.959	15.166	713111	PROB	n/a	n/a	n/a	n/a	0	[9 6 5]	20	pyFR	0	TJ055
35.125	6.882	728274	PROB	n/a	n/a	n/a	n/a	0	[7 1 8]	16	pyFR	0	TJ055
42.007	4.443	735155	PROB	n/a	n/a	n/a	n/a	0	[4 5 3]	12	pyFR	0	TJ055
46.45	9.03	739597	PROB	n/a	n/a	n/a	n/a	0	[9 3 8]	14	pyFR	0	TJ055
55.48	99.36	748625	STOP	n/a	n/a	n/a	n/a	0	[-999 -999 -999]	-999	pyFR	0	TJ055
154.84	0.016	847965	TRIAL	n/a	n/a	n/a	-999	1	n/a	n/a	pyFR	0	TJ055
154.856	2.671	847981	ORIENT	n/a	n/a	n/a	-999	1	n/a	n/a	pyFR	0	TJ055
157.527	2.606	850651	WORD	n/a	wordpools/wordpool_EN.txt	LAND	1	1	n/a	n/a	pyFR	0	TJ055
160.133	2.79	853257	WORD	n/a	wordpools/wordpool_EN.txt	RUG	2	1	n/a	n/a	pyFR	0	TJ055
162.923	2.572	856046	WORD	n/a	wordpools/wordpool_EN.txt	BOOT	3	1	n/a	n/a	pyFR	0	TJ055
165.495	2.772	858618	WORD	n/a	wordpools/wordpool_EN.txt	HOOF	4	1	n/a	n/a	pyFR	0	TJ055
168.267	2.524	861389	WORD	n/a	wordpools/wordpool_EN.txt	JAR	5	1	n/a	n/a	pyFR	0	TJ055
170.791	2.654	863913	WORD	n/a	wordpools/wordpool_EN.txt	FOOT	6	1	n/a	n/a	pyFR	0	TJ055
173.445	2.589	866566	WORD	n/a	wordpools/wordpool_EN.txt	BOOK	7	1	n/a	n/a	pyFR	0	TJ055
176.034	2.674	869155	WORD	n/a	wordpools/wordpool_EN.txt	STEM	8	1	n/a	n/a	pyFR	0	TJ055
178.708	2.705	871828	WORD	n/a	wordpools/wordpool_EN.txt	FILM	9	1	n/a	n/a	pyFR	0	TJ055
181.413	2.639	874533	WORD	n/a	wordpools/wordpool_EN.txt	CHAIR	10	1	n/a	n/a	pyFR	0	TJ055
184.052	2.506	877171	WORD	n/a	wordpools/wordpool_EN.txt	GLASS	11	1	n/a	n/a	pyFR	0	TJ055
186.558	2.622	879677	WORD	n/a	wordpools/wordpool_EN.txt	LAMP	12	1	n/a	n/a	pyFR	0	TJ055
189.18	2.757	882298	WORD	n/a	wordpools/wordpool_EN.txt	WING	13	1	n/a	n/a	pyFR	0	TJ055
191.937	2.471	885054	WORD	n/a	wordpools/wordpool_EN.txt	EAR	14	1	n/a	n/a	pyFR	0	TJ055
194.408	1.622	887525	WORD	n/a	wordpools/wordpool_EN.txt	KEY	15	1	n/a	n/a	pyFR	0	TJ055
196.03	1.184	889147	START	n/a	n/a	n/a	n/a	1	[-999 -999 -999]	-999	pyFR	0	TJ055
197.214	6.949	890330	PROB	n/a	n/a	n/a	n/a	1	[8 4 6]	18	pyFR	0	TJ055
204.163	4.326	897278	PROB	n/a	n/a	n/a	n/a	1	[6 4 1]	11	pyFR	0	TJ055
208.489	6.298	901603	PROB	n/a	n/a	n/a	n/a	1	[6 5 1]	12	pyFR	0	TJ055
214.787	4.455	907900	PROB	n/a	n/a	n/a	n/a	1	[7 5 9]	21	pyFR	0	TJ055
219.242	1.141	912354	STOP	n/a	n/a	n/a	n/a	1	[-999 -999 -999]	-999	pyFR	0	TJ055
220.383	0.0	913495	REC_WORD_VV	0.0	n/a	<>	-999	1	n/a	n/a	pyFR	0	TJ055
220.383	1.0	913495	REC_START	n/a	n/a	n/a	-999	1	n/a	n/a	pyFR	0	TJ055
221.383	1.0	914494	REC_WORD_VV	1.0	n/a	<>	-999	1	n/a	n/a	pyFR	0	TJ055
222.383	1.0	915494	REC_WORD_VV	1.0	n/a	<>	-999	1	n/a	n/a	pyFR	0	TJ055
223.383	1.0	916494	REC_WORD_VV	1.0	n/a	<>	-999	1	n/a	n/a	pyFR	0	TJ055
224.383	1.0	917494	REC_WORD_VV	1.0	n/a	<>	-999	1	n/a	n/a	pyFR	0	TJ055
225.383	1.0	918494	REC_WORD_VV	1.0	n/a	<>	-999	1	n/a	n/a	pyFR	0	TJ055
226.383	1.0	919493	REC_WORD_VV	1.0	n/a	<>	-999	1	n/a	n/a	pyFR	0	TJ055
227.383	2.6	920493	REC_WORD_VV	2.6	n/a	<>	-999	1	n/a	n/a	pyFR	0	TJ055
229.983	0.384	923093	REC_WORD	0.384	n/a	HOOF	-999	1	n/a	n/a	pyFR	0	TJ055
230.367	2.244	923477	REC_WORD	2.244	n/a	ROOF	-999	1	n/a	n/a	pyFR	0	TJ055
232.611	2.746	925720	REC_WORD	2.746	n/a	FOOT	-999	1	n/a	n/a	pyFR	0	TJ055
235.357	3.688	928466	REC_WORD	3.688	n/a	CHAIR	-999	1	n/a	n/a	pyFR	0	TJ055
239.045	3.6	932153	REC_WORD	3.6	n/a	BAR	-999	1	n/a	n/a	pyFR	0	TJ055
242.645	99.84	935752	REC_WORD_VV	99.84	n/a	<>	-999	1	n/a	n/a	pyFR	0	TJ055
342.485	0.015	1035572	TRIAL	n/a	n/a	n/a	-999	2	n/a	n/a	pyFR	0	TJ055
342.5	2.806	1035587	ORIENT	n/a	n/a	n/a	-999	2	n/a	n/a	pyFR	0	TJ055
345.306	2.524	1038392	WORD	n/a	wordpools/wordpool_EN.txt	FLAME	1	2	n/a	n/a	pyFR	0	TJ055
347.83	2.554	1040916	WORD	n/a	wordpools/wordpool_EN.txt	MUG	2	2	n/a	n/a	pyFR	0	TJ055
350.384	2.623	1043469	WORD	n/a	wordpools/wordpool_EN.txt	SIGN	3	2	n/a	n/a	pyFR	0	TJ055
353.007	2.64	1046092	WORD	n/a	wordpools/wordpool_EN.txt	SHOE	4	2	n/a	n/a	pyFR	0	TJ055
355.647	2.487	1048731	WORD	n/a	wordpools/wordpool_EN.txt	RIB	5	2	n/a	n/a	pyFR	0	TJ055
358.134	2.591	1051218	WORD	n/a	wordpools/wordpool_EN.txt	MOON	6	2	n/a	n/a	pyFR	0	TJ055
360.725	2.587	1053808	WORD	n/a	wordpools/wordpool_EN.txt	GOLD	7	2	n/a	n/a	pyFR	0	TJ055
363.312	2.674	1056395	WORD	n/a	wordpools/wordpool_EN.txt	SPRING	8	2	n/a	n/a	pyFR	0	TJ055
365.986	2.773	1059068	WORD	n/a	wordpools/wordpool_EN.txt	SHIRT	9	2	n/a	n/a	pyFR	0	TJ055
368.759	2.571	1061840	WORD	n/a	wordpools/wordpool_EN.txt	FORK	10	2	n/a	n/a	pyFR	0	TJ055
371.33	2.773	1064411	WORD	n/a	wordpools/wordpool_EN.txt	SCHOOL	11	2	n/a	n/a	pyFR	0	TJ055
374.103	2.79	1067183	WORD	n/a	wordpools/wordpool_EN.txt	NEST	12	2	n/a	n/a	pyFR	0	TJ055
376.893	2.438	1069973	WORD	n/a	wordpools/wordpool_EN.txt	TRAY	13	2	n/a	n/a	pyFR	0	TJ055
379.331	2.823	1072410	WORD	n/a	wordpools/wordpool_EN.txt	RAIN	14	2	n/a	n/a	pyFR	0	TJ055
382.154	1.623	1075233	WORD	n/a	wordpools/wordpool_EN.txt	CAT	15	2	n/a	n/a	pyFR	0	TJ055
383.777	1.151	1076855	START	n/a	n/a	n/a	n/a	2	[-999 -999 -999]	-999	pyFR	0	TJ055
384.928	8.534	1078006	PROB	n/a	n/a	n/a	n/a	2	[7 4 3]	14	pyFR	0	TJ055
393.462	4.56	1086538	PROB	n/a	n/a	n/a	n/a	2	[4 1 8]	13	pyFR	0	TJ055
398.022	5.978	1091097	PROB	n/a	n/a	n/a	n/a	2	[9 7 5]	21	pyFR	0	TJ055
404.0	1.105	1097074	STOP	n/a	n/a	n/a	n/a	2	[-999 -999 -999]	-999	pyFR	0	TJ055
405.105	1.316	1098179	REC_START	n/a	n/a	n/a	-999	2	n/a	n/a	pyFR	0	TJ055
406.421	12.675	1099495	REC_WORD_VV	12.675	n/a	<>	-999	2	n/a	n/a	pyFR	0	TJ055
419.096	0.564	1112167	REC_WORD_VV	0.564	n/a	<>	-999	2	n/a	n/a	pyFR	0	TJ055
419.66	1.58	1112731	REC_WORD	1.58	n/a	RAIN	-999	2	n/a	n/a	pyFR	0	TJ055
421.24	7.309	1114311	REC_WORD	7.309	n/a	GOLD	-999	2	n/a	n/a	pyFR	0	TJ055
428.549	0.606	1121618	REC_WORD	0.606	n/a	CHEW	-999	2	n/a	n/a	pyFR	0	TJ055
429.155	13.617	1122224	REC_WORD	13.617	n/a	SPRING	-999	2	n/a	n/a	pyFR	0	TJ055
442.772	1.0	1135838	REC_WORD_VV	1.0	n/a	<>	-999	2	n/a	n/a	pyFR	0	TJ055
443.772	1.0	1136838	REC_WORD_VV	1.0	n/a	<>	-999	2	n/a	n/a	pyFR	0	TJ055
444.772	1.0	1137838	REC_WORD_VV	1.0	n/a	<>	-999	2	n/a	n/a	pyFR	0	TJ055
445.772	1.0	1138838	REC_WORD_VV	1.0	n/a	<>	-999	2	n/a	n/a	pyFR	0	TJ055
446.772	1.0	1139838	REC_WORD_VV	1.0	n/a	<>	-999	2	n/a	n/a	pyFR	0	TJ055
447.772	1.0	1140837	REC_WORD_VV	1.0	n/a	<>	-999	2	n/a	n/a	pyFR	0	TJ055
448.772	1.0	1141837	REC_WORD_VV	1.0	n/a	<>	-999	2	n/a	n/a	pyFR	0	TJ055
449.772	50.126	1142837	REC_WORD_VV	50.126	n/a	<>	-999	2	n/a	n/a	pyFR	0	TJ055
499.898	0.016	1192953	TRIAL	n/a	n/a	n/a	-999	3	n/a	n/a	pyFR	0	TJ055
499.914	3.006	1192969	ORIENT	n/a	n/a	n/a	-999	3	n/a	n/a	pyFR	0	TJ055
502.92	2.706	1195974	WORD	n/a	wordpools/wordpool_EN.txt	ARM	1	3	n/a	n/a	pyFR	0	TJ055
505.626	2.605	1198680	WORD	n/a	wordpools/wordpool_EN.txt	NET	2	3	n/a	n/a	pyFR	0	TJ055
508.231	2.773	1201284	WORD	n/a	wordpools/wordpool_EN.txt	PEARL	3	3	n/a	n/a	pyFR	0	TJ055
511.004	2.472	1204056	WORD	n/a	wordpools/wordpool_EN.txt	SUIT	4	3	n/a	n/a	pyFR	0	TJ055
513.476	2.823	1206528	WORD	n/a	wordpools/wordpool_EN.txt	POLE	5	3	n/a	n/a	pyFR	0	TJ055
516.299	2.489	1209350	WORD	n/a	wordpools/wordpool_EN.txt	TRUCK	6	3	n/a	n/a	pyFR	0	TJ055
518.788	2.705	1211839	WORD	n/a	wordpools/wordpool_EN.txt	CLOWN	7	3	n/a	n/a	pyFR	0	TJ055
521.493	2.556	1214543	WORD	n/a	wordpools/wordpool_EN.txt	CASH	8	3	n/a	n/a	pyFR	0	TJ055
524.049	2.472	1217099	WORD	n/a	wordpools/wordpool_EN.txt	FOOD	9	3	n/a	n/a	pyFR	0	TJ055
526.521	2.473	1219570	WORD	n/a	wordpools/wordpool_EN.txt	BEAK	10	3	n/a	n/a	pyFR	0	TJ055
528.994	2.606	1222043	WORD	n/a	wordpools/wordpool_EN.txt	ROCK	11	3	n/a	n/a	pyFR	0	TJ055
531.6	2.655	1224648	WORD	n/a	wordpools/wordpool_EN.txt	HORN	12	3	n/a	n/a	pyFR	0	TJ055
534.255	2.44	1227303	WORD	n/a	wordpools/wordpool_EN.txt	SPEAR	13	3	n/a	n/a	pyFR	0	TJ055
536.695	2.838	1229742	WORD	n/a	wordpools/wordpool_EN.txt	HAWK	14	3	n/a	n/a	pyFR	0	TJ055
539.533	1.622	1232580	WORD	n/a	wordpools/wordpool_EN.txt	GLOVE	15	3	n/a	n/a	pyFR	0	TJ055
541.155	0.934	1234201	START	n/a	n/a	n/a	n/a	3	[-999 -999 -999]	-999	pyFR	0	TJ055
542.089	7.266	1235135	PROB	n/a	n/a	n/a	n/a	3	[8 3 8]	19	pyFR	0	TJ055
549.355	5.529	1242400	PROB	n/a	n/a	n/a	n/a	3	[7 4 1]	12	pyFR	0	TJ055
554.884	4.359	1247927	PROB	n/a	n/a	n/a	n/a	3	[5 1 9]	15	pyFR	0	TJ055
559.243	4.143	1252286	PROB	n/a	n/a	n/a	n/a	3	[2 2 9]	13	pyFR	0	TJ055
563.386	1.17	1256428	STOP	n/a	n/a	n/a	n/a	3	[-999 -999 -999]	-999	pyFR	0	TJ055
564.556	2.228	1257598	REC_START	n/a	n/a	n/a	-999	3	n/a	n/a	pyFR	0	TJ055
566.784	1.8	1259825	REC_WORD_VV	1.8	n/a	<>	-999	3	n/a	n/a	pyFR	0	TJ055
568.584	0.478	1261625	REC_WORD	0.478	n/a	ARM	-999	3	n/a	n/a	pyFR	0	TJ055
569.062	0.644	1262103	REC_WORD	0.644	n/a	NET	-999	3	n/a	n/a	pyFR	0	TJ055
569.706	1.942	1262746	REC_WORD	1.942	n/a	POLE	-999	3	n/a	n/a	pyFR	0	TJ055
571.648	0.589	1264688	REC_WORD	0.589	n/a	HAND	-999	3	n/a	n/a	pyFR	0	TJ055
572.237	5.266	1265277	REC_WORD	5.266	n/a	GLOVE	-999	3	n/a	n/a	pyFR	0	TJ055
577.503	1.0	1270542	REC_WORD_VV	1.0	n/a	<>	-999	3	n/a	n/a	pyFR	0	TJ055
578.503	6.512	1271542	REC_WORD_VV	6.512	n/a	<>	-999	3	n/a	n/a	pyFR	0	TJ055
585.015	0.49	1278052	REC_WORD	0.49	n/a	CAR	-999	3	n/a	n/a	pyFR	0	TJ055
585.505	4.967	1278542	REC_WORD	4.967	n/a	SPRING	-999	3	n/a	n/a	pyFR	0	TJ055
590.472	53.526	1283508	REC_WORD_VV	53.526	n/a	<>	-999	3	n/a	n/a	pyFR	0	TJ055
643.998	0.015	1337023	TRIAL	n/a	n/a	n/a	-999	4	n/a	n/a	pyFR	0	TJ055
644.013	2.707	1337038	ORIENT	n/a	n/a	n/a	-999	4	n/a	n/a	pyFR	0	TJ055
646.72	2.537	1339745	WORD	n/a	wordpools/wordpool_EN.txt	HEN	1	4	n/a	n/a	pyFR	0	TJ055
649.257	2.524	1342281	WORD	n/a	wordpools/wordpool_EN.txt	FACE	2	4	n/a	n/a	pyFR	0	TJ055
651.781	2.705	1344805	WORD	n/a	wordpools/wordpool_EN.txt	PIPE	3	4	n/a	n/a	pyFR	0	TJ055
654.486	2.539	1347509	WORD	n/a	wordpools/wordpool_EN.txt	TOE	4	4	n/a	n/a	pyFR	0	TJ055
657.025	2.807	1350048	WORD	n/a	wordpools/wordpool_EN.txt	DEER	5	4	n/a	n/a	pyFR	0	TJ055
659.832	2.638	1352854	WORD	n/a	wordpools/wordpool_EN.txt	BOMB	6	4	n/a	n/a	pyFR	0	TJ055
662.47	2.706	1355492	WORD	n/a	wordpools/wordpool_EN.txt	MULE	7	4	n/a	n/a	pyFR	0	TJ055
665.176	2.59	1358197	WORD	n/a	wordpools/wordpool_EN.txt	BRANCH	8	4	n/a	n/a	pyFR	0	TJ055
667.766	2.806	1360786	WORD	n/a	wordpools/wordpool_EN.txt	BOWL	9	4	n/a	n/a	pyFR	0	TJ055
670.572	2.555	1363592	WORD	n/a	wordpools/wordpool_EN.txt	NAIL	10	4	n/a	n/a	pyFR	0	TJ055
673.127	2.456	1366146	WORD	n/a	wordpools/wordpool_EN.txt	VEST	11	4	n/a	n/a	pyFR	0	TJ055
675.583	2.521	1368602	WORD	n/a	wordpools/wordpool_EN.txt	PRINCE	12	4	n/a	n/a	pyFR	0	TJ055
678.104	2.49	1371122	WORD	n/a	wordpools/wordpool_EN.txt	JET	13	4	n/a	n/a	pyFR	0	TJ055
680.594	2.454	1373612	WORD	n/a	wordpools/wordpool_EN.txt	BAT	14	4	n/a	n/a	pyFR	0	TJ055
683.048	1.606	1376065	WORD	n/a	wordpools/wordpool_EN.txt	CLOTH	15	4	n/a	n/a	pyFR	0	TJ055
684.654	0.85	1377671	START	n/a	n/a	n/a	n/a	4	[-999 -999 -999]	-999	pyFR	0	TJ055
685.504	8.269	1378521	PROB	n/a	n/a	n/a	n/a	4	[3 9 9]	21	pyFR	0	TJ055
693.773	9.087	1386788	PROB	n/a	n/a	n/a	n/a	4	[8 6 9]	23	pyFR	0	TJ055
702.86	4.239	1395873	PROB	n/a	n/a	n/a	n/a	4	[6 6 9]	21	pyFR	0	TJ055
707.099	1.222	1400111	STOP	n/a	n/a	n/a	n/a	4	[-999 -999 -999]	-999	pyFR	0	TJ055
708.321	8.512	1401333	REC_START	n/a	n/a	n/a	-999	4	n/a	n/a	pyFR	0	TJ055
716.833	0.75	1409843	REC_WORD_VV	0.75	n/a	<>	-999	4	n/a	n/a	pyFR	0	TJ055
717.583	1.662	1410593	REC_WORD_VV	1.662	n/a	<>	-999	4	n/a	n/a	pyFR	0	TJ055
719.245	0.992	1412255	REC_WORD	0.992	n/a	HEAD	-999	4	n/a	n/a	pyFR	0	TJ055
720.237	2.544	1413247	REC_WORD	2.544	n/a	HAND	-999	4	n/a	n/a	pyFR	0	TJ055
722.781	3.67	1415790	REC_WORD	3.67	n/a	BOWL	-999	4	n/a	n/a	pyFR	0	TJ055
726.451	7.286	1419460	REC_WORD_VV	7.286	n/a	<>	-999	4	n/a	n/a	pyFR	0	TJ055
733.737	7.199	1426744	REC_WORD	7.199	n/a	SPRING	-999	4	n/a	n/a	pyFR	0	TJ055
740.936	5.261	1433942	REC_WORD	5.261	n/a	JET	-999	4	n/a	n/a	pyFR	0	TJ055
746.197	4.936	1439202	REC_WORD	4.936	n/a	ROOF	-999	4	n/a	n/a	pyFR	0	TJ055
751.133	1.0	1444137	REC_WORD_VV	1.0	n/a	<>	-999	4	n/a	n/a	pyFR	0	TJ055
752.133	37.836	1445136	REC_WORD_VV	37.836	n/a	<>	-999	4	n/a	n/a	pyFR	0	TJ055
789.969	0.015	1482965	TRIAL	n/a	n/a	n/a	-999	5	n/a	n/a	pyFR	0	TJ055
789.984	2.706	1482980	ORIENT	n/a	n/a	n/a	-999	5	n/a	n/a	pyFR	0	TJ055
792.69	2.622	1485685	WORD	n/a	wordpools/wordpool_EN.txt	MAT	1	5	n/a	n/a	pyFR	0	TJ055
795.312	2.673	1488307	WORD	n/a	wordpools/wordpool_EN.txt	TAIL	2	5	n/a	n/a	pyFR	0	TJ055
797.985	2.505	1490979	WORD	n/a	wordpools/wordpool_EN.txt	MOUSE	3	5	n/a	n/a	pyFR	0	TJ055
800.49	2.589	1493483	WORD	n/a	wordpools/wordpool_EN.txt	FLEA	4	5	n/a	n/a	pyFR	0	TJ055
803.079	2.824	1496072	WORD	n/a	wordpools/wordpool_EN.txt	SHEET	5	5	n/a	n/a	pyFR	0	TJ055
805.903	2.554	1498895	WORD	n/a	wordpools/wordpool_EN.txt	HOSE	6	5	n/a	n/a	pyFR	0	TJ055
808.457	2.807	1501449	WORD	n/a	wordpools/wordpool_EN.txt	MILK	7	5	n/a	n/a	pyFR	0	TJ055
811.264	2.523	1504255	WORD	n/a	wordpools/wordpool_EN.txt	FRUIT	8	5	n/a	n/a	pyFR	0	TJ055
813.787	2.738	1506778	WORD	n/a	wordpools/wordpool_EN.txt	WOOD	9	5	n/a	n/a	pyFR	0	TJ055
816.525	2.456	1509515	WORD	n/a	wordpools/wordpool_EN.txt	BATH	10	5	n/a	n/a	pyFR	0	TJ055
818.981	2.505	1511971	WORD	n/a	wordpools/wordpool_EN.txt	ROAD	11	5	n/a	n/a	pyFR	0	TJ055
821.486	2.756	1514475	WORD	n/a	wordpools/wordpool_EN.txt	PARK	12	5	n/a	n/a	pyFR	0	TJ055
824.242	2.823	1517231	WORD	n/a	wordpools/wordpool_EN.txt	GRAPE	13	5	n/a	n/a	pyFR	0	TJ055
827.065	2.607	1520053	WORD	n/a	wordpools/wordpool_EN.txt	PIT	14	5	n/a	n/a	pyFR	0	TJ055
829.672	1.62	1522660	WORD	n/a	wordpools/wordpool_EN.txt	MAP	15	5	n/a	n/a	pyFR	0	TJ055
831.292	1.118	1524279	START	n/a	n/a	n/a	n/a	5	[-999 -999 -999]	-999	pyFR	0	TJ055
832.41	6.715	1525397	PROB	n/a	n/a	n/a	n/a	5	[3 5 6]	14	pyFR	0	TJ055
839.125	4.511	1532111	PROB	n/a	n/a	n/a	n/a	5	[1 6 8]	15	pyFR	0	TJ055
843.636	5.011	1536621	PROB	n/a	n/a	n/a	n/a	5	[1 9 9]	19	pyFR	0	TJ055
848.647	7.101	1541631	PROB	n/a	n/a	n/a	n/a	5	[9 5 3]	17	pyFR	0	TJ055
855.748	1.234	1548730	STOP	n/a	n/a	n/a	n/a	5	[-999 -999 -999]	-999	pyFR	0	TJ055
856.982	1.774	1549964	REC_START	n/a	n/a	n/a	-999	5	n/a	n/a	pyFR	0	TJ055
858.756	1.0	1551738	REC_WORD_VV	1.0	n/a	<>	-999	5	n/a	n/a	pyFR	0	TJ055
859.756	6.289	1552737	REC_WORD_VV	6.289	n/a	<>	-999	5	n/a	n/a	pyFR	0	TJ055
866.045	0.617	1559025	REC_WORD_VV	0.617	n/a	<>	-999	5	n/a	n/a	pyFR	0	TJ055
866.662	1.187	1559642	REC_WORD	1.187	n/a	MAT	-999	5	n/a	n/a	pyFR	0	TJ055
867.849	0.998	1560829	REC_WORD	0.998	n/a	MOUSE	-999	5	n/a	n/a	pyFR	0	TJ055
868.847	7.85	1561827	REC_WORD	7.85	n/a	TAIL	-999	5	n/a	n/a	pyFR	0	TJ055
876.697	5.69	1569675	REC_WORD	5.69	n/a	FLEA	-999	5	n/a	n/a	pyFR	0	TJ055
882.387	9.113	1575364	REC_WORD	9.113	n/a	MAP	-999	5	n/a	n/a	pyFR	0	TJ055
891.5	2.635	1584475	REC_WORD_VV	2.635	n/a	<>	-999	5	n/a	n/a	pyFR	0	TJ055
894.135	1.0	1587109	REC_WORD	1.0	n/a	CAR	-999	5	n/a	n/a	pyFR	0	TJ055
895.135	3.375	1588109	REC_WORD_VV	3.375	n/a	<>	-999	5	n/a	n/a	pyFR	0	TJ055
898.51	1.0	1591483	REC_WORD_VV	1.0	n/a	<>	-999	5	n/a	n/a	pyFR	0	TJ055
899.51	44.414	1592483	REC_WORD_VV	44.414	n/a	<>	-999	5	n/a	n/a	pyFR	0	TJ055
943.924	0.015	1636888	TRIAL	n/a	n/a	n/a	-999	6	n/a	n/a	pyFR	0	TJ055
943.939	2.673	1636903	ORIENT	n/a	n/a	n/a	-999	6	n/a	n/a	pyFR	0	TJ055
946.612	2.671	1639576	WORD	n/a	wordpools/wordpool_EN.txt	DIME	1	6	n/a	n/a	pyFR	0	TJ055
949.283	2.44	1642246	WORD	n/a	wordpools/wordpool_EN.txt	BED	2	6	n/a	n/a	pyFR	0	TJ055
951.723	2.521	1644686	WORD	n/a	wordpools/wordpool_EN.txt	STRING	3	6	n/a	n/a	pyFR	0	TJ055
954.244	2.507	1647206	WORD	n/a	wordpools/wordpool_EN.txt	TREE	4	6	n/a	n/a	pyFR	0	TJ055
956.751	2.588	1649713	WORD	n/a	wordpools/wordpool_EN.txt	RICE	5	6	n/a	n/a	pyFR	0	TJ055
959.339	2.689	1652300	WORD	n/a	wordpools/wordpool_EN.txt	BENCH	6	6	n/a	n/a	pyFR	0	TJ055
962.028	2.574	1654989	WORD	n/a	wordpools/wordpool_EN.txt	HILL	7	6	n/a	n/a	pyFR	0	TJ055
964.602	2.554	1657562	WORD	n/a	wordpools/wordpool_EN.txt	ICE	8	6	n/a	n/a	pyFR	0	TJ055
967.156	2.724	1660116	WORD	n/a	wordpools/wordpool_EN.txt	FOG	9	6	n/a	n/a	pyFR	0	TJ055
969.88	2.488	1662839	WORD	n/a	wordpools/wordpool_EN.txt	APE	10	6	n/a	n/a	pyFR	0	TJ055
972.368	2.756	1665326	WORD	n/a	wordpools/wordpool_EN.txt	VASE	11	6	n/a	n/a	pyFR	0	TJ055
975.124	2.456	1668082	WORD	n/a	wordpools/wordpool_EN.txt	WORM	12	6	n/a	n/a	pyFR	0	TJ055
977.58	2.772	1670537	WORD	n/a	wordpools/wordpool_EN.txt	MAIL	13	6	n/a	n/a	pyFR	0	TJ055
980.352	2.773	1673309	WORD	n/a	wordpools/wordpool_EN.txt	FUR	14	6	n/a	n/a	pyFR	0	TJ055
983.125	1.622	1676081	WORD	n/a	wordpools/wordpool_EN.txt	SKI	15	6	n/a	n/a	pyFR	0	TJ055
984.747	0.934	1677703	START	n/a	n/a	n/a	n/a	6	[-999 -999 -999]	-999	pyFR	0	TJ055
985.681	8.434	1678637	PROB	n/a	n/a	n/a	n/a	6	[6 3 6]	15	pyFR	0	TJ055
994.115	3.476	1687069	PROB	n/a	n/a	n/a	n/a	6	[1 3 4]	8	pyFR	0	TJ055
997.591	4.709	1690544	PROB	n/a	n/a	n/a	n/a	6	[1 7 4]	12	pyFR	0	TJ055
1002.3	3.087	1695252	PROB	n/a	n/a	n/a	n/a	6	[5 9 1]	15	pyFR	0	TJ055
1005.387	1.191	1698339	STOP	n/a	n/a	n/a	n/a	6	[-999 -999 -999]	-999	pyFR	0	TJ055
1006.578	2.019	1699529	REC_START	n/a	n/a	n/a	-999	6	n/a	n/a	pyFR	0	TJ055
1008.597	1.94	1701548	REC_WORD_VV	1.94	n/a	<>	-999	6	n/a	n/a	pyFR	0	TJ055
1010.537	2.41	1703488	REC_WORD	2.41	n/a	APE	-999	6	n/a	n/a	pyFR	0	TJ055
1012.947	3.309	1705897	REC_WORD	3.309	n/a	MAIL	-999	6	n/a	n/a	pyFR	0	TJ055
1016.256	0.491	1709206	REC_WORD_VV	0.491	n/a	<>	-999	6	n/a	n/a	pyFR	0	TJ055
1016.747	9.138	1709696	REC_WORD	9.138	n/a	FUR	-999	6	n/a	n/a	pyFR	0	TJ055
1025.885	1.042	1718833	REC_WORD_VV	1.042	n/a	<>	-999	6	n/a	n/a	pyFR	0	TJ055
1026.927	85.433	1719874	REC_WORD	85.433	n/a	CAR	-999	6	n/a	n/a	pyFR	0	TJ055
1112.36	0.015	1805290	TRIAL	n/a	n/a	n/a	-999	7	n/a	n/a	pyFR	0	TJ055
1112.375	3.024	1805305	ORIENT	n/a	n/a	n/a	-999	7	n/a	n/a	pyFR	0	TJ055
1115.399	2.456	1808328	WORD	n/a	wordpools/wordpool_EN.txt	TIE	1	7	n/a	n/a	pyFR	0	TJ055
1117.855	2.588	1810784	WORD	n/a	wordpools/wordpool_EN.txt	CROW	2	7	n/a	n/a	pyFR	0	TJ055
1120.443	2.806	1813371	WORD	n/a	wordpools/wordpool_EN.txt	MOLE	3	7	n/a	n/a	pyFR	0	TJ055
1123.249	2.823	1816177	WORD	n/a	wordpools/wordpool_EN.txt	PLATE	4	7	n/a	n/a	pyFR	0	TJ055
1126.072	2.707	1818999	WORD	n/a	wordpools/wordpool_EN.txt	BOARD	5	7	n/a	n/a	pyFR	0	TJ055
1128.779	2.454	1821706	WORD	n/a	wordpools/wordpool_EN.txt	SLIME	6	7	n/a	n/a	pyFR	0	TJ055
1131.233	2.574	1824159	WORD	n/a	wordpools/wordpool_EN.txt	CHIN	7	7	n/a	n/a	pyFR	0	TJ055
1133.807	2.739	1826733	WORD	n/a	wordpools/wordpool_EN.txt	CONE	8	7	n/a	n/a	pyFR	0	TJ055
1136.546	2.605	1829471	WORD	n/a	wordpools/wordpool_EN.txt	BEE	9	7	n/a	n/a	pyFR	0	TJ055
1139.151	2.807	1832075	WORD	n/a	wordpools/wordpool_EN.txt	TOOTH	10	7	n/a	n/a	pyFR	0	TJ055
1141.958	2.673	1834882	WORD	n/a	wordpools/wordpool_EN.txt	SHRIMP	11	7	n/a	n/a	pyFR	0	TJ055
1144.631	2.487	1837554	WORD	n/a	wordpools/wordpool_EN.txt	BEAR	12	7	n/a	n/a	pyFR	0	TJ055
1147.118	2.707	1840041	WORD	n/a	wordpools/wordpool_EN.txt	ARK	13	7	n/a	n/a	pyFR	0	TJ055
1149.825	2.538	1842747	WORD	n/a	wordpools/wordpool_EN.txt	JEEP	14	7	n/a	n/a	pyFR	0	TJ055
1152.363	1.606	1845285	WORD	n/a	wordpools/wordpool_EN.txt	EEL	15	7	n/a	n/a	pyFR	0	TJ055
1153.969	1.15	1846890	START	n/a	n/a	n/a	n/a	7	[-999 -999 -999]	-999	pyFR	0	TJ055
1155.119	4.143	1848040	PROB	n/a	n/a	n/a	n/a	7	[7 3 3]	13	pyFR	0	TJ055
1159.262	3.223	1852182	PROB	n/a	n/a	n/a	n/a	7	[6 4 4]	14	pyFR	0	TJ055
1162.485	3.392	1855405	PROB	n/a	n/a	n/a	n/a	7	[1 1 6]	8	pyFR	0	TJ055
1165.877	3.875	1858796	PROB	n/a	n/a	n/a	n/a	7	[6 6 7]	19	pyFR	0	TJ055
1169.752	7.801	1862670	PROB	n/a	n/a	n/a	n/a	7	[5 1 8]	14	pyFR	0	TJ055
1177.553	1.17	1870470	STOP	n/a	n/a	n/a	n/a	7	[-999 -999 -999]	-999	pyFR	0	TJ055
1178.723	4.149	1871639	REC_START	n/a	n/a	n/a	-999	7	n/a	n/a	pyFR	0	TJ055
1182.872	0.687	1875788	REC_WORD	0.687	n/a	SLIME	-999	7	n/a	n/a	pyFR	0	TJ055
1183.559	1.062	1876474	REC_WORD	1.062	n/a	CHIN	-999	7	n/a	n/a	pyFR	0	TJ055
1184.621	1.213	1877536	REC_WORD	1.213	n/a	COLD	-999	7	n/a	n/a	pyFR	0	TJ055
1185.834	4.414	1878749	REC_WORD	4.414	n/a	PAIL	-999	7	n/a	n/a	pyFR	0	TJ055
1190.248	1.0	1883162	REC_WORD_VV	1.0	n/a	<>	-999	7	n/a	n/a	pyFR	0	TJ055
1191.248	1.0	1884162	REC_WORD_VV	1.0	n/a	<>	-999	7	n/a	n/a	pyFR	0	TJ055
1192.248	2.416	1885162	REC_WORD_VV	2.416	n/a	<>	-999	7	n/a	n/a	pyFR	0	TJ055
1194.664	2.903	1887577	REC_WORD	2.903	n/a	APE	-999	7	n/a	n/a	pyFR	0	TJ055
1197.567	7.688	1890480	REC_WORD_VV	7.688	n/a	<>	-999	7	n/a	n/a	pyFR	0	TJ055
1205.255	1.0	1898166	REC_WORD_VV	1.0	n/a	<>	-999	7	n/a	n/a	pyFR	0	TJ055
1206.255	1.0	1899166	REC_WORD_VV	1.0	n/a	<>	-999	7	n/a	n/a	pyFR	0	TJ055
1207.255	1.0	1900166	REC_WORD_VV	1.0	n/a	<>	-999	7	n/a	n/a	pyFR	0	TJ055
1208.255	1.0	1901165	REC_WORD_VV	1.0	n/a	<>	-999	7	n/a	n/a	pyFR	0	TJ055
1209.255	199.1	1902165	REC_WORD_VV	199.1	n/a	<>	-999	7	n/a	n/a	pyFR	0	TJ055
1408.355	0.015	2101225	TRIAL	n/a	n/a	n/a	-999	8	n/a	n/a	pyFR	0	TJ055
1408.37	2.773	2101240	ORIENT	n/a	n/a	n/a	-999	8	n/a	n/a	pyFR	0	TJ055
1411.143	2.79	2104012	WORD	n/a	wordpools/wordpool_EN.txt	LAWN	1	8	n/a	n/a	pyFR	0	TJ055
1413.933	2.52	2106802	WORD	n/a	wordpools/wordpool_EN.txt	SEAT	2	8	n/a	n/a	pyFR	0	TJ055
1416.453	2.739	2109321	WORD	n/a	wordpools/wordpool_EN.txt	BOX	3	8	n/a	n/a	pyFR	0	TJ055
1419.192	2.69	2112059	WORD	n/a	wordpools/wordpool_EN.txt	DOOR	4	8	n/a	n/a	pyFR	0	TJ055
1421.882	2.672	2114749	WORD	n/a	wordpools/wordpool_EN.txt	PEACH	5	8	n/a	n/a	pyFR	0	TJ055
1424.554	2.671	2117420	WORD	n/a	wordpools/wordpool_EN.txt	SLUSH	6	8	n/a	n/a	pyFR	0	TJ055
1427.225	2.774	2120091	WORD	n/a	wordpools/wordpool_EN.txt	BELL	7	8	n/a	n/a	pyFR	0	TJ055
1429.999	2.622	2122864	WORD	n/a	wordpools/wordpool_EN.txt	CROWN	8	8	n/a	n/a	pyFR	0	TJ055
1432.621	2.637	2125486	WORD	n/a	wordpools/wordpool_EN.txt	KITE	9	8	n/a	n/a	pyFR	0	TJ055
1435.258	2.707	2128122	WORD	n/a	wordpools/wordpool_EN.txt	SWAMP	10	8	n/a	n/a	pyFR	0	TJ055
1437.965	2.454	2130829	WORD	n/a	wordpools/wordpool_EN.txt	SOCK	11	8	n/a	n/a	pyFR	0	TJ055
1440.419	2.739	2133282	WORD	n/a	wordpools/wordpool_EN.txt	CHEEK	12	8	n/a	n/a	pyFR	0	TJ055
1443.158	2.473	2136021	WORD	n/a	wordpools/wordpool_EN.txt	SAIL	13	8	n/a	n/a	pyFR	0	TJ055
1445.631	2.454	2138493	WORD	n/a	wordpools/wordpool_EN.txt	SEAL	14	8	n/a	n/a	pyFR	0	TJ055
1448.085	1.622	2140947	WORD	n/a	wordpools/wordpool_EN.txt	PASTE	15	8	n/a	n/a	pyFR	0	TJ055
1449.707	1.067	2142568	START	n/a	n/a	n/a	n/a	8	[-999 -999 -999]	-999	pyFR	0	TJ055
1450.774	5.344	2143635	PROB	n/a	n/a	n/a	n/a	8	[8 1 3]	12	pyFR	0	TJ055
1456.118	2.656	2148978	PROB	n/a	n/a	n/a	n/a	8	[6 6 6]	18	pyFR	0	TJ055
1458.774	5.879	2151633	PROB	n/a	n/a	n/a	n/a	8	[7 1 8]	16	pyFR	0	TJ055
1464.653	4.792	2157511	PROB	n/a	n/a	n/a	n/a	8	[9 4 1]	14	pyFR	0	TJ055
1469.445	4.188	2162302	PROB	n/a	n/a	n/a	n/a	8	[2 6 3]	11	pyFR	0	TJ055
1473.633	1.258	2166489	STOP	n/a	n/a	n/a	n/a	8	[-999 -999 -999]	-999	pyFR	0	TJ055
1474.891	2.89	2167747	REC_START	n/a	n/a	n/a	-999	8	n/a	n/a	pyFR	0	TJ055
1477.781	5.323	2170637	REC_WORD	5.323	n/a	SLIME	-999	8	n/a	n/a	pyFR	0	TJ055
1483.104	3.253	2175958	REC_WORD	3.253	n/a	DOOR	-999	8	n/a	n/a	pyFR	0	TJ055
1486.357	4.731	2179211	REC_WORD_VV	4.731	n/a	<>	-999	8	n/a	n/a	pyFR	0	TJ055
1491.088	1.0	2183941	REC_WORD_VV	1.0	n/a	<>	-999	8	n/a	n/a	pyFR	0	TJ055
1492.088	1.0	2184941	REC_WORD_VV	1.0	n/a	<>	-999	8	n/a	n/a	pyFR	0	TJ055
1493.088	1.0	2185940	REC_WORD_VV	1.0	n/a	<>	-999	8	n/a	n/a	pyFR	0	TJ055
1494.088	1.0	2186940	REC_WORD_VV	1.0	n/a	<>	-999	8	n/a	n/a	pyFR	0	TJ055
1495.088	1.0	2187940	REC_WORD_VV	1.0	n/a	<>	-999	8	n/a	n/a	pyFR	0	TJ055
1496.088	1.0	2188940	REC_WORD_VV	1.0	n/a	<>	-999	8	n/a	n/a	pyFR	0	TJ055
1497.088	1.0	2189940	REC_WORD_VV	1.0	n/a	<>	-999	8	n/a	n/a	pyFR	0	TJ055
1498.088	12.082	2190939	REC_WORD_VV	12.082	n/a	<>	-999	8	n/a	n/a	pyFR	0	TJ055
1510.17	1.0	2203019	REC_WORD	1.0	n/a	MOUSE	-999	8	n/a	n/a	pyFR	0	TJ055
1511.17	1.0	2204019	REC_WORD_VV	1.0	n/a	<>	-999	8	n/a	n/a	pyFR	0	TJ055
1512.17	1.496	2205019	REC_WORD_VV	1.496	n/a	<>	-999	8	n/a	n/a	pyFR	0	TJ055
1513.666	2.181	2206514	REC_WORD	2.181	n/a	MOUSE	-999	8	n/a	n/a	pyFR	0	TJ055
1515.847	142.45	2208695	REC_WORD_VV	142.45	n/a	<>	-999	8	n/a	n/a	pyFR	0	TJ055
1658.297	0.016	2351116	TRIAL	n/a	n/a	n/a	-999	9	n/a	n/a	pyFR	0	TJ055
1658.313	2.839	2351132	ORIENT	n/a	n/a	n/a	-999	9	n/a	n/a	pyFR	0	TJ055
1661.152	2.639	2353970	WORD	n/a	wordpools/wordpool_EN.txt	ZOO	1	9	n/a	n/a	pyFR	0	TJ055
1663.791	2.438	2356609	WORD	n/a	wordpools/wordpool_EN.txt	CARD	2	9	n/a	n/a	pyFR	0	TJ055
1666.229	2.473	2359046	WORD	n/a	wordpools/wordpool_EN.txt	TRAIN	3	9	n/a	n/a	pyFR	0	TJ055
1668.702	2.754	2361519	WORD	n/a	wordpools/wordpool_EN.txt	GOAT	4	9	n/a	n/a	pyFR	0	TJ055
1671.456	2.739	2364272	WORD	n/a	wordpools/wordpool_EN.txt	FUDGE	5	9	n/a	n/a	pyFR	0	TJ055
1674.195	2.54	2367011	WORD	n/a	wordpools/wordpool_EN.txt	VAN	6	9	n/a	n/a	pyFR	0	TJ055
1676.735	2.688	2369550	WORD	n/a	wordpools/wordpool_EN.txt	PEN	7	9	n/a	n/a	pyFR	0	TJ055
1679.423	2.805	2372237	WORD	n/a	wordpools/wordpool_EN.txt	PANTS	8	9	n/a	n/a	pyFR	0	TJ055
1682.228	2.69	2375042	WORD	n/a	wordpools/wordpool_EN.txt	GIRL	9	9	n/a	n/a	pyFR	0	TJ055
1684.918	2.655	2377731	WORD	n/a	wordpools/wordpool_EN.txt	SHIP	10	9	n/a	n/a	pyFR	0	TJ055
1687.573	2.755	2380386	WORD	n/a	wordpools/wordpool_EN.txt	DOLL	11	9	n/a	n/a	pyFR	0	TJ055
1690.328	2.573	2383140	WORD	n/a	wordpools/wordpool_EN.txt	HEART	12	9	n/a	n/a	pyFR	0	TJ055
1692.901	2.806	2385713	WORD	n/a	wordpools/wordpool_EN.txt	STOOL	13	9	n/a	n/a	pyFR	0	TJ055
1695.707	2.771	2388518	WORD	n/a	wordpools/wordpool_EN.txt	CLIFF	14	9	n/a	n/a	pyFR	0	TJ055
1698.478	1.621	2391289	WORD	n/a	wordpools/wordpool_EN.txt	SHELL	15	9	n/a	n/a	pyFR	0	TJ055
1700.099	0.868	2392909	START	n/a	n/a	n/a	n/a	9	[-999 -999 -999]	-999	pyFR	0	TJ055
1700.967	6.212	2393777	PROB	n/a	n/a	n/a	n/a	9	[5 8 1]	14	pyFR	0	TJ055
1707.179	3.307	2399988	PROB	n/a	n/a	n/a	n/a	9	[3 2 2]	7	pyFR	0	TJ055
1710.486	2.538	2403294	PROB	n/a	n/a	n/a	n/a	9	[9 1 1]	11	pyFR	0	TJ055
1713.024	5.01	2405832	PROB	n/a	n/a	n/a	n/a	9	[6 9 8]	23	pyFR	0	TJ055
1718.034	10.415	2410841	PROB	n/a	n/a	n/a	n/a	9	[6 9 9]	24	pyFR	0	TJ055
1728.449	1.161	2421253	STOP	n/a	n/a	n/a	n/a	9	[-999 -999 -999]	-999	pyFR	0	TJ055
1729.61	3.903	2422414	REC_START	n/a	n/a	n/a	-999	9	n/a	n/a	pyFR	0	TJ055
1733.513	1.211	2426316	REC_WORD	1.211	n/a	ZOO	-999	9	n/a	n/a	pyFR	0	TJ055
1734.724	1.068	2427527	REC_WORD_VV	1.068	n/a	<>	-999	9	n/a	n/a	pyFR	0	TJ055
1735.792	0.606	2428595	REC_WORD	0.606	n/a	CAR	-999	9	n/a	n/a	pyFR	0	TJ055
1736.398	13.37	2429201	REC_WORD	13.37	n/a	TRAIN	-999	9	n/a	n/a	pyFR	0	TJ055
1749.768	1.107	2442568	REC_WORD	1.107	n/a	STOOL	-999	9	n/a	n/a	pyFR	0	TJ055
1750.875	5.945	2443675	REC_WORD	5.945	n/a	BENCH	-999	9	n/a	n/a	pyFR	0	TJ055
1756.82	0.856	2449619	REC_WORD_VV	0.856	n/a	<>	-999	9	n/a	n/a	pyFR	0	TJ055
1757.676	7.317	2450475	REC_WORD	7.317	n/a	WHEEL	-999	9	n/a	n/a	pyFR	0	TJ055
1764.993	5.164	2457790	REC_WORD	5.164	n/a	PLEDGE	-999	9	n/a	n/a	pyFR	0	TJ055
1770.157	0.784	2462953	REC_WORD	0.784	n/a	GIRL	-999	9	n/a	n/a	pyFR	0	TJ055
1770.941	9.857	2463737	REC_WORD	9.857	n/a	PANTS	-999	9	n/a	n/a	pyFR	0	TJ055
1780.798	0.015	2473592	TRIAL	n/a	n/a	n/a	-999	10	n/a	n/a	pyFR	0	TJ055
1780.813	2.873	2473607	ORIENT	n/a	n/a	n/a	-999	10	n/a	n/a	pyFR	0	TJ055
1783.686	2.504	2476479	WORD	n/a	wordpools/wordpool_EN.txt	DRUM	1	10	n/a	n/a	pyFR	0	TJ055
1786.19	2.539	2478983	WORD	n/a	wordpools/wordpool_EN.txt	TOAD	2	10	n/a	n/a	pyFR	0	TJ055
1788.729	2.454	2481521	WORD	n/a	wordpools/wordpool_EN.txt	SALT	3	10	n/a	n/a	pyFR	0	TJ055
1791.183	2.64	2483975	WORD	n/a	wordpools/wordpool_EN.txt	RAKE	4	10	n/a	n/a	pyFR	0	TJ055
1793.823	2.571	2486614	WORD	n/a	wordpools/wordpool_EN.txt	SUN	5	10	n/a	n/a	pyFR	0	TJ055
1796.394	2.556	2489185	WORD	n/a	wordpools/wordpool_EN.txt	BOAT	6	10	n/a	n/a	pyFR	0	TJ055
1798.95	2.504	2491740	WORD	n/a	wordpools/wordpool_EN.txt	PLANT	7	10	n/a	n/a	pyFR	0	TJ055
1801.454	2.823	2494244	WORD	n/a	wordpools/wordpool_EN.txt	WHEEL	8	10	n/a	n/a	pyFR	0	TJ055
1804.277	2.473	2497066	WORD	n/a	wordpools/wordpool_EN.txt	ROSE	9	10	n/a	n/a	pyFR	0	TJ055
1806.75	2.621	2499539	WORD	n/a	wordpools/wordpool_EN.txt	LIP	10	10	n/a	n/a	pyFR	0	TJ055
1809.371	2.672	2502159	WORD	n/a	wordpools/wordpool_EN.txt	MAZE	11	10	n/a	n/a	pyFR	0	TJ055
1812.043	2.723	2504830	WORD	n/a	wordpools/wordpool_EN.txt	GEESE	12	10	n/a	n/a	pyFR	0	TJ055
1814.766	2.671	2507553	WORD	n/a	wordpools/wordpool_EN.txt	CUBE	13	10	n/a	n/a	pyFR	0	TJ055
1817.437	2.739	2510223	WORD	n/a	wordpools/wordpool_EN.txt	ANT	14	10	n/a	n/a	pyFR	0	TJ055
1820.176	1.622	2512962	WORD	n/a	wordpools/wordpool_EN.txt	HOLE	15	10	n/a	n/a	pyFR	0	TJ055
1821.798	0.951	2514583	START	n/a	n/a	n/a	n/a	10	[-999 -999 -999]	-999	pyFR	0	TJ055
1822.749	11.089	2515534	PROB	n/a	n/a	n/a	n/a	10	[7 8 5]	20	pyFR	0	TJ055
1833.838	3.123	2526621	PROB	n/a	n/a	n/a	n/a	10	[7 3 2]	12	pyFR	0	TJ055
1836.961	3.724	2529743	PROB	n/a	n/a	n/a	n/a	10	[5 5 2]	12	pyFR	0	TJ055
1840.685	5.166	2533467	PROB	n/a	n/a	n/a	n/a	10	[8 4 7]	19	pyFR	0	TJ055
1845.851	1.163	2538632	STOP	n/a	n/a	n/a	n/a	10	[-999 -999 -999]	-999	pyFR	0	TJ055
1847.014	2.419	2539794	REC_START	n/a	n/a	n/a	-999	10	n/a	n/a	pyFR	0	TJ055
1849.433	1.0	2542213	REC_WORD_VV	1.0	n/a	<>	-999	10	n/a	n/a	pyFR	0	TJ055
1850.433	3.129	2543213	REC_WORD_VV	3.129	n/a	<>	-999	10	n/a	n/a	pyFR	0	TJ055
1853.562	0.878	2546341	REC_WORD	0.878	n/a	ANT	-999	10	n/a	n/a	pyFR	0	TJ055
1854.44	5.518	2547219	REC_WORD	5.518	n/a	HOLE	-999	10	n/a	n/a	pyFR	0	TJ055
1859.958	0.772	2552736	REC_WORD	0.772	n/a	CAR	-999	10	n/a	n/a	pyFR	0	TJ055
1860.73	10.916	2553508	REC_WORD	10.916	n/a	TOOTH	-999	10	n/a	n/a	pyFR	0	TJ055
1871.646	10.969	2564421	REC_WORD	10.969	n/a	TRUNK	-999	10	n/a	n/a	pyFR	0	TJ055
1882.615	1.303	2575388	REC_WORD	1.303	n/a	WHEEL	-999	10	n/a	n/a	pyFR	0	TJ055
1883.918	35.595	2576691	REC_WORD	35.595	n/a	VAN	-999	10	n/a	n/a	pyFR	0	TJ055
1919.513	0.015	2612279	TRIAL	n/a	n/a	n/a	-999	11	n/a	n/a	pyFR	0	TJ055
1919.528	2.923	2612294	ORIENT	n/a	n/a	n/a	-999	11	n/a	n/a	pyFR	0	TJ055
1922.451	2.739	2615216	WORD	n/a	wordpools/wordpool_EN.txt	WEED	1	11	n/a	n/a	pyFR	0	TJ055
1925.19	2.506	2617954	WORD	n/a	wordpools/wordpool_EN.txt	GRASS	2	11	n/a	n/a	pyFR	0	TJ055
1927.696	2.454	2620460	WORD	n/a	wordpools/wordpool_EN.txt	COIN	3	11	n/a	n/a	pyFR	0	TJ055
1930.15	2.823	2622913	WORD	n/a	wordpools/wordpool_EN.txt	BEAN	4	11	n/a	n/a	pyFR	0	TJ055
1932.973	2.706	2625736	WORD	n/a	wordpools/wordpool_EN.txt	BOY	5	11	n/a	n/a	pyFR	0	TJ055
1935.679	2.454	2628441	WORD	n/a	wordpools/wordpool_EN.txt	WEB	6	11	n/a	n/a	pyFR	0	TJ055
1938.133	2.472	2630895	WORD	n/a	wordpools/wordpool_EN.txt	BRIDGE	7	11	n/a	n/a	pyFR	0	TJ055
1940.605	2.571	2633366	WORD	n/a	wordpools/wordpool_EN.txt	HORSE	8	11	n/a	n/a	pyFR	0	TJ055
1943.176	2.79	2635937	WORD	n/a	wordpools/wordpool_EN.txt	ELF	9	11	n/a	n/a	pyFR	0	TJ055
1945.966	2.689	2638726	WORD	n/a	wordpools/wordpool_EN.txt	BALL	10	11	n/a	n/a	pyFR	0	TJ055
1948.655	2.588	2641415	WORD	n/a	wordpools/wordpool_EN.txt	RAT	11	11	n/a	n/a	pyFR	0	TJ055
1951.243	2.623	2644002	WORD	n/a	wordpools/wordpool_EN.txt	SOAP	12	11	n/a	n/a	pyFR	0	TJ055
1953.866	2.772	2646625	WORD	n/a	wordpools/wordpool_EN.txt	STONE	13	11	n/a	n/a	pyFR	0	TJ055
1956.638	2.788	2649396	WORD	n/a	wordpools/wordpool_EN.txt	VINE	14	11	n/a	n/a	pyFR	0	TJ055
1959.426	1.621	2652183	WORD	n/a	wordpools/wordpool_EN.txt	SKUNK	15	11	n/a	n/a	pyFR	0	TJ055
1961.047	1.168	2653804	START	n/a	n/a	n/a	n/a	11	[-999 -999 -999]	-999	pyFR	0	TJ055
1962.215	12.61	2654972	PROB	n/a	n/a	n/a	n/a	11	[8 5 9]	22	pyFR	0	TJ055
1974.825	3.473	2667579	PROB	n/a	n/a	n/a	n/a	11	[1 2 7]	10	pyFR	0	TJ055
1978.298	2.984	2671052	PROB	n/a	n/a	n/a	n/a	11	[7 9 1]	17	pyFR	0	TJ055
1981.282	1.092	2674035	STOP	n/a	n/a	n/a	n/a	11	[-999 -999 -999]	-999	pyFR	0	TJ055
1982.374	2.906	2675127	REC_START	n/a	n/a	n/a	-999	11	n/a	n/a	pyFR	0	TJ055
1985.28	3.417	2678032	REC_WORD	3.417	n/a	STONE	-999	11	n/a	n/a	pyFR	0	TJ055
1988.697	4.484	2681448	REC_WORD	4.484	n/a	WHEEL	-999	11	n/a	n/a	pyFR	0	TJ055
1993.181	1.664	2685932	REC_WORD_VV	1.664	n/a	<>	-999	11	n/a	n/a	pyFR	0	TJ055
1994.845	4.401	2687595	REC_WORD	4.401	n/a	HORSE	-999	11	n/a	n/a	pyFR	0	TJ055
1999.246	1.0	2691995	REC_WORD	1.0	n/a	CAR	-999	11	n/a	n/a	pyFR	0	TJ055
2000.246	1.0	2692995	REC_WORD_VV	1.0	n/a	<>	-999	11	n/a	n/a	pyFR	0	TJ055
2001.246	1.0	2693995	REC_WORD_VV	1.0	n/a	<>	-999	11	n/a	n/a	pyFR	0	TJ055
2002.246	1.626	2694995	REC_WORD_VV	1.626	n/a	<>	-999	11	n/a	n/a	pyFR	0	TJ055
2003.872	1.231	2696620	REC_WORD_VV	1.231	n/a	<>	-999	11	n/a	n/a	pyFR	0	TJ055
2005.103	4.557	2697851	REC_WORD	4.557	n/a	TRUNK	-999	11	n/a	n/a	pyFR	0	TJ055
2009.66	1.814	2702407	REC_WORD	1.814	n/a	ELF	-999	11	n/a	n/a	pyFR	0	TJ055
2011.474	1.0	2704221	REC_WORD	1.0	n/a	ELK	-999	11	n/a	n/a	pyFR	0	TJ055
2012.474	1.0	2705221	REC_WORD_VV	1.0	n/a	<>	-999	11	n/a	n/a	pyFR	0	TJ055
2013.474	1.0	2706220	REC_WORD_VV	1.0	n/a	<>	-999	11	n/a	n/a	pyFR	0	TJ055
2014.474	1.0	2707220	REC_WORD_VV	1.0	n/a	<>	-999	11	n/a	n/a	pyFR	0	TJ055
2015.474	1.0	2708220	REC_WORD_VV	1.0	n/a	<>	-999	11	n/a	n/a	pyFR	0	TJ055
2016.474	1.0	2709220	REC_WORD_VV	1.0	n/a	<>	-999	11	n/a	n/a	pyFR	0	TJ055
2017.474	1.0	2710220	REC_WORD_VV	1.0	n/a	<>	-999	11	n/a	n/a	pyFR	0	TJ055
2018.474	1.0	2711219	REC_WORD_VV	1.0	n/a	<>	-999	11	n/a	n/a	pyFR	0	TJ055
2019.474	1.0	2712219	REC_WORD_VV	1.0	n/a	<>	-999	11	n/a	n/a	pyFR	0	TJ055
2020.474	1.0	2713219	REC_WORD_VV	1.0	n/a	<>	-999	11	n/a	n/a	pyFR	0	TJ055
2021.474	5.36	2714219	REC_WORD_VV	5.36	n/a	<>	-999	11	n/a	n/a	pyFR	0	TJ055
2026.834	262.549	2719578	REC_WORD	262.549	n/a	MAP	-999	11	n/a	n/a	pyFR	0	TJ055
2289.383	0.015	2982073	TRIAL	n/a	n/a	n/a	-999	12	n/a	n/a	pyFR	0	TJ055
2289.398	2.706	2982088	ORIENT	n/a	n/a	n/a	-999	12	n/a	n/a	pyFR	0	TJ055
2292.104	2.656	2984794	WORD	n/a	wordpools/wordpool_EN.txt	PEA	1	12	n/a	n/a	pyFR	0	TJ055
2294.76	2.454	2987449	WORD	n/a	wordpools/wordpool_EN.txt	HAND	2	12	n/a	n/a	pyFR	0	TJ055
2297.214	2.423	2989903	WORD	n/a	wordpools/wordpool_EN.txt	PIE	3	12	n/a	n/a	pyFR	0	TJ055
2299.637	2.638	2992325	WORD	n/a	wordpools/wordpool_EN.txt	MOTH	4	12	n/a	n/a	pyFR	0	TJ055
2302.275	2.656	2994963	WORD	n/a	wordpools/wordpool_EN.txt	HOOK	5	12	n/a	n/a	pyFR	0	TJ055
2304.931	2.672	2997618	WORD	n/a	wordpools/wordpool_EN.txt	BIRD	6	12	n/a	n/a	pyFR	0	TJ055
2307.603	2.604	3000289	WORD	n/a	wordpools/wordpool_EN.txt	PLANE	7	12	n/a	n/a	pyFR	0	TJ055
2310.207	2.707	3002893	WORD	n/a	wordpools/wordpool_EN.txt	TAPE	8	12	n/a	n/a	pyFR	0	TJ055
2312.914	2.655	3005599	WORD	n/a	wordpools/wordpool_EN.txt	GUARD	9	12	n/a	n/a	pyFR	0	TJ055
2315.569	2.655	3008254	WORD	n/a	wordpools/wordpool_EN.txt	SHARK	10	12	n/a	n/a	pyFR	0	TJ055
2318.224	2.489	3010908	WORD	n/a	wordpools/wordpool_EN.txt	YARD	11	12	n/a	n/a	pyFR	0	TJ055
2320.713	2.521	3013397	WORD	n/a	wordpools/wordpool_EN.txt	DOG	12	12	n/a	n/a	pyFR	0	TJ055
2323.234	2.623	3015917	WORD	n/a	wordpools/wordpool_EN.txt	JUICE	13	12	n/a	n/a	pyFR	0	TJ055
2325.857	2.705	3018540	WORD	n/a	wordpools/wordpool_EN.txt	COAT	14	12	n/a	n/a	pyFR	0	TJ055
2328.562	1.621	3021244	WORD	n/a	wordpools/wordpool_EN.txt	SEED	15	12	n/a	n/a	pyFR	0	TJ055
2330.183	1.134	3022865	START	n/a	n/a	n/a	n/a	12	[-999 -999 -999]	-999	pyFR	0	TJ055
2331.317	4.893	3023999	PROB	n/a	n/a	n/a	n/a	12	[8 2 6]	16	pyFR	0	TJ055
2336.21	5.077	3028891	PROB	n/a	n/a	n/a	n/a	12	[5 2 1]	8	pyFR	0	TJ055
2341.287	9.669	3033967	PROB	n/a	n/a	n/a	n/a	12	[5 8 9]	22	pyFR	0	TJ055
2350.956	1.171	3043634	STOP	n/a	n/a	n/a	n/a	12	[-999 -999 -999]	-999	pyFR	0	TJ055
2352.127	2.217	3044804	REC_START	n/a	n/a	n/a	-999	12	n/a	n/a	pyFR	0	TJ055
2354.344	2.999	3047021	REC_WORD_VV	2.999	n/a	<>	-999	12	n/a	n/a	pyFR	0	TJ055
2357.343	2.901	3050019	REC_WORD	2.901	n/a	SHIRT	-999	12	n/a	n/a	pyFR	0	TJ055
2360.244	1.0	3052920	REC_WORD_VV	1.0	n/a	<>	-999	12	n/a	n/a	pyFR	0	TJ055
2361.244	2.103	3053920	REC_WORD_VV	2.103	n/a	<>	-999	12	n/a	n/a	pyFR	0	TJ055
2363.347	0.768	3056022	REC_WORD_VV	0.768	n/a	<>	-999	12	n/a	n/a	pyFR	0	TJ055
2364.115	2.317	3056790	REC_WORD	2.317	n/a	TIE	-999	12	n/a	n/a	pyFR	0	TJ055
2366.432	1.0	3059107	REC_WORD_VV	1.0	n/a	<>	-999	12	n/a	n/a	pyFR	0	TJ055
2367.432	1.0	3060106	REC_WORD_VV	1.0	n/a	<>	-999	12	n/a	n/a	pyFR	0	TJ055
2368.432	11.692	3061106	REC_WORD_VV	11.692	n/a	<>	-999	12	n/a	n/a	pyFR	0	TJ055
2380.124	0.454	3072796	REC_WORD	0.454	n/a	BOOTH	-999	12	n/a	n/a	pyFR	0	TJ055
2380.578	1.735	3073250	REC_WORD	1.735	n/a	EYE	-999	12	n/a	n/a	pyFR	0	TJ055
2382.313	1.0	3074984	REC_WORD_VV	1.0	n/a	<>	-999	12	n/a	n/a	pyFR	0	TJ055
2383.313	0.93	3075984	REC_WORD_VV	0.93	n/a	<>	-999	12	n/a	n/a	pyFR	0	TJ055
2384.243	1.247	3076914	REC_WORD_VV	1.247	n/a	<>	-999	12	n/a	n/a	pyFR	0	TJ055
2385.49	3.478	3078161	REC_WORD	3.478	n/a	BOWL	-999	12	n/a	n/a	pyFR	0	TJ055
2388.968	70.663	3081638	REC_WORD	70.663	n/a	SOUP	-999	12	n/a	n/a	pyFR	0	TJ055
2459.631	0.015	3152287	TRIAL	n/a	n/a	n/a	-999	13	n/a	n/a	pyFR	0	TJ055
2459.646	2.889	3152302	ORIENT	n/a	n/a	n/a	-999	13	n/a	n/a	pyFR	0	TJ055
2462.535	2.822	3155190	WORD	n/a	wordpools/wordpool_EN.txt	BREAD	1	13	n/a	n/a	pyFR	0	TJ055
2465.357	2.456	3158011	WORD	n/a	wordpools/wordpool_EN.txt	MUD	2	13	n/a	n/a	pyFR	0	TJ055
2467.813	2.671	3160467	WORD	n/a	wordpools/wordpool_EN.txt	SPARK	3	13	n/a	n/a	pyFR	0	TJ055
2470.484	2.739	3163137	WORD	n/a	wordpools/wordpool_EN.txt	PEAR	4	13	n/a	n/a	pyFR	0	TJ055
2473.223	2.69	3165876	WORD	n/a	wordpools/wordpool_EN.txt	FLOOR	5	13	n/a	n/a	pyFR	0	TJ055
2475.913	2.789	3168565	WORD	n/a	wordpools/wordpool_EN.txt	BLOOM	6	13	n/a	n/a	pyFR	0	TJ055
2478.702	2.821	3171354	WORD	n/a	wordpools/wordpool_EN.txt	MOOSE	7	13	n/a	n/a	pyFR	0	TJ055
2481.523	2.722	3174174	WORD	n/a	wordpools/wordpool_EN.txt	TEA	8	13	n/a	n/a	pyFR	0	TJ055
2484.245	2.623	3176896	WORD	n/a	wordpools/wordpool_EN.txt	DART	9	13	n/a	n/a	pyFR	0	TJ055
2486.868	2.773	3179518	WORD	n/a	wordpools/wordpool_EN.txt	BUSH	10	13	n/a	n/a	pyFR	0	TJ055
2489.641	2.487	3182290	WORD	n/a	wordpools/wordpool_EN.txt	PIG	11	13	n/a	n/a	pyFR	0	TJ055
2492.128	2.823	3184777	WORD	n/a	wordpools/wordpool_EN.txt	SKY	12	13	n/a	n/a	pyFR	0	TJ055
2494.951	2.789	3187599	WORD	n/a	wordpools/wordpool_EN.txt	TOAST	13	13	n/a	n/a	pyFR	0	TJ055
2497.74	2.571	3190388	WORD	n/a	wordpools/wordpool_EN.txt	FISH	14	13	n/a	n/a	pyFR	0	TJ055
2500.311	1.623	3192958	WORD	n/a	wordpools/wordpool_EN.txt	SNAIL	15	13	n/a	n/a	pyFR	0	TJ055
2501.934	1.017	3194581	START	n/a	n/a	n/a	n/a	13	[-999 -999 -999]	-999	pyFR	0	TJ055
2502.951	8.199	3195598	PROB	n/a	n/a	n/a	n/a	13	[8 1 4]	13	pyFR	0	TJ055
2511.15	3.425	3203795	PROB	n/a	n/a	n/a	n/a	13	[4 6 3]	13	pyFR	0	TJ055
2514.575	5.61	3207219	PROB	n/a	n/a	n/a	n/a	13	[6 2 6]	14	pyFR	0	TJ055
2520.185	7.21	3212828	PROB	n/a	n/a	n/a	n/a	13	[1 3 5]	9	pyFR	0	TJ055
2527.395	1.092	3220037	STOP	n/a	n/a	n/a	n/a	13	[-999 -999 -999]	-999	pyFR	0	TJ055
2528.487	4.562	3221129	REC_START	n/a	n/a	n/a	-999	13	n/a	n/a	pyFR	0	TJ055
2533.049	3.458	3225690	REC_WORD	3.458	n/a	PIG	-999	13	n/a	n/a	pyFR	0	TJ055
2536.507	1.0	3229147	REC_WORD_VV	1.0	n/a	<>	-999	13	n/a	n/a	pyFR	0	TJ055
2537.507	1.243	3230147	REC_WORD_VV	1.243	n/a	<>	-999	13	n/a	n/a	pyFR	0	TJ055
2538.75	4.593	3231389	REC_WORD	4.593	n/a	MOUNT	-999	13	n/a	n/a	pyFR	0	TJ055
2543.343	1.0	3235981	REC_WORD_VV	1.0	n/a	<>	-999	13	n/a	n/a	pyFR	0	TJ055
2544.343	3.648	3236981	REC_WORD_VV	3.648	n/a	<>	-999	13	n/a	n/a	pyFR	0	TJ055
2547.991	3.917	3240629	REC_WORD	3.917	n/a	YARD	-999	13	n/a	n/a	pyFR	0	TJ055
2551.908	6.45	3244545	REC_WORD	6.45	n/a	SAIL	-999	13	n/a	n/a	pyFR	0	TJ055
2558.358	5.859	3250993	REC_WORD	5.859	n/a	CAR	-999	13	n/a	n/a	pyFR	0	TJ055
2564.217	1.658	3256851	REC_WORD	1.658	n/a	BOY	-999	13	n/a	n/a	pyFR	0	TJ055
2565.875	4.234	3258509	REC_WORD	4.234	n/a	SMALL	-999	13	n/a	n/a	pyFR	0	TJ055
2570.109	20.237	3262742	REC_WORD	20.237	n/a	TAIL	-999	13	n/a	n/a	pyFR	0	TJ055
2590.346	0.016	3282975	TRIAL	n/a	n/a	n/a	-999	14	n/a	n/a	pyFR	0	TJ055
2590.362	2.872	3282991	ORIENT	n/a	n/a	n/a	-999	14	n/a	n/a	pyFR	0	TJ055
2593.234	2.656	3285862	WORD	n/a	wordpools/wordpool_EN.txt	ROOF	1	14	n/a	n/a	pyFR	0	TJ055
2595.89	2.723	3288518	WORD	n/a	wordpools/wordpool_EN.txt	STEAM	2	14	n/a	n/a	pyFR	0	TJ055
2598.613	2.754	3291240	WORD	n/a	wordpools/wordpool_EN.txt	BRICK	3	14	n/a	n/a	pyFR	0	TJ055
2601.367	2.49	3293994	WORD	n/a	wordpools/wordpool_EN.txt	STOVE	4	14	n/a	n/a	pyFR	0	TJ055
2603.857	2.554	3296483	WORD	n/a	wordpools/wordpool_EN.txt	BRUSH	5	14	n/a	n/a	pyFR	0	TJ055
2606.411	2.439	3299037	WORD	n/a	wordpools/wordpool_EN.txt	DITCH	6	14	n/a	n/a	pyFR	0	TJ055
2608.85	2.757	3301475	WORD	n/a	wordpools/wordpool_EN.txt	SMILE	7	14	n/a	n/a	pyFR	0	TJ055
2611.607	2.536	3304232	WORD	n/a	wordpools/wordpool_EN.txt	OAR	8	14	n/a	n/a	pyFR	0	TJ055
2614.143	2.556	3306767	WORD	n/a	wordpools/wordpool_EN.txt	CHALK	9	14	n/a	n/a	pyFR	0	TJ055
2616.699	2.822	3309323	WORD	n/a	wordpools/wordpool_EN.txt	GATE	10	14	n/a	n/a	pyFR	0	TJ055
2619.521	2.588	3312144	WORD	n/a	wordpools/wordpool_EN.txt	SWORD	11	14	n/a	n/a	pyFR	0	TJ055
2622.109	2.523	3314731	WORD	n/a	wordpools/wordpool_EN.txt	FORT	12	14	n/a	n/a	pyFR	0	TJ055
2624.632	2.605	3317254	WORD	n/a	wordpools/wordpool_EN.txt	JUDGE	13	14	n/a	n/a	pyFR	0	TJ055
2627.237	2.839	3319858	WORD	n/a	wordpools/wordpool_EN.txt	TANK	14	14	n/a	n/a	pyFR	0	TJ055
2630.076	1.622	3322697	WORD	n/a	wordpools/wordpool_EN.txt	JAIL	15	14	n/a	n/a	pyFR	0	TJ055
2631.698	0.833	3324318	START	n/a	n/a	n/a	n/a	14	[-999 -999 -999]	-999	pyFR	0	TJ055
2632.531	5.711	3325151	PROB	n/a	n/a	n/a	n/a	14	[1 6 5]	12	pyFR	0	TJ055
2638.242	5.613	3330861	PROB	n/a	n/a	n/a	n/a	14	[8 4 3]	17	pyFR	0	TJ055
2643.855	7.397	3336473	PROB	n/a	n/a	n/a	n/a	14	[6 2 5]	13	pyFR	0	TJ055
2651.252	4.44	3343869	PROB	n/a	n/a	n/a	n/a	14	[4 1 9]	14	pyFR	0	TJ055
2655.692	1.19	3348308	STOP	n/a	n/a	n/a	n/a	14	[-999 -999 -999]	-999	pyFR	0	TJ055
2656.882	4.435	3349497	REC_START	n/a	n/a	n/a	-999	14	n/a	n/a	pyFR	0	TJ055
2661.317	3.173	3353931	REC_WORD	3.173	n/a	GATE	-999	14	n/a	n/a	pyFR	0	TJ055
2664.49	6.901	3357104	REC_WORD	6.901	n/a	SAIL	-999	14	n/a	n/a	pyFR	0	TJ055
2671.391	1.0	3364003	REC_WORD_VV	1.0	n/a	<>	-999	14	n/a	n/a	pyFR	0	TJ055
2672.391	4.611	3365003	REC_WORD_VV	4.611	n/a	<>	-999	14	n/a	n/a	pyFR	0	TJ055
2677.002	5.231	3369613	REC_WORD	5.231	n/a	BOAT	-999	14	n/a	n/a	pyFR	0	TJ055
2682.233	4.041	3374843	REC_WORD	4.041	n/a	YARD	-999	14	n/a	n/a	pyFR	0	TJ055
2686.274	3.456	3378883	REC_WORD	3.456	n/a	HOUSE	-999	14	n/a	n/a	pyFR	0	TJ055
2689.73	7.883	3382339	REC_WORD	7.883	n/a	WINDOW	-999	14	n/a	n/a	pyFR	0	TJ055
2697.613	3.269	3390220	REC_WORD	3.269	n/a	SNAIL	-999	14	n/a	n/a	pyFR	0	TJ055
2700.882	17.71	3393488	REC_WORD_VV	17.71	n/a	<>	-999	14	n/a	n/a	pyFR	0	TJ055
2718.592	0.015	3411195	TRIAL	n/a	n/a	n/a	-999	15	n/a	n/a	pyFR	0	TJ055
2718.607	3.023	3411210	ORIENT	n/a	n/a	n/a	-999	15	n/a	n/a	pyFR	0	TJ055
2721.63	2.688	3414232	WORD	n/a	wordpools/wordpool_EN.txt	PIN	1	15	n/a	n/a	pyFR	0	TJ055
2724.318	2.822	3416920	WORD	n/a	wordpools/wordpool_EN.txt	WHALE	2	15	n/a	n/a	pyFR	0	TJ055
2727.14	2.606	3419741	WORD	n/a	wordpools/wordpool_EN.txt	CORD	3	15	n/a	n/a	pyFR	0	TJ055
2729.746	2.705	3422347	WORD	n/a	wordpools/wordpool_EN.txt	TOY	4	15	n/a	n/a	pyFR	0	TJ055
2732.451	2.639	3425051	WORD	n/a	wordpools/wordpool_EN.txt	CALF	5	15	n/a	n/a	pyFR	0	TJ055
2735.09	2.522	3427689	WORD	n/a	wordpools/wordpool_EN.txt	ROOM	6	15	n/a	n/a	pyFR	0	TJ055
2737.612	2.705	3430211	WORD	n/a	wordpools/wordpool_EN.txt	FAN	7	15	n/a	n/a	pyFR	0	TJ055
2740.317	2.439	3432915	WORD	n/a	wordpools/wordpool_EN.txt	ROOT	8	15	n/a	n/a	pyFR	0	TJ055
2742.756	2.655	3435354	WORD	n/a	wordpools/wordpool_EN.txt	SHIELD	9	15	n/a	n/a	pyFR	0	TJ055
2745.411	2.506	3438008	WORD	n/a	wordpools/wordpool_EN.txt	WALL	10	15	n/a	n/a	pyFR	0	TJ055
2747.917	2.454	3440514	WORD	n/a	wordpools/wordpool_EN.txt	STORM	11	15	n/a	n/a	pyFR	0	TJ055
2750.371	2.739	3442967	WORD	n/a	wordpools/wordpool_EN.txt	DRESS	12	15	n/a	n/a	pyFR	0	TJ055
2753.11	2.539	3445706	WORD	n/a	wordpools/wordpool_EN.txt	MOUTH	13	15	n/a	n/a	pyFR	0	TJ055
2755.649	2.805	3448244	WORD	n/a	wordpools/wordpool_EN.txt	CLAY	14	15	n/a	n/a	pyFR	0	TJ055
2758.454	1.621	3451049	WORD	n/a	wordpools/wordpool_EN.txt	DUCK	15	15	n/a	n/a	pyFR	0	TJ055
2760.075	1.101	3452669	START	n/a	n/a	n/a	n/a	15	[-999 -999 -999]	-999	pyFR	0	TJ055
2761.176	7.567	3453770	PROB	n/a	n/a	n/a	n/a	15	[1 3 8]	12	pyFR	0	TJ055
2768.743	2.654	3461336	PROB	n/a	n/a	n/a	n/a	15	[8 8 1]	17	pyFR	0	TJ055
2771.397	3.191	3463989	PROB	n/a	n/a	n/a	n/a	15	[3 7 5]	15	pyFR	0	TJ055
2774.588	4.475	3467179	PROB	n/a	n/a	n/a	n/a	15	[7 6 1]	14	pyFR	0	TJ055
2779.063	7.762	3471653	PROB	n/a	n/a	n/a	n/a	15	[8 6 9]	23	pyFR	0	TJ055
2786.825	1.207	3479414	STOP	n/a	n/a	n/a	n/a	15	[-999 -999 -999]	-999	pyFR	0	TJ055
2788.032	2.158	3480621	REC_START	n/a	n/a	n/a	-999	15	n/a	n/a	pyFR	0	TJ055
2790.19	6.108	3482778	REC_WORD_VV	6.108	n/a	<>	-999	15	n/a	n/a	pyFR	0	TJ055
2796.298	0.58	3488885	REC_WORD	0.58	n/a	BOOK	-999	15	n/a	n/a	pyFR	0	TJ055
2796.878	0.891	3489465	REC_WORD	0.891	n/a	ROOM	-999	15	n/a	n/a	pyFR	0	TJ055
2797.769	1.562	3490356	REC_WORD	1.562	n/a	SAIL	-999	15	n/a	n/a	pyFR	0	TJ055
2799.331	1.0	3491917	REC_WORD_VV	1.0	n/a	<>	-999	15	n/a	n/a	pyFR	0	TJ055
2800.331	3.113	3492917	REC_WORD_VV	3.113	n/a	<>	-999	15	n/a	n/a	pyFR	0	TJ055
2803.444	36.694	3496030	REC_WORD	36.694	n/a	CAR	-999	15	n/a	n/a	pyFR	0	TJ055
2840.138	0.016	3532716	TRIAL	n/a	n/a	n/a	-999	16	n/a	n/a	pyFR	0	TJ055
2840.154	2.69	3532732	ORIENT	n/a	n/a	n/a	-999	16	n/a	n/a	pyFR	0	TJ055
2842.844	2.671	3535421	WORD	n/a	wordpools/wordpool_EN.txt	FLAG	1	16	n/a	n/a	pyFR	0	TJ055
2845.515	2.555	3538092	WORD	n/a	wordpools/wordpool_EN.txt	CRANE	2	16	n/a	n/a	pyFR	0	TJ055
2848.07	2.623	3540646	WORD	n/a	wordpools/wordpool_EN.txt	DOCK	3	16	n/a	n/a	pyFR	0	TJ055
2850.693	2.471	3543269	WORD	n/a	wordpools/wordpool_EN.txt	HOUSE	4	16	n/a	n/a	pyFR	0	TJ055
2853.164	2.522	3545739	WORD	n/a	wordpools/wordpool_EN.txt	COUCH	5	16	n/a	n/a	pyFR	0	TJ055
2855.686	2.772	3548261	WORD	n/a	wordpools/wordpool_EN.txt	CAVE	6	16	n/a	n/a	pyFR	0	TJ055
2858.458	2.755	3551032	WORD	n/a	wordpools/wordpool_EN.txt	PHONE	7	16	n/a	n/a	pyFR	0	TJ055
2861.213	2.623	3553787	WORD	n/a	wordpools/wordpool_EN.txt	KING	8	16	n/a	n/a	pyFR	0	TJ055
2863.836	2.789	3556409	WORD	n/a	wordpools/wordpool_EN.txt	LAMB	9	16	n/a	n/a	pyFR	0	TJ055
2866.625	2.488	3559198	WORD	n/a	wordpools/wordpool_EN.txt	BADGE	10	16	n/a	n/a	pyFR	0	TJ055
2869.113	2.606	3561685	WORD	n/a	wordpools/wordpool_EN.txt	CAGE	11	16	n/a	n/a	pyFR	0	TJ055
2871.719	2.655	3564291	WORD	n/a	wordpools/wordpool_EN.txt	PALM	12	16	n/a	n/a	pyFR	0	TJ055
2874.374	2.755	3566945	WORD	n/a	wordpools/wordpool_EN.txt	TRASH	13	16	n/a	n/a	pyFR	0	TJ055
2877.129	2.473	3569699	WORD	n/a	wordpools/wordpool_EN.txt	BLUSH	14	16	n/a	n/a	pyFR	0	TJ055
2879.602	1.62	3572172	WORD	n/a	wordpools/wordpool_EN.txt	OWL	15	16	n/a	n/a	pyFR	0	TJ055
2881.222	1.001	3573792	START	n/a	n/a	n/a	n/a	16	[-999 -999 -999]	-999	pyFR	0	TJ055
2882.223	4.96	3574792	PROB	n/a	n/a	n/a	n/a	16	[4 5 1]	10	pyFR	0	TJ055
2887.183	4.777	3579751	PROB	n/a	n/a	n/a	n/a	16	[3 8 6]	17	pyFR	0	TJ055
2891.96	3.189	3584527	PROB	n/a	n/a	n/a	n/a	16	[6 1 7]	14	pyFR	0	TJ055
2895.149	3.742	3587716	PROB	n/a	n/a	n/a	n/a	16	[5 4 1]	10	pyFR	0	TJ055
2898.891	8.209	3591457	PROB	n/a	n/a	n/a	n/a	16	[6 1 8]	15	pyFR	0	TJ055
2907.1	1.11	3599664	STOP	n/a	n/a	n/a	n/a	16	[-999 -999 -999]	-999	pyFR	0	TJ055
2908.21	3.551	3600774	REC_START	n/a	n/a	n/a	-999	16	n/a	n/a	pyFR	0	TJ055
2911.761	4.337	3604324	REC_WORD_VV	4.337	n/a	<>	-999	16	n/a	n/a	pyFR	0	TJ055
2916.098	1.167	3608661	REC_WORD	1.167	n/a	CRANE	-999	16	n/a	n/a	pyFR	0	TJ055
2917.265	9.14	3609827	REC_WORD	9.14	n/a	BIRD	-999	16	n/a	n/a	pyFR	0	TJ055
2926.405	1.106	3618965	REC_WORD	1.106	n/a	BOWL	-999	16	n/a	n/a	pyFR	0	TJ055
2927.511	1.28	3620071	REC_WORD	1.28	n/a	DOCK	-999	16	n/a	n/a	pyFR	0	TJ055
2928.791	2.951	3621351	REC_WORD	2.951	n/a	HOUSE	-999	16	n/a	n/a	pyFR	0	TJ055
2931.742	3.908	3624301	REC_WORD_VV	3.908	n/a	<>	-999	16	n/a	n/a	pyFR	0	TJ055
2935.65	1.189	3628209	REC_WORD	1.189	n/a	SOFA	-999	16	n/a	n/a	pyFR	0	TJ055
2936.839	1.0	3629397	REC_WORD	1.0	n/a	COUCH	-999	16	n/a	n/a	pyFR	0	TJ055
2937.839	1.0	3630397	REC_WORD_VV	1.0	n/a	<>	-999	16	n/a	n/a	pyFR	0	TJ055
2938.839	2.47	3631397	REC_WORD_VV	2.47	n/a	<>	-999	16	n/a	n/a	pyFR	0	TJ055
2941.309	1.801	3633866	REC_WORD	1.801	n/a	SNAIL	-999	16	n/a	n/a	pyFR	0	TJ055
2943.11	2.085	3635667	REC_WORD	2.085	n/a	YARD	-999	16	n/a	n/a	pyFR	0	TJ055
2945.195	2.972	3637752	REC_WORD_VV	2.972	n/a	<>	-999	16	n/a	n/a	pyFR	0	TJ055
2948.167	0.0	3640723	REC_WORD_VV	0.0	n/a	<>	-999	16	n/a	n/a	pyFR	0	TJ055
