onset	duration	sample	trial_type	response_time	stim_file	item_name	serialpos	list	test	answer	experiment	session	subject
0.0	0.0	90583	SESS_START	n/a	n/a	n/a	-999	-999	n/a	n/a	pyFR	6	TJ041
0.0	22.674	90583	B	n/a	n/a	n/a	-999	-999	n/a	n/a	pyFR	6	TJ041
22.674	0.01	113257	START	n/a	n/a	n/a	n/a	0	[-999 -999 -999]	-999	pyFR	6	TJ041
22.684	8.246	113267	PROB	8.22	n/a	n/a	n/a	0	[8 9 3]	20	pyFR	6	TJ041
30.93	2.89	121512	PROB	2.862	n/a	n/a	n/a	0	[7 8 8]	23	pyFR	6	TJ041
33.82	3.889	124402	PROB	3.86	n/a	n/a	n/a	0	[7 9 6]	22	pyFR	6	TJ041
37.709	2.67	128291	PROB	2.642	n/a	n/a	n/a	0	[9 8 5]	22	pyFR	6	TJ041
40.379	3.039	130961	PROB	3.004	n/a	n/a	n/a	0	[4 2 4]	10	pyFR	6	TJ041
43.418	2.621	134000	PROB	2.589	n/a	n/a	n/a	0	[2 3 6]	11	pyFR	6	TJ041
46.039	3.322	136621	PROB	3.288	n/a	n/a	n/a	0	[7 8 4]	19	pyFR	6	TJ041
49.361	2.539	139943	PROB	2.519	n/a	n/a	n/a	0	[5 3 7]	15	pyFR	6	TJ041
51.9	2.467	142482	PROB	2.467	n/a	n/a	n/a	0	[6 7 4]	17	pyFR	6	TJ041
54.367	38.117	144949	STOP	n/a	n/a	n/a	n/a	0	[-999 -999 -999]	-999	pyFR	6	TJ041
92.484	0.016	183065	TRIAL	n/a	n/a	n/a	-999	1	n/a	n/a	pyFR	6	TJ041
92.5	2.872	183081	ORIENT	n/a	n/a	n/a	-999	1	n/a	n/a	pyFR	6	TJ041
95.372	2.671	185952	WORD	n/a	wordpools/wordpool_EN.txt	AXE	1	1	n/a	n/a	pyFR	6	TJ041
98.043	2.472	188623	WORD	n/a	wordpools/wordpool_EN.txt	STAR	2	1	n/a	n/a	pyFR	6	TJ041
100.515	2.637	191095	WORD	n/a	wordpools/wordpool_EN.txt	RAIN	3	1	n/a	n/a	pyFR	6	TJ041
103.152	2.472	193732	WORD	n/a	wordpools/wordpool_EN.txt	ROOM	4	1	n/a	n/a	pyFR	6	TJ041
105.624	2.703	196204	WORD	n/a	wordpools/wordpool_EN.txt	BEAK	5	1	n/a	n/a	pyFR	6	TJ041
108.327	2.572	198907	WORD	n/a	wordpools/wordpool_EN.txt	GOLD	6	1	n/a	n/a	pyFR	6	TJ041
110.899	2.437	201479	WORD	n/a	wordpools/wordpool_EN.txt	BEACH	7	1	n/a	n/a	pyFR	6	TJ041
113.336	2.572	203916	WORD	n/a	wordpools/wordpool_EN.txt	RAKE	8	1	n/a	n/a	pyFR	6	TJ041
115.908	2.804	206488	WORD	n/a	wordpools/wordpool_EN.txt	RUG	9	1	n/a	n/a	pyFR	6	TJ041
118.712	2.805	209292	WORD	n/a	wordpools/wordpool_EN.txt	FARM	10	1	n/a	n/a	pyFR	6	TJ041
121.517	2.453	212097	WORD	n/a	wordpools/wordpool_EN.txt	FORK	11	1	n/a	n/a	pyFR	6	TJ041
123.97	2.706	214550	WORD	n/a	wordpools/wordpool_EN.txt	WOLF	12	1	n/a	n/a	pyFR	6	TJ041
126.676	2.654	217255	WORD	n/a	wordpools/wordpool_EN.txt	FROG	13	1	n/a	n/a	pyFR	6	TJ041
129.33	2.505	219909	WORD	n/a	wordpools/wordpool_EN.txt	ARM	14	1	n/a	n/a	pyFR	6	TJ041
131.835	1.619	222414	WORD	n/a	wordpools/wordpool_EN.txt	MUG	15	1	n/a	n/a	pyFR	6	TJ041
133.454	1.152	224033	START	n/a	n/a	n/a	n/a	1	[-999 -999 -999]	-999	pyFR	6	TJ041
134.606	4.958	225185	PROB	4.933	n/a	n/a	n/a	1	[6 9 9]	24	pyFR	6	TJ041
139.564	2.871	230143	PROB	2.845	n/a	n/a	n/a	1	[9 4 9]	22	pyFR	6	TJ041
142.435	3.004	233014	PROB	2.967	n/a	n/a	n/a	1	[5 2 7]	14	pyFR	6	TJ041
145.439	2.972	236018	PROB	2.947	n/a	n/a	n/a	1	[5 3 5]	13	pyFR	6	TJ041
148.411	3.474	238990	PROB	3.448	n/a	n/a	n/a	1	[5 5 8]	18	pyFR	6	TJ041
151.885	2.982	242464	PROB	2.982	n/a	n/a	n/a	1	[5 9 6]	20	pyFR	6	TJ041
154.867	1.058	245446	STOP	n/a	n/a	n/a	n/a	1	[-999 -999 -999]	-999	pyFR	6	TJ041
155.925	2.318	246504	REC_START	n/a	n/a	n/a	-999	1	n/a	n/a	pyFR	6	TJ041
158.243	1.425	248821	REC_WORD	2.318	n/a	STAR	-999	1	n/a	n/a	pyFR	6	TJ041
159.668	1.349	250246	REC_WORD	3.743	n/a	RAKE	-999	1	n/a	n/a	pyFR	6	TJ041
161.017	2.907	251595	REC_WORD	5.092	n/a	ARM	-999	1	n/a	n/a	pyFR	6	TJ041
163.924	1.308	254502	REC_WORD	7.999	n/a	FORK	-999	1	n/a	n/a	pyFR	6	TJ041
165.232	1.251	255810	REC_WORD	9.307	n/a	BEACH	-999	1	n/a	n/a	pyFR	6	TJ041
166.483	13.242	257061	REC_WORD	10.558	n/a	FARM	-999	1	n/a	n/a	pyFR	6	TJ041
179.725	27.036	270303	REC_WORD	23.8	n/a	MUG	-999	1	n/a	n/a	pyFR	6	TJ041
206.761	0.016	297338	TRIAL	n/a	n/a	n/a	-999	2	n/a	n/a	pyFR	6	TJ041
206.777	2.939	297354	ORIENT	n/a	n/a	n/a	-999	2	n/a	n/a	pyFR	6	TJ041
209.716	2.821	300293	WORD	n/a	wordpools/wordpool_EN.txt	EAR	1	2	n/a	n/a	pyFR	6	TJ041
212.537	2.57	303114	WORD	n/a	wordpools/wordpool_EN.txt	TREE	2	2	n/a	n/a	pyFR	6	TJ041
215.107	2.739	305684	WORD	n/a	wordpools/wordpool_EN.txt	ROPE	3	2	n/a	n/a	pyFR	6	TJ041
217.846	2.653	308423	WORD	n/a	wordpools/wordpool_EN.txt	SHOE	4	2	n/a	n/a	pyFR	6	TJ041
220.499	2.705	311076	WORD	n/a	wordpools/wordpool_EN.txt	MOUSE	5	2	n/a	n/a	pyFR	6	TJ041
223.204	2.622	313780	WORD	n/a	wordpools/wordpool_EN.txt	JUICE	6	2	n/a	n/a	pyFR	6	TJ041
225.826	2.503	316402	WORD	n/a	wordpools/wordpool_EN.txt	GRASS	7	2	n/a	n/a	pyFR	6	TJ041
228.329	2.472	318905	WORD	n/a	wordpools/wordpool_EN.txt	KING	8	2	n/a	n/a	pyFR	6	TJ041
230.801	2.453	321377	WORD	n/a	wordpools/wordpool_EN.txt	ELF	9	2	n/a	n/a	pyFR	6	TJ041
233.254	2.822	323830	WORD	n/a	wordpools/wordpool_EN.txt	BAT	10	2	n/a	n/a	pyFR	6	TJ041
236.076	2.688	326652	WORD	n/a	wordpools/wordpool_EN.txt	CHAIR	11	2	n/a	n/a	pyFR	6	TJ041
238.764	2.604	329340	WORD	n/a	wordpools/wordpool_EN.txt	BENCH	12	2	n/a	n/a	pyFR	6	TJ041
241.368	2.638	331944	WORD	n/a	wordpools/wordpool_EN.txt	CHIEF	13	2	n/a	n/a	pyFR	6	TJ041
244.006	2.789	334582	WORD	n/a	wordpools/wordpool_EN.txt	JEEP	14	2	n/a	n/a	pyFR	6	TJ041
246.795	1.619	337371	WORD	n/a	wordpools/wordpool_EN.txt	FILM	15	2	n/a	n/a	pyFR	6	TJ041
248.414	0.967	338990	START	n/a	n/a	n/a	n/a	2	[-999 -999 -999]	-999	pyFR	6	TJ041
249.381	3.84	339957	PROB	3.817	n/a	n/a	n/a	2	[9 3 1]	13	pyFR	6	TJ041
253.221	3.473	343797	PROB	3.442	n/a	n/a	n/a	2	[6 3 9]	18	pyFR	6	TJ041
256.694	3.907	347269	PROB	3.873	n/a	n/a	n/a	2	[7 1 8]	16	pyFR	6	TJ041
260.601	2.737	351176	PROB	2.709	n/a	n/a	n/a	2	[2 3 7]	12	pyFR	6	TJ041
263.338	3.24	353913	PROB	3.205	n/a	n/a	n/a	2	[7 3 7]	17	pyFR	6	TJ041
266.578	3.492	357153	PROB	3.492	n/a	n/a	n/a	2	[9 6 1]	16	pyFR	6	TJ041
270.07	1.445	360645	STOP	n/a	n/a	n/a	n/a	2	[-999 -999 -999]	-999	pyFR	6	TJ041
271.515	2.76	362090	REC_START	n/a	n/a	n/a	-999	2	n/a	n/a	pyFR	6	TJ041
274.275	1.074	364850	REC_WORD	2.76	n/a	KING	-999	2	n/a	n/a	pyFR	6	TJ041
275.349	2.742	365924	REC_WORD	3.834	n/a	BENCH	-999	2	n/a	n/a	pyFR	6	TJ041
278.091	1.011	368666	REC_WORD	6.576	n/a	ELF	-999	2	n/a	n/a	pyFR	6	TJ041
279.102	40.097	369677	REC_WORD	7.587	n/a	MOUSE	-999	2	n/a	n/a	pyFR	6	TJ041
319.199	0.016	409773	TRIAL	n/a	n/a	n/a	-999	3	n/a	n/a	pyFR	6	TJ041
319.215	2.656	409789	ORIENT	n/a	n/a	n/a	-999	3	n/a	n/a	pyFR	6	TJ041
321.871	2.771	412444	WORD	n/a	wordpools/wordpool_EN.txt	COAT	1	3	n/a	n/a	pyFR	6	TJ041
324.642	2.637	415215	WORD	n/a	wordpools/wordpool_EN.txt	DART	2	3	n/a	n/a	pyFR	6	TJ041
327.279	2.505	417852	WORD	n/a	wordpools/wordpool_EN.txt	SPARK	3	3	n/a	n/a	pyFR	6	TJ041
329.784	2.437	420357	WORD	n/a	wordpools/wordpool_EN.txt	CASH	4	3	n/a	n/a	pyFR	6	TJ041
332.221	2.672	422794	WORD	n/a	wordpools/wordpool_EN.txt	BEAR	5	3	n/a	n/a	pyFR	6	TJ041
334.893	2.838	425466	WORD	n/a	wordpools/wordpool_EN.txt	SNOW	6	3	n/a	n/a	pyFR	6	TJ041
337.731	2.571	428304	WORD	n/a	wordpools/wordpool_EN.txt	CHALK	7	3	n/a	n/a	pyFR	6	TJ041
340.302	2.605	430875	WORD	n/a	wordpools/wordpool_EN.txt	OWL	8	3	n/a	n/a	pyFR	6	TJ041
342.907	2.771	433480	WORD	n/a	wordpools/wordpool_EN.txt	HOOF	9	3	n/a	n/a	pyFR	6	TJ041
345.678	2.47	436251	WORD	n/a	wordpools/wordpool_EN.txt	SHELL	10	3	n/a	n/a	pyFR	6	TJ041
348.148	2.588	438721	WORD	n/a	wordpools/wordpool_EN.txt	HORSE	11	3	n/a	n/a	pyFR	6	TJ041
350.736	2.772	441309	WORD	n/a	wordpools/wordpool_EN.txt	JUDGE	12	3	n/a	n/a	pyFR	6	TJ041
353.508	2.536	444080	WORD	n/a	wordpools/wordpool_EN.txt	SHEEP	13	3	n/a	n/a	pyFR	6	TJ041
356.044	2.454	446616	WORD	n/a	wordpools/wordpool_EN.txt	BRUSH	14	3	n/a	n/a	pyFR	6	TJ041
358.498	1.621	449070	WORD	n/a	wordpools/wordpool_EN.txt	LEAF	15	3	n/a	n/a	pyFR	6	TJ041
360.119	1.151	450691	START	n/a	n/a	n/a	n/a	3	[-999 -999 -999]	-999	pyFR	6	TJ041
361.27	3.473	451842	PROB	3.435	n/a	n/a	n/a	3	[8 2 3]	13	pyFR	6	TJ041
364.743	2.703	455315	PROB	2.681	n/a	n/a	n/a	3	[1 6 8]	15	pyFR	6	TJ041
367.446	3.074	458018	PROB	3.049	n/a	n/a	n/a	3	[9 8 1]	18	pyFR	6	TJ041
370.52	4.073	461092	PROB	4.041	n/a	n/a	n/a	3	[7 2 9]	18	pyFR	6	TJ041
374.593	3.222	465165	PROB	3.2	n/a	n/a	n/a	3	[1 1 6]	8	pyFR	6	TJ041
377.815	2.802	468387	PROB	2.802	n/a	n/a	n/a	3	[1 6 1]	8	pyFR	6	TJ041
380.617	1.189	471189	STOP	n/a	n/a	n/a	n/a	3	[-999 -999 -999]	-999	pyFR	6	TJ041
381.806	2.385	472378	REC_START	n/a	n/a	n/a	-999	3	n/a	n/a	pyFR	6	TJ041
384.191	1.242	474763	REC_WORD	2.385	n/a	COAT	-999	3	n/a	n/a	pyFR	6	TJ041
385.433	1.361	476004	REC_WORD	3.627	n/a	DART	-999	3	n/a	n/a	pyFR	6	TJ041
386.794	1.796	477365	REC_WORD	4.988	n/a	DASH	-999	3	n/a	n/a	pyFR	6	TJ041
388.59	41.163	479161	REC_WORD	6.784	n/a	SNOW	-999	3	n/a	n/a	pyFR	6	TJ041
429.753	0.016	520323	TRIAL	n/a	n/a	n/a	-999	4	n/a	n/a	pyFR	6	TJ041
429.769	2.788	520339	ORIENT	n/a	n/a	n/a	-999	4	n/a	n/a	pyFR	6	TJ041
432.557	2.787	523127	WORD	n/a	wordpools/wordpool_EN.txt	TRUCK	1	4	n/a	n/a	pyFR	6	TJ041
435.344	2.571	525914	WORD	n/a	wordpools/wordpool_EN.txt	TAIL	2	4	n/a	n/a	pyFR	6	TJ041
437.915	2.588	528485	WORD	n/a	wordpools/wordpool_EN.txt	TEETH	3	4	n/a	n/a	pyFR	6	TJ041
440.503	2.721	531073	WORD	n/a	wordpools/wordpool_EN.txt	MOTH	4	4	n/a	n/a	pyFR	6	TJ041
443.224	2.422	533794	WORD	n/a	wordpools/wordpool_EN.txt	WHALE	5	4	n/a	n/a	pyFR	6	TJ041
445.646	2.804	536216	WORD	n/a	wordpools/wordpool_EN.txt	RAT	6	4	n/a	n/a	pyFR	6	TJ041
448.45	2.654	539020	WORD	n/a	wordpools/wordpool_EN.txt	STICK	7	4	n/a	n/a	pyFR	6	TJ041
451.104	2.605	541673	WORD	n/a	wordpools/wordpool_EN.txt	EGG	8	4	n/a	n/a	pyFR	6	TJ041
453.709	2.503	544278	WORD	n/a	wordpools/wordpool_EN.txt	COUCH	9	4	n/a	n/a	pyFR	6	TJ041
456.212	2.789	546781	WORD	n/a	wordpools/wordpool_EN.txt	MILK	10	4	n/a	n/a	pyFR	6	TJ041
459.001	2.454	549570	WORD	n/a	wordpools/wordpool_EN.txt	CONE	11	4	n/a	n/a	pyFR	6	TJ041
461.455	2.821	552024	WORD	n/a	wordpools/wordpool_EN.txt	STEM	12	4	n/a	n/a	pyFR	6	TJ041
464.276	2.539	554845	WORD	n/a	wordpools/wordpool_EN.txt	PEARL	13	4	n/a	n/a	pyFR	6	TJ041
466.815	2.47	557384	WORD	n/a	wordpools/wordpool_EN.txt	BREAD	14	4	n/a	n/a	pyFR	6	TJ041
469.285	1.604	559854	WORD	n/a	wordpools/wordpool_EN.txt	CAPE	15	4	n/a	n/a	pyFR	6	TJ041
470.889	1.167	561458	START	n/a	n/a	n/a	n/a	4	[-999 -999 -999]	-999	pyFR	6	TJ041
472.056	4.307	562625	PROB	4.269	n/a	n/a	n/a	4	[6 7 5]	18	pyFR	6	TJ041
476.363	4.073	566932	PROB	4.051	n/a	n/a	n/a	4	[3 2 7]	12	pyFR	6	TJ041
480.436	3.157	571005	PROB	3.131	n/a	n/a	n/a	4	[5 7 9]	21	pyFR	6	TJ041
483.593	4.157	574161	PROB	4.134	n/a	n/a	n/a	4	[8 4 4]	16	pyFR	6	TJ041
487.75	3.889	578318	PROB	3.889	n/a	n/a	n/a	4	[6 9 8]	23	pyFR	6	TJ041
491.639	1.237	582207	STOP	n/a	n/a	n/a	n/a	4	[-999 -999 -999]	-999	pyFR	6	TJ041
492.876	2.629	583444	REC_START	n/a	n/a	n/a	-999	4	n/a	n/a	pyFR	6	TJ041
495.505	1.142	586073	REC_WORD	2.629	n/a	TRUCK	-999	4	n/a	n/a	pyFR	6	TJ041
496.647	1.089	587215	REC_WORD	3.771	n/a	TEETH	-999	4	n/a	n/a	pyFR	6	TJ041
497.736	1.325	588304	REC_WORD	4.86	n/a	TAIL	-999	4	n/a	n/a	pyFR	6	TJ041
499.061	1.696	589629	REC_WORD	6.185	n/a	STICK	-999	4	n/a	n/a	pyFR	6	TJ041
500.757	6.59	591325	REC_WORD	7.881	n/a	CONE	-999	4	n/a	n/a	pyFR	6	TJ041
507.347	1.675	597915	REC_WORD	14.471	n/a	STEM	-999	4	n/a	n/a	pyFR	6	TJ041
509.022	31.584	599590	REC_WORD	16.146	n/a	MILK	-999	4	n/a	n/a	pyFR	6	TJ041
540.606	0.016	631173	TRIAL	n/a	n/a	n/a	-999	5	n/a	n/a	pyFR	6	TJ041
540.622	2.637	631189	ORIENT	n/a	n/a	n/a	-999	5	n/a	n/a	pyFR	6	TJ041
543.259	2.606	633826	WORD	n/a	wordpools/wordpool_EN.txt	CLAY	1	5	n/a	n/a	pyFR	6	TJ041
545.865	2.704	636432	WORD	n/a	wordpools/wordpool_EN.txt	STORM	2	5	n/a	n/a	pyFR	6	TJ041
548.569	2.453	639135	WORD	n/a	wordpools/wordpool_EN.txt	BAG	3	5	n/a	n/a	pyFR	6	TJ041
551.022	2.421	641588	WORD	n/a	wordpools/wordpool_EN.txt	GRAPE	4	5	n/a	n/a	pyFR	6	TJ041
553.443	2.821	644009	WORD	n/a	wordpools/wordpool_EN.txt	FRUIT	5	5	n/a	n/a	pyFR	6	TJ041
556.264	2.722	646830	WORD	n/a	wordpools/wordpool_EN.txt	DOCK	6	5	n/a	n/a	pyFR	6	TJ041
558.986	2.522	649552	WORD	n/a	wordpools/wordpool_EN.txt	TEA	7	5	n/a	n/a	pyFR	6	TJ041
561.508	2.82	652074	WORD	n/a	wordpools/wordpool_EN.txt	TRASH	8	5	n/a	n/a	pyFR	6	TJ041
564.328	2.688	654894	WORD	n/a	wordpools/wordpool_EN.txt	FLUTE	9	5	n/a	n/a	pyFR	6	TJ041
567.016	2.672	657582	WORD	n/a	wordpools/wordpool_EN.txt	HILL	10	5	n/a	n/a	pyFR	6	TJ041
569.688	2.453	660254	WORD	n/a	wordpools/wordpool_EN.txt	STONE	11	5	n/a	n/a	pyFR	6	TJ041
572.141	2.439	662707	WORD	n/a	wordpools/wordpool_EN.txt	STRING	12	5	n/a	n/a	pyFR	6	TJ041
574.58	2.686	665146	WORD	n/a	wordpools/wordpool_EN.txt	CANE	13	5	n/a	n/a	pyFR	6	TJ041
577.266	2.639	667832	WORD	n/a	wordpools/wordpool_EN.txt	MOON	14	5	n/a	n/a	pyFR	6	TJ041
579.905	1.621	670471	WORD	n/a	wordpools/wordpool_EN.txt	PLANE	15	5	n/a	n/a	pyFR	6	TJ041
581.526	1.1	672091	START	n/a	n/a	n/a	n/a	5	[-999 -999 -999]	-999	pyFR	6	TJ041
582.626	3.421	673191	PROB	3.39	n/a	n/a	n/a	5	[1 9 1]	11	pyFR	6	TJ041
586.047	2.922	676612	PROB	2.888	n/a	n/a	n/a	5	[5 3 1]	9	pyFR	6	TJ041
588.969	3.774	679534	PROB	3.736	n/a	n/a	n/a	5	[3 6 9]	18	pyFR	6	TJ041
592.743	2.788	683308	PROB	2.752	n/a	n/a	n/a	5	[9 6 3]	18	pyFR	6	TJ041
595.531	2.854	686096	PROB	2.821	n/a	n/a	n/a	5	[1 5 9]	15	pyFR	6	TJ041
598.385	2.988	688950	PROB	2.959	n/a	n/a	n/a	5	[8 5 7]	20	pyFR	6	TJ041
601.373	3.148	691938	PROB	3.148	n/a	n/a	n/a	5	[5 1 8]	14	pyFR	6	TJ041
604.521	1.162	695086	STOP	n/a	n/a	n/a	n/a	5	[-999 -999 -999]	-999	pyFR	6	TJ041
605.683	2.51	696248	REC_START	n/a	n/a	n/a	-999	5	n/a	n/a	pyFR	6	TJ041
608.193	1.89	698758	REC_WORD	2.51	n/a	FLUTE	-999	5	n/a	n/a	pyFR	6	TJ041
610.083	1.104	700648	REC_WORD	4.4	n/a	CANE	-999	5	n/a	n/a	pyFR	6	TJ041
611.187	1.166	701752	REC_WORD	5.504	n/a	CLAY	-999	5	n/a	n/a	pyFR	6	TJ041
612.353	7.878	702918	REC_WORD	6.67	n/a	STORM	-999	5	n/a	n/a	pyFR	6	TJ041
620.231	35.469	710795	REC_WORD	14.548	n/a	PLANE	-999	5	n/a	n/a	pyFR	6	TJ041
655.7	0.016	746263	TRIAL	n/a	n/a	n/a	-999	6	n/a	n/a	pyFR	6	TJ041
655.716	2.921	746279	ORIENT	n/a	n/a	n/a	-999	6	n/a	n/a	pyFR	6	TJ041
658.637	2.688	749200	WORD	n/a	wordpools/wordpool_EN.txt	LOCK	1	6	n/a	n/a	pyFR	6	TJ041
661.325	2.438	751888	WORD	n/a	wordpools/wordpool_EN.txt	FLAME	2	6	n/a	n/a	pyFR	6	TJ041
663.763	2.755	754326	WORD	n/a	wordpools/wordpool_EN.txt	PARK	3	6	n/a	n/a	pyFR	6	TJ041
666.518	2.62	757081	WORD	n/a	wordpools/wordpool_EN.txt	SOAP	4	6	n/a	n/a	pyFR	6	TJ041
669.138	2.438	759701	WORD	n/a	wordpools/wordpool_EN.txt	TIE	5	6	n/a	n/a	pyFR	6	TJ041
671.576	2.704	762139	WORD	n/a	wordpools/wordpool_EN.txt	SNAIL	6	6	n/a	n/a	pyFR	6	TJ041
674.28	2.638	764843	WORD	n/a	wordpools/wordpool_EN.txt	CLOUD	7	6	n/a	n/a	pyFR	6	TJ041
676.918	2.487	767481	WORD	n/a	wordpools/wordpool_EN.txt	WHEEL	8	6	n/a	n/a	pyFR	6	TJ041
679.405	2.571	769967	WORD	n/a	wordpools/wordpool_EN.txt	SPOON	9	6	n/a	n/a	pyFR	6	TJ041
681.976	2.504	772538	WORD	n/a	wordpools/wordpool_EN.txt	PIG	10	6	n/a	n/a	pyFR	6	TJ041
684.48	2.621	775042	WORD	n/a	wordpools/wordpool_EN.txt	THUMB	11	6	n/a	n/a	pyFR	6	TJ041
687.101	2.756	777663	WORD	n/a	wordpools/wordpool_EN.txt	FUDGE	12	6	n/a	n/a	pyFR	6	TJ041
689.857	2.57	780419	WORD	n/a	wordpools/wordpool_EN.txt	PIN	13	6	n/a	n/a	pyFR	6	TJ041
692.427	2.721	782989	WORD	n/a	wordpools/wordpool_EN.txt	FISH	14	6	n/a	n/a	pyFR	6	TJ041
695.148	1.605	785710	WORD	n/a	wordpools/wordpool_EN.txt	HOUSE	15	6	n/a	n/a	pyFR	6	TJ041
696.753	1.001	787315	START	n/a	n/a	n/a	n/a	6	[-999 -999 -999]	-999	pyFR	6	TJ041
697.754	3.588	788316	PROB	3.559	n/a	n/a	n/a	6	[2 4 5]	11	pyFR	6	TJ041
701.342	3.54	791904	PROB	3.507	n/a	n/a	n/a	6	[7 3 9]	19	pyFR	6	TJ041
704.882	7.362	795444	PROB	7.335	n/a	n/a	n/a	6	[5 2 8]	15	pyFR	6	TJ041
712.244	3.806	802805	PROB	3.781	n/a	n/a	n/a	6	[8 2 6]	16	pyFR	6	TJ041
716.05	3.76	806611	PROB	3.76	n/a	n/a	n/a	6	[7 5 3]	15	pyFR	6	TJ041
719.81	1.165	810371	STOP	n/a	n/a	n/a	n/a	6	[-999 -999 -999]	-999	pyFR	6	TJ041
720.975	5.346	811536	REC_START	n/a	n/a	n/a	-999	6	n/a	n/a	pyFR	6	TJ041
726.321	2.709	816882	REC_WORD	5.346	n/a	FISH	-999	6	n/a	n/a	pyFR	6	TJ041
729.03	4.51	819591	REC_WORD	8.055	n/a	PIG	-999	6	n/a	n/a	pyFR	6	TJ041
733.54	37.27	824101	REC_WORD	12.565	n/a	FLAME	-999	6	n/a	n/a	pyFR	6	TJ041
770.81	0.016	861370	TRIAL	n/a	n/a	n/a	-999	7	n/a	n/a	pyFR	6	TJ041
770.826	2.67	861386	ORIENT	n/a	n/a	n/a	-999	7	n/a	n/a	pyFR	6	TJ041
773.496	2.789	864056	WORD	n/a	wordpools/wordpool_EN.txt	BRIDGE	1	7	n/a	n/a	pyFR	6	TJ041
776.285	2.555	866844	WORD	n/a	wordpools/wordpool_EN.txt	TRAIN	2	7	n/a	n/a	pyFR	6	TJ041
778.84	2.503	869399	WORD	n/a	wordpools/wordpool_EN.txt	CAR	3	7	n/a	n/a	pyFR	6	TJ041
781.343	2.455	871902	WORD	n/a	wordpools/wordpool_EN.txt	DITCH	4	7	n/a	n/a	pyFR	6	TJ041
783.798	2.52	874357	WORD	n/a	wordpools/wordpool_EN.txt	WOOD	5	7	n/a	n/a	pyFR	6	TJ041
786.318	2.788	876877	WORD	n/a	wordpools/wordpool_EN.txt	PIT	6	7	n/a	n/a	pyFR	6	TJ041
789.106	2.739	879665	WORD	n/a	wordpools/wordpool_EN.txt	VINE	7	7	n/a	n/a	pyFR	6	TJ041
791.845	2.705	882404	WORD	n/a	wordpools/wordpool_EN.txt	CLOCK	8	7	n/a	n/a	pyFR	6	TJ041
794.55	2.603	885109	WORD	n/a	wordpools/wordpool_EN.txt	HOOK	9	7	n/a	n/a	pyFR	6	TJ041
797.153	2.722	887712	WORD	n/a	wordpools/wordpool_EN.txt	GLASS	10	7	n/a	n/a	pyFR	6	TJ041
799.875	2.772	890434	WORD	n/a	wordpools/wordpool_EN.txt	MAP	11	7	n/a	n/a	pyFR	6	TJ041
802.647	2.536	893206	WORD	n/a	wordpools/wordpool_EN.txt	SKY	12	7	n/a	n/a	pyFR	6	TJ041
805.183	2.455	895742	WORD	n/a	wordpools/wordpool_EN.txt	SEAT	13	7	n/a	n/a	pyFR	6	TJ041
807.638	2.72	898197	WORD	n/a	wordpools/wordpool_EN.txt	FLAG	14	7	n/a	n/a	pyFR	6	TJ041
810.358	1.621	900916	WORD	n/a	wordpools/wordpool_EN.txt	DOOR	15	7	n/a	n/a	pyFR	6	TJ041
811.979	0.951	902537	START	n/a	n/a	n/a	n/a	7	[-999 -999 -999]	-999	pyFR	6	TJ041
812.93	3.79	903488	PROB	3.761	n/a	n/a	n/a	7	[3 6 7]	16	pyFR	6	TJ041
816.72	2.922	907278	PROB	2.883	n/a	n/a	n/a	7	[6 9 8]	23	pyFR	6	TJ041
819.642	2.82	910200	PROB	2.8	n/a	n/a	n/a	7	[3 3 5]	11	pyFR	6	TJ041
822.462	2.621	913020	PROB	2.596	n/a	n/a	n/a	7	[2 2 2]	6	pyFR	6	TJ041
825.083	3.039	915641	PROB	3.015	n/a	n/a	n/a	7	[6 7 4]	17	pyFR	6	TJ041
828.122	3.39	918680	PROB	3.36	n/a	n/a	n/a	7	[7 1 2]	10	pyFR	6	TJ041
831.512	4.339	922070	PROB	4.339	n/a	n/a	n/a	7	[8 3 8]	19	pyFR	6	TJ041
835.851	1.136	926409	STOP	n/a	n/a	n/a	n/a	7	[-999 -999 -999]	-999	pyFR	6	TJ041
836.987	2.093	927545	REC_START	n/a	n/a	n/a	-999	7	n/a	n/a	pyFR	6	TJ041
839.08	1.834	929638	REC_WORD	2.093	n/a	FLAG	-999	7	n/a	n/a	pyFR	6	TJ041
840.914	2.144	931471	REC_WORD	3.927	n/a	GLASS	-999	7	n/a	n/a	pyFR	6	TJ041
843.058	1.503	933615	REC_WORD	6.071	n/a	WOOD	-999	7	n/a	n/a	pyFR	6	TJ041
844.561	1.261	935118	REC_WORD	7.574	n/a	BRIDGE	-999	7	n/a	n/a	pyFR	6	TJ041
845.822	11.455	936379	REC_WORD	8.835	n/a	VINE	-999	7	n/a	n/a	pyFR	6	TJ041
857.277	30.363	947834	REC_WORD	20.29	n/a	SKY	-999	7	n/a	n/a	pyFR	6	TJ041
887.64	0.016	978196	TRIAL	n/a	n/a	n/a	-999	8	n/a	n/a	pyFR	6	TJ041
887.656	2.771	978212	ORIENT	n/a	n/a	n/a	-999	8	n/a	n/a	pyFR	6	TJ041
890.427	2.805	980983	WORD	n/a	wordpools/wordpool_EN.txt	STRAW	1	8	n/a	n/a	pyFR	6	TJ041
893.232	2.438	983788	WORD	n/a	wordpools/wordpool_EN.txt	BIRD	2	8	n/a	n/a	pyFR	6	TJ041
895.67	2.503	986226	WORD	n/a	wordpools/wordpool_EN.txt	SUIT	3	8	n/a	n/a	pyFR	6	TJ041
898.173	2.489	988729	WORD	n/a	wordpools/wordpool_EN.txt	PASTE	4	8	n/a	n/a	pyFR	6	TJ041
900.662	2.703	991218	WORD	n/a	wordpools/wordpool_EN.txt	BELL	5	8	n/a	n/a	pyFR	6	TJ041
903.365	2.638	993921	WORD	n/a	wordpools/wordpool_EN.txt	SPRING	6	8	n/a	n/a	pyFR	6	TJ041
906.003	2.756	996558	WORD	n/a	wordpools/wordpool_EN.txt	BALL	7	8	n/a	n/a	pyFR	6	TJ041
908.759	2.788	999314	WORD	n/a	wordpools/wordpool_EN.txt	BOOT	8	8	n/a	n/a	pyFR	6	TJ041
911.547	2.753	1002102	WORD	n/a	wordpools/wordpool_EN.txt	STORE	9	8	n/a	n/a	pyFR	6	TJ041
914.3	2.788	1004855	WORD	n/a	wordpools/wordpool_EN.txt	SMOKE	10	8	n/a	n/a	pyFR	6	TJ041
917.088	2.572	1007643	WORD	n/a	wordpools/wordpool_EN.txt	TENT	11	8	n/a	n/a	pyFR	6	TJ041
919.66	2.637	1010215	WORD	n/a	wordpools/wordpool_EN.txt	WAVE	12	8	n/a	n/a	pyFR	6	TJ041
922.297	2.738	1012852	WORD	n/a	wordpools/wordpool_EN.txt	PEAR	13	8	n/a	n/a	pyFR	6	TJ041
925.035	2.522	1015590	WORD	n/a	wordpools/wordpool_EN.txt	DIME	14	8	n/a	n/a	pyFR	6	TJ041
927.557	1.619	1018112	WORD	n/a	wordpools/wordpool_EN.txt	DOG	15	8	n/a	n/a	pyFR	6	TJ041
929.176	1.068	1019731	START	n/a	n/a	n/a	n/a	8	[-999 -999 -999]	-999	pyFR	6	TJ041
930.244	3.923	1020799	PROB	3.886	n/a	n/a	n/a	8	[8 6 8]	22	pyFR	6	TJ041
934.167	2.821	1024722	PROB	2.794	n/a	n/a	n/a	8	[6 6 1]	13	pyFR	6	TJ041
936.988	3.372	1027543	PROB	3.342	n/a	n/a	n/a	8	[8 6 8]	22	pyFR	6	TJ041
940.36	2.539	1030914	PROB	2.515	n/a	n/a	n/a	8	[1 5 6]	12	pyFR	6	TJ041
942.899	3.605	1033453	PROB	3.582	n/a	n/a	n/a	8	[9 3 4]	16	pyFR	6	TJ041
946.504	7.354	1037058	PROB	7.354	n/a	n/a	n/a	8	[8 9 9]	26	pyFR	6	TJ041
953.858	1.178	1044412	STOP	n/a	n/a	n/a	n/a	8	[-999 -999 -999]	-999	pyFR	6	TJ041
955.036	4.442	1045590	REC_START	n/a	n/a	n/a	-999	8	n/a	n/a	pyFR	6	TJ041
959.478	1.739	1050032	REC_WORD	4.442	n/a	DOG	-999	8	n/a	n/a	pyFR	6	TJ041
961.217	1.451	1051771	REC_WORD	6.181	n/a	BIRD	-999	8	n/a	n/a	pyFR	6	TJ041
962.668	41.701	1053222	REC_WORD	7.632	n/a	BOOT	-999	8	n/a	n/a	pyFR	6	TJ041
1004.369	0.016	1094921	TRIAL	n/a	n/a	n/a	-999	9	n/a	n/a	pyFR	6	TJ041
1004.385	2.805	1094937	ORIENT	n/a	n/a	n/a	-999	9	n/a	n/a	pyFR	6	TJ041
1007.19	2.538	1097742	WORD	n/a	wordpools/wordpool_EN.txt	SEED	1	9	n/a	n/a	pyFR	6	TJ041
1009.728	2.721	1100280	WORD	n/a	wordpools/wordpool_EN.txt	BOAT	2	9	n/a	n/a	pyFR	6	TJ041
1012.449	2.821	1103001	WORD	n/a	wordpools/wordpool_EN.txt	CAVE	3	9	n/a	n/a	pyFR	6	TJ041
1015.27	2.622	1105822	WORD	n/a	wordpools/wordpool_EN.txt	PLANT	4	9	n/a	n/a	pyFR	6	TJ041
1017.892	2.738	1108444	WORD	n/a	wordpools/wordpool_EN.txt	SLUSH	5	9	n/a	n/a	pyFR	6	TJ041
1020.63	2.77	1111182	WORD	n/a	wordpools/wordpool_EN.txt	PHONE	6	9	n/a	n/a	pyFR	6	TJ041
1023.4	2.605	1113952	WORD	n/a	wordpools/wordpool_EN.txt	CLOTH	7	9	n/a	n/a	pyFR	6	TJ041
1026.005	2.539	1116557	WORD	n/a	wordpools/wordpool_EN.txt	SKI	8	9	n/a	n/a	pyFR	6	TJ041
1028.544	2.452	1119096	WORD	n/a	wordpools/wordpool_EN.txt	LEG	9	9	n/a	n/a	pyFR	6	TJ041
1030.996	2.806	1121548	WORD	n/a	wordpools/wordpool_EN.txt	SHEET	10	9	n/a	n/a	pyFR	6	TJ041
1033.802	2.57	1124354	WORD	n/a	wordpools/wordpool_EN.txt	CHIN	11	9	n/a	n/a	pyFR	6	TJ041
1036.372	2.772	1126923	WORD	n/a	wordpools/wordpool_EN.txt	RICE	12	9	n/a	n/a	pyFR	6	TJ041
1039.144	2.673	1129695	WORD	n/a	wordpools/wordpool_EN.txt	SEAL	13	9	n/a	n/a	pyFR	6	TJ041
1041.817	2.652	1132368	WORD	n/a	wordpools/wordpool_EN.txt	WORM	14	9	n/a	n/a	pyFR	6	TJ041
1044.469	1.621	1135020	WORD	n/a	wordpools/wordpool_EN.txt	BOOK	15	9	n/a	n/a	pyFR	6	TJ041
1046.09	0.884	1136641	START	n/a	n/a	n/a	n/a	9	[-999 -999 -999]	-999	pyFR	6	TJ041
1046.974	3.656	1137525	PROB	3.619	n/a	n/a	n/a	9	[7 2 1]	10	pyFR	6	TJ041
1050.63	3.072	1141181	PROB	3.043	n/a	n/a	n/a	9	[2 7 6]	15	pyFR	6	TJ041
1053.702	4.007	1144253	PROB	3.979	n/a	n/a	n/a	9	[9 9 9]	27	pyFR	6	TJ041
1057.709	2.436	1148260	PROB	2.411	n/a	n/a	n/a	9	[1 1 2]	4	pyFR	6	TJ041
1060.145	2.906	1150696	PROB	2.879	n/a	n/a	n/a	9	[2 7 5]	14	pyFR	6	TJ041
1063.051	3.814	1153602	PROB	3.814	n/a	n/a	n/a	9	[2 9 9]	20	pyFR	6	TJ041
1066.865	1.128	1157416	STOP	n/a	n/a	n/a	n/a	9	[-999 -999 -999]	-999	pyFR	6	TJ041
1067.993	4.889	1158543	REC_START	n/a	n/a	n/a	-999	9	n/a	n/a	pyFR	6	TJ041
1072.882	0.996	1163432	REC_WORD	4.889	n/a	BOOK	-999	9	n/a	n/a	pyFR	6	TJ041
1073.878	1.051	1164428	REC_WORD	5.885	n/a	RICE	-999	9	n/a	n/a	pyFR	6	TJ041
1074.929	12.289	1165479	REC_WORD	6.936	n/a	WORM	-999	9	n/a	n/a	pyFR	6	TJ041
1087.218	29.774	1177768	REC_WORD	19.225	n/a	BOAT	-999	9	n/a	n/a	pyFR	6	TJ041
1116.992	0.016	1207541	TRIAL	n/a	n/a	n/a	-999	10	n/a	n/a	pyFR	6	TJ041
1117.008	2.722	1207557	ORIENT	n/a	n/a	n/a	-999	10	n/a	n/a	pyFR	6	TJ041
1119.73	2.554	1210279	WORD	n/a	wordpools/wordpool_EN.txt	GOAT	1	10	n/a	n/a	pyFR	6	TJ041
1122.284	2.821	1212833	WORD	n/a	wordpools/wordpool_EN.txt	TOY	2	10	n/a	n/a	pyFR	6	TJ041
1125.105	2.472	1215654	WORD	n/a	wordpools/wordpool_EN.txt	BROOM	3	10	n/a	n/a	pyFR	6	TJ041
1127.577	2.603	1218126	WORD	n/a	wordpools/wordpool_EN.txt	SALT	4	10	n/a	n/a	pyFR	6	TJ041
1130.18	2.606	1220729	WORD	n/a	wordpools/wordpool_EN.txt	WING	5	10	n/a	n/a	pyFR	6	TJ041
1132.786	2.503	1223334	WORD	n/a	wordpools/wordpool_EN.txt	WORLD	6	10	n/a	n/a	pyFR	6	TJ041
1135.289	2.688	1225837	WORD	n/a	wordpools/wordpool_EN.txt	MAIL	7	10	n/a	n/a	pyFR	6	TJ041
1137.977	2.454	1228525	WORD	n/a	wordpools/wordpool_EN.txt	ROSE	8	10	n/a	n/a	pyFR	6	TJ041
1140.431	2.487	1230979	WORD	n/a	wordpools/wordpool_EN.txt	PRINCE	9	10	n/a	n/a	pyFR	6	TJ041
1142.918	2.455	1233466	WORD	n/a	wordpools/wordpool_EN.txt	EEL	10	10	n/a	n/a	pyFR	6	TJ041
1145.373	2.554	1235921	WORD	n/a	wordpools/wordpool_EN.txt	GIRL	11	10	n/a	n/a	pyFR	6	TJ041
1147.927	2.537	1238475	WORD	n/a	wordpools/wordpool_EN.txt	CARD	12	10	n/a	n/a	pyFR	6	TJ041
1150.464	2.722	1241012	WORD	n/a	wordpools/wordpool_EN.txt	PLATE	13	10	n/a	n/a	pyFR	6	TJ041
1153.186	2.538	1243734	WORD	n/a	wordpools/wordpool_EN.txt	CART	14	10	n/a	n/a	pyFR	6	TJ041
1155.724	1.62	1246272	WORD	n/a	wordpools/wordpool_EN.txt	OAK	15	10	n/a	n/a	pyFR	6	TJ041
1157.344	1.084	1247892	START	n/a	n/a	n/a	n/a	10	[-999 -999 -999]	-999	pyFR	6	TJ041
1158.428	8.498	1248976	PROB	8.474	n/a	n/a	n/a	10	[3 3 9]	15	pyFR	6	TJ041
1166.926	4.056	1257473	PROB	4.023	n/a	n/a	n/a	10	[1 7 7]	15	pyFR	6	TJ041
1170.982	3.205	1261529	PROB	3.175	n/a	n/a	n/a	10	[1 1 4]	6	pyFR	6	TJ041
1174.187	3.794	1264734	PROB	3.794	n/a	n/a	n/a	10	[9 3 6]	18	pyFR	6	TJ041
1177.981	1.232	1268528	STOP	n/a	n/a	n/a	n/a	10	[-999 -999 -999]	-999	pyFR	6	TJ041
1179.213	3.025	1269760	REC_START	n/a	n/a	n/a	-999	10	n/a	n/a	pyFR	6	TJ041
1182.238	1.078	1272785	REC_WORD	3.025	n/a	GOAT	-999	10	n/a	n/a	pyFR	6	TJ041
1183.316	1.343	1273863	REC_WORD	4.103	n/a	OAK	-999	10	n/a	n/a	pyFR	6	TJ041
1184.659	3.293	1275206	REC_WORD	5.446	n/a	EEL	-999	10	n/a	n/a	pyFR	6	TJ041
1187.952	6.638	1278499	REC_WORD	8.739	n/a	GIRL	-999	10	n/a	n/a	pyFR	6	TJ041
1194.59	6.599	1285137	REC_WORD	15.377	n/a	PEACH	-999	10	n/a	n/a	pyFR	6	TJ041
1201.189	27.758	1291735	REC_WORD	21.976	n/a	BOOK	-999	10	n/a	n/a	pyFR	6	TJ041
1228.947	0.016	1319493	TRIAL	n/a	n/a	n/a	-999	11	n/a	n/a	pyFR	6	TJ041
1228.963	3.022	1319509	ORIENT	n/a	n/a	n/a	-999	11	n/a	n/a	pyFR	6	TJ041
1231.985	2.454	1322530	WORD	n/a	wordpools/wordpool_EN.txt	LAMP	1	11	n/a	n/a	pyFR	6	TJ041
1234.439	2.439	1324984	WORD	n/a	wordpools/wordpool_EN.txt	DEER	2	11	n/a	n/a	pyFR	6	TJ041
1236.878	2.771	1327423	WORD	n/a	wordpools/wordpool_EN.txt	CRANE	3	11	n/a	n/a	pyFR	6	TJ041
1239.649	2.436	1330194	WORD	n/a	wordpools/wordpool_EN.txt	BATH	4	11	n/a	n/a	pyFR	6	TJ041
1242.085	2.656	1332630	WORD	n/a	wordpools/wordpool_EN.txt	TOAD	5	11	n/a	n/a	pyFR	6	TJ041
1244.741	2.453	1335286	WORD	n/a	wordpools/wordpool_EN.txt	BOARD	6	11	n/a	n/a	pyFR	6	TJ041
1247.194	2.689	1337739	WORD	n/a	wordpools/wordpool_EN.txt	DRESS	7	11	n/a	n/a	pyFR	6	TJ041
1249.883	2.436	1340428	WORD	n/a	wordpools/wordpool_EN.txt	FOAM	8	11	n/a	n/a	pyFR	6	TJ041
1252.319	2.589	1342864	WORD	n/a	wordpools/wordpool_EN.txt	BEAN	9	11	n/a	n/a	pyFR	6	TJ041
1254.908	2.453	1345453	WORD	n/a	wordpools/wordpool_EN.txt	BUSH	10	11	n/a	n/a	pyFR	6	TJ041
1257.361	2.838	1347906	WORD	n/a	wordpools/wordpool_EN.txt	NEST	11	11	n/a	n/a	pyFR	6	TJ041
1260.199	2.439	1350744	WORD	n/a	wordpools/wordpool_EN.txt	HEART	12	11	n/a	n/a	pyFR	6	TJ041
1262.638	2.62	1353183	WORD	n/a	wordpools/wordpool_EN.txt	ROOF	13	11	n/a	n/a	pyFR	6	TJ041
1265.258	2.605	1355802	WORD	n/a	wordpools/wordpool_EN.txt	LIP	14	11	n/a	n/a	pyFR	6	TJ041
1267.863	1.619	1358407	WORD	n/a	wordpools/wordpool_EN.txt	GATE	15	11	n/a	n/a	pyFR	6	TJ041
1269.482	0.901	1360026	START	n/a	n/a	n/a	n/a	11	[-999 -999 -999]	-999	pyFR	6	TJ041
1270.383	4.441	1360927	PROB	4.414	n/a	n/a	n/a	11	[5 7 4]	16	pyFR	6	TJ041
1274.824	3.372	1365368	PROB	3.348	n/a	n/a	n/a	11	[2 3 4]	9	pyFR	6	TJ041
1278.196	2.421	1368740	PROB	2.385	n/a	n/a	n/a	11	[1 3 8]	12	pyFR	6	TJ041
1280.617	2.754	1371161	PROB	2.723	n/a	n/a	n/a	11	[1 8 3]	12	pyFR	6	TJ041
1283.371	3.072	1373915	PROB	3.049	n/a	n/a	n/a	11	[1 1 3]	5	pyFR	6	TJ041
1286.443	2.872	1376987	PROB	2.833	n/a	n/a	n/a	11	[1 5 6]	12	pyFR	6	TJ041
1289.315	3.394	1379859	PROB	3.394	n/a	n/a	n/a	11	[1 8 8]	17	pyFR	6	TJ041
1292.709	1.148	1383253	STOP	n/a	n/a	n/a	n/a	11	[-999 -999 -999]	-999	pyFR	6	TJ041
1293.857	4.182	1384401	REC_START	n/a	n/a	n/a	-999	11	n/a	n/a	pyFR	6	TJ041
1298.039	0.975	1388582	REC_WORD	4.182	n/a	BOARD	-999	11	n/a	n/a	pyFR	6	TJ041
1299.014	1.643	1389557	REC_WORD	5.157	n/a	TOAD	-999	11	n/a	n/a	pyFR	6	TJ041
1300.657	3.104	1391200	REC_WORD	6.8	n/a	LIP	-999	11	n/a	n/a	pyFR	6	TJ041
1303.761	25.72	1394304	REC_WORD	9.904	n/a	BUSH	-999	11	n/a	n/a	pyFR	6	TJ041
1329.481	1.209	1420023	REC_WORD	35.624	n/a	DEER	-999	11	n/a	n/a	pyFR	6	TJ041
1330.69	1.788	1421232	REC_WORD	36.833	n/a	CRANE	-999	11	n/a	n/a	pyFR	6	TJ041
1332.478	9.743	1423020	REC_WORD	38.621	n/a	LAMP	-999	11	n/a	n/a	pyFR	6	TJ041
1342.221	0.016	1432763	TRIAL	n/a	n/a	n/a	-999	12	n/a	n/a	pyFR	6	TJ041
1342.237	2.855	1432779	ORIENT	n/a	n/a	n/a	-999	12	n/a	n/a	pyFR	6	TJ041
1345.092	2.572	1435634	WORD	n/a	wordpools/wordpool_EN.txt	CORD	1	12	n/a	n/a	pyFR	6	TJ041
1347.664	2.536	1438206	WORD	n/a	wordpools/wordpool_EN.txt	FOX	2	12	n/a	n/a	pyFR	6	TJ041
1350.2	2.673	1440742	WORD	n/a	wordpools/wordpool_EN.txt	SHRIMP	3	12	n/a	n/a	pyFR	6	TJ041
1352.873	2.553	1443415	WORD	n/a	wordpools/wordpool_EN.txt	SWAMP	4	12	n/a	n/a	pyFR	6	TJ041
1355.426	2.788	1445968	WORD	n/a	wordpools/wordpool_EN.txt	DOLL	5	12	n/a	n/a	pyFR	6	TJ041
1358.214	2.489	1448756	WORD	n/a	wordpools/wordpool_EN.txt	ROCK	6	12	n/a	n/a	pyFR	6	TJ041
1360.703	2.804	1451244	WORD	n/a	wordpools/wordpool_EN.txt	RIB	7	12	n/a	n/a	pyFR	6	TJ041
1363.507	2.821	1454048	WORD	n/a	wordpools/wordpool_EN.txt	NET	8	12	n/a	n/a	pyFR	6	TJ041
1366.328	2.771	1456869	WORD	n/a	wordpools/wordpool_EN.txt	WEB	9	12	n/a	n/a	pyFR	6	TJ041
1369.099	2.438	1459640	WORD	n/a	wordpools/wordpool_EN.txt	SHIRT	10	12	n/a	n/a	pyFR	6	TJ041
1371.537	2.654	1462078	WORD	n/a	wordpools/wordpool_EN.txt	STOVE	11	12	n/a	n/a	pyFR	6	TJ041
1374.191	2.605	1464732	WORD	n/a	wordpools/wordpool_EN.txt	SHIELD	12	12	n/a	n/a	pyFR	6	TJ041
1376.796	2.504	1467337	WORD	n/a	wordpools/wordpool_EN.txt	COW	13	12	n/a	n/a	pyFR	6	TJ041
1379.3	2.588	1469841	WORD	n/a	wordpools/wordpool_EN.txt	CHEEK	14	12	n/a	n/a	pyFR	6	TJ041
1381.888	1.621	1472429	WORD	n/a	wordpools/wordpool_EN.txt	STREET	15	12	n/a	n/a	pyFR	6	TJ041
1383.509	1.067	1474050	START	n/a	n/a	n/a	n/a	12	[-999 -999 -999]	-999	pyFR	6	TJ041
1384.576	3.806	1475117	PROB	3.783	n/a	n/a	n/a	12	[7 5 3]	15	pyFR	6	TJ041
1388.382	3.306	1478923	PROB	3.282	n/a	n/a	n/a	12	[2 7 8]	17	pyFR	6	TJ041
1391.688	3.705	1482229	PROB	3.679	n/a	n/a	n/a	12	[4 7 7]	18	pyFR	6	TJ041
1395.393	2.721	1485933	PROB	2.694	n/a	n/a	n/a	12	[7 1 1]	9	pyFR	6	TJ041
1398.114	3.005	1488654	PROB	2.973	n/a	n/a	n/a	12	[2 8 7]	17	pyFR	6	TJ041
1401.119	3.056	1491659	PROB	3.056	n/a	n/a	n/a	12	[3 6 8]	17	pyFR	6	TJ041
1404.175	1.052	1494715	STOP	n/a	n/a	n/a	n/a	12	[-999 -999 -999]	-999	pyFR	6	TJ041
1405.227	3.464	1495767	REC_START	n/a	n/a	n/a	-999	12	n/a	n/a	pyFR	6	TJ041
1408.691	1.547	1499231	REC_WORD	3.464	n/a	SWAMP	-999	12	n/a	n/a	pyFR	6	TJ041
1410.238	1.471	1500778	REC_WORD	5.011	n/a	SHRIMP	-999	12	n/a	n/a	pyFR	6	TJ041
1411.709	41.265	1502249	REC_WORD	6.482	n/a	NET	-999	12	n/a	n/a	pyFR	6	TJ041
1452.974	0.016	1543513	TRIAL	n/a	n/a	n/a	-999	13	n/a	n/a	pyFR	6	TJ041
1452.99	2.989	1543529	ORIENT	n/a	n/a	n/a	-999	13	n/a	n/a	pyFR	6	TJ041
1455.979	2.487	1546518	WORD	n/a	wordpools/wordpool_EN.txt	GEESE	1	13	n/a	n/a	pyFR	6	TJ041
1458.466	2.605	1549004	WORD	n/a	wordpools/wordpool_EN.txt	DESK	2	13	n/a	n/a	pyFR	6	TJ041
1461.071	2.455	1551609	WORD	n/a	wordpools/wordpool_EN.txt	NAIL	3	13	n/a	n/a	pyFR	6	TJ041
1463.526	2.453	1554064	WORD	n/a	wordpools/wordpool_EN.txt	DUCK	4	13	n/a	n/a	pyFR	6	TJ041
1465.979	2.689	1556517	WORD	n/a	wordpools/wordpool_EN.txt	SMILE	5	13	n/a	n/a	pyFR	6	TJ041
1468.668	2.603	1559206	WORD	n/a	wordpools/wordpool_EN.txt	QUEEN	6	13	n/a	n/a	pyFR	6	TJ041
1471.271	2.606	1561809	WORD	n/a	wordpools/wordpool_EN.txt	HAWK	7	13	n/a	n/a	pyFR	6	TJ041
1473.877	2.637	1564415	WORD	n/a	wordpools/wordpool_EN.txt	OAR	8	13	n/a	n/a	pyFR	6	TJ041
1476.514	2.62	1567052	WORD	n/a	wordpools/wordpool_EN.txt	PET	9	13	n/a	n/a	pyFR	6	TJ041
1479.134	2.489	1569672	WORD	n/a	wordpools/wordpool_EN.txt	WAND	10	13	n/a	n/a	pyFR	6	TJ041
1481.623	2.754	1572161	WORD	n/a	wordpools/wordpool_EN.txt	FUR	11	13	n/a	n/a	pyFR	6	TJ041
1484.377	2.637	1574915	WORD	n/a	wordpools/wordpool_EN.txt	SOUP	12	13	n/a	n/a	pyFR	6	TJ041
1487.014	2.722	1577552	WORD	n/a	wordpools/wordpool_EN.txt	FOOT	13	13	n/a	n/a	pyFR	6	TJ041
1489.736	2.772	1580274	WORD	n/a	wordpools/wordpool_EN.txt	CAKE	14	13	n/a	n/a	pyFR	6	TJ041
1492.508	1.619	1583045	WORD	n/a	wordpools/wordpool_EN.txt	JAIL	15	13	n/a	n/a	pyFR	6	TJ041
1494.127	0.867	1584664	START	n/a	n/a	n/a	n/a	13	[-999 -999 -999]	-999	pyFR	6	TJ041
1494.994	4.357	1585531	PROB	4.327	n/a	n/a	n/a	13	[8 3 8]	19	pyFR	6	TJ041
1499.351	2.222	1589888	PROB	2.203	n/a	n/a	n/a	13	[1 7 1]	9	pyFR	6	TJ041
1501.573	3.505	1592110	PROB	3.468	n/a	n/a	n/a	13	[9 3 4]	16	pyFR	6	TJ041
1505.078	4.207	1595615	PROB	4.171	n/a	n/a	n/a	13	[2 8 5]	15	pyFR	6	TJ041
1509.285	4.258	1599822	PROB	4.229	n/a	n/a	n/a	13	[9 5 5]	19	pyFR	6	TJ041
1513.543	3.299	1604080	PROB	3.299	n/a	n/a	n/a	13	[6 6 4]	17	pyFR	6	TJ041
1516.842	1.225	1607379	STOP	n/a	n/a	n/a	n/a	13	[-999 -999 -999]	-999	pyFR	6	TJ041
1518.067	2.605	1608604	REC_START	n/a	n/a	n/a	-999	13	n/a	n/a	pyFR	6	TJ041
1520.672	1.724	1611209	REC_WORD	2.605	n/a	DESK	-999	13	n/a	n/a	pyFR	6	TJ041
1522.396	7.574	1612933	REC_WORD	4.329	n/a	NAIL	-999	13	n/a	n/a	pyFR	6	TJ041
1529.97	4.24	1620506	REC_WORD	11.903	n/a	DOOR	-999	13	n/a	n/a	pyFR	6	TJ041
1534.21	1.661	1624746	REC_WORD	16.143	n/a	FOOT	-999	13	n/a	n/a	pyFR	6	TJ041
1535.871	31.162	1626407	REC_WORD	17.804	n/a	LIP	-999	13	n/a	n/a	pyFR	6	TJ041
1567.033	0.016	1657568	TRIAL	n/a	n/a	n/a	-999	14	n/a	n/a	pyFR	6	TJ041
1567.049	3.022	1657584	ORIENT	n/a	n/a	n/a	-999	14	n/a	n/a	pyFR	6	TJ041
1570.071	2.622	1660606	WORD	n/a	wordpools/wordpool_EN.txt	SIGN	1	14	n/a	n/a	pyFR	6	TJ041
1572.693	2.821	1663228	WORD	n/a	wordpools/wordpool_EN.txt	PALM	2	14	n/a	n/a	pyFR	6	TJ041
1575.514	2.604	1666049	WORD	n/a	wordpools/wordpool_EN.txt	MOUTH	3	14	n/a	n/a	pyFR	6	TJ041
1578.118	2.789	1668653	WORD	n/a	wordpools/wordpool_EN.txt	PURSE	4	14	n/a	n/a	pyFR	6	TJ041
1580.907	2.436	1671442	WORD	n/a	wordpools/wordpool_EN.txt	SCHOOL	5	14	n/a	n/a	pyFR	6	TJ041
1583.343	2.571	1673878	WORD	n/a	wordpools/wordpool_EN.txt	KITE	6	14	n/a	n/a	pyFR	6	TJ041
1585.914	2.421	1676449	WORD	n/a	wordpools/wordpool_EN.txt	WALL	7	14	n/a	n/a	pyFR	6	TJ041
1588.335	2.438	1678869	WORD	n/a	wordpools/wordpool_EN.txt	SEA	8	14	n/a	n/a	pyFR	6	TJ041
1590.773	2.52	1681307	WORD	n/a	wordpools/wordpool_EN.txt	SHARK	9	14	n/a	n/a	pyFR	6	TJ041
1593.293	2.704	1683827	WORD	n/a	wordpools/wordpool_EN.txt	FLOOR	10	14	n/a	n/a	pyFR	6	TJ041
1595.997	2.673	1686531	WORD	n/a	wordpools/wordpool_EN.txt	HORN	11	14	n/a	n/a	pyFR	6	TJ041
1598.67	2.453	1689204	WORD	n/a	wordpools/wordpool_EN.txt	BRICK	12	14	n/a	n/a	pyFR	6	TJ041
1601.123	2.706	1691657	WORD	n/a	wordpools/wordpool_EN.txt	THREAD	13	14	n/a	n/a	pyFR	6	TJ041
1603.829	2.453	1694363	WORD	n/a	wordpools/wordpool_EN.txt	CALF	14	14	n/a	n/a	pyFR	6	TJ041
1606.282	1.604	1696816	WORD	n/a	wordpools/wordpool_EN.txt	PEA	15	14	n/a	n/a	pyFR	6	TJ041
1607.886	1.15	1698420	START	n/a	n/a	n/a	n/a	14	[-999 -999 -999]	-999	pyFR	6	TJ041
1609.036	3.205	1699570	PROB	3.172	n/a	n/a	n/a	14	[8 1 5]	14	pyFR	6	TJ041
1612.241	3.056	1702775	PROB	3.023	n/a	n/a	n/a	14	[9 1 1]	11	pyFR	6	TJ041
1615.297	3.005	1705831	PROB	2.967	n/a	n/a	n/a	14	[4 5 1]	10	pyFR	6	TJ041
1618.302	4.358	1708836	PROB	4.331	n/a	n/a	n/a	14	[8 4 9]	21	pyFR	6	TJ041
1622.66	3.005	1713193	PROB	2.981	n/a	n/a	n/a	14	[6 4 2]	12	pyFR	6	TJ041
1625.665	2.208	1716198	PROB	2.208	n/a	n/a	n/a	14	[1 7 4]	12	pyFR	6	TJ041
1627.873	1.097	1718406	STOP	n/a	n/a	n/a	n/a	14	[-999 -999 -999]	-999	pyFR	6	TJ041
1628.97	2.455	1719503	REC_START	n/a	n/a	n/a	-999	14	n/a	n/a	pyFR	6	TJ041
1631.425	1.146	1721958	REC_WORD	2.455	n/a	CALF	-999	14	n/a	n/a	pyFR	6	TJ041
1632.571	1.344	1723104	REC_WORD	3.601	n/a	FLOOR	-999	14	n/a	n/a	pyFR	6	TJ041
1633.915	15.268	1724448	REC_WORD	4.945	n/a	WALL	-999	14	n/a	n/a	pyFR	6	TJ041
1649.183	28.337	1739716	REC_WORD	20.213	n/a	MOUTH	-999	14	n/a	n/a	pyFR	6	TJ041
1677.52	0.016	1768052	TRIAL	n/a	n/a	n/a	-999	15	n/a	n/a	pyFR	6	TJ041
1677.536	2.72	1768068	ORIENT	n/a	n/a	n/a	-999	15	n/a	n/a	pyFR	6	TJ041
1680.256	2.439	1770788	WORD	n/a	wordpools/wordpool_EN.txt	CAGE	1	15	n/a	n/a	pyFR	6	TJ041
1682.695	2.72	1773227	WORD	n/a	wordpools/wordpool_EN.txt	SUN	2	15	n/a	n/a	pyFR	6	TJ041
1685.415	2.504	1775946	WORD	n/a	wordpools/wordpool_EN.txt	FLEA	3	15	n/a	n/a	pyFR	6	TJ041
1687.919	2.839	1778450	WORD	n/a	wordpools/wordpool_EN.txt	PEN	4	15	n/a	n/a	pyFR	6	TJ041
1690.758	2.537	1781289	WORD	n/a	wordpools/wordpool_EN.txt	FACE	5	15	n/a	n/a	pyFR	6	TJ041
1693.295	2.821	1783826	WORD	n/a	wordpools/wordpool_EN.txt	MAT	6	15	n/a	n/a	pyFR	6	TJ041
1696.116	2.505	1786647	WORD	n/a	wordpools/wordpool_EN.txt	BRANCH	7	15	n/a	n/a	pyFR	6	TJ041
1698.621	2.487	1789152	WORD	n/a	wordpools/wordpool_EN.txt	FENCE	8	15	n/a	n/a	pyFR	6	TJ041
1701.108	2.622	1791639	WORD	n/a	wordpools/wordpool_EN.txt	TOE	9	15	n/a	n/a	pyFR	6	TJ041
1703.73	2.553	1794261	WORD	n/a	wordpools/wordpool_EN.txt	CROW	10	15	n/a	n/a	pyFR	6	TJ041
1706.283	2.606	1796814	WORD	n/a	wordpools/wordpool_EN.txt	BOX	11	15	n/a	n/a	pyFR	6	TJ041
1708.889	2.553	1799420	WORD	n/a	wordpools/wordpool_EN.txt	FAN	12	15	n/a	n/a	pyFR	6	TJ041
1711.442	2.455	1801973	WORD	n/a	wordpools/wordpool_EN.txt	STAIR	13	15	n/a	n/a	pyFR	6	TJ041
1713.897	2.671	1804428	WORD	n/a	wordpools/wordpool_EN.txt	MULE	14	15	n/a	n/a	pyFR	6	TJ041
1716.568	1.62	1807099	WORD	n/a	wordpools/wordpool_EN.txt	NOSE	15	15	n/a	n/a	pyFR	6	TJ041
1718.188	0.983	1808718	START	n/a	n/a	n/a	n/a	15	[-999 -999 -999]	-999	pyFR	6	TJ041
1719.171	3.391	1809701	PROB	3.364	n/a	n/a	n/a	15	[1 2 7]	10	pyFR	6	TJ041
1722.562	3.404	1813092	PROB	3.372	n/a	n/a	n/a	15	[2 5 2]	9	pyFR	6	TJ041
1725.966	3.941	1816496	PROB	3.905	n/a	n/a	n/a	15	[6 6 3]	15	pyFR	6	TJ041
1729.907	2.872	1820437	PROB	2.835	n/a	n/a	n/a	15	[8 2 4]	14	pyFR	6	TJ041
1732.779	2.955	1823309	PROB	2.924	n/a	n/a	n/a	15	[4 6 7]	17	pyFR	6	TJ041
1735.734	3.351	1826264	PROB	3.351	n/a	n/a	n/a	15	[1 7 7]	15	pyFR	6	TJ041
1739.085	1.072	1829615	STOP	n/a	n/a	n/a	n/a	15	[-999 -999 -999]	-999	pyFR	6	TJ041
1740.157	3.434	1830687	REC_START	n/a	n/a	n/a	-999	15	n/a	n/a	pyFR	6	TJ041
1743.591	1.618	1834121	REC_WORD	3.434	n/a	CAGE	-999	15	n/a	n/a	pyFR	6	TJ041
1745.209	3.99	1835739	REC_WORD	5.052	n/a	FLEA	-999	15	n/a	n/a	pyFR	6	TJ041
1749.199	1.758	1839729	REC_WORD	9.042	n/a	MAT	-999	15	n/a	n/a	pyFR	6	TJ041
1750.957	1.904	1841486	REC_WORD	10.8	n/a	TOE	-999	15	n/a	n/a	pyFR	6	TJ041
1752.861	6.505	1843390	REC_WORD	12.704	n/a	NOSE	-999	15	n/a	n/a	pyFR	6	TJ041
1759.366	28.406	1849895	REC_WORD	19.209	n/a	BRICK	-999	15	n/a	n/a	pyFR	6	TJ041
1787.772	0.016	1878300	TRIAL	n/a	n/a	n/a	-999	16	n/a	n/a	pyFR	6	TJ041
1787.788	2.971	1878316	ORIENT	n/a	n/a	n/a	-999	16	n/a	n/a	pyFR	6	TJ041
1790.759	2.755	1881287	WORD	n/a	wordpools/wordpool_EN.txt	VAN	1	16	n/a	n/a	pyFR	6	TJ041
1793.514	2.487	1884042	WORD	n/a	wordpools/wordpool_EN.txt	SPONGE	2	16	n/a	n/a	pyFR	6	TJ041
1796.001	2.555	1886529	WORD	n/a	wordpools/wordpool_EN.txt	APE	3	16	n/a	n/a	pyFR	6	TJ041
1798.556	2.821	1889084	WORD	n/a	wordpools/wordpool_EN.txt	FORT	4	16	n/a	n/a	pyFR	6	TJ041
1801.377	2.788	1891905	WORD	n/a	wordpools/wordpool_EN.txt	CUP	5	16	n/a	n/a	pyFR	6	TJ041
1804.165	2.538	1894693	WORD	n/a	wordpools/wordpool_EN.txt	POOL	6	16	n/a	n/a	pyFR	6	TJ041
1806.703	2.654	1897231	WORD	n/a	wordpools/wordpool_EN.txt	CLIFF	7	16	n/a	n/a	pyFR	6	TJ041
1809.357	2.505	1899885	WORD	n/a	wordpools/wordpool_EN.txt	SINK	8	16	n/a	n/a	pyFR	6	TJ041
1811.862	2.436	1902390	WORD	n/a	wordpools/wordpool_EN.txt	SOCK	9	16	n/a	n/a	pyFR	6	TJ041
1814.298	2.672	1904826	WORD	n/a	wordpools/wordpool_EN.txt	CAT	10	16	n/a	n/a	pyFR	6	TJ041
1816.97	2.605	1907497	WORD	n/a	wordpools/wordpool_EN.txt	ICE	11	16	n/a	n/a	pyFR	6	TJ041
1819.575	2.486	1910102	WORD	n/a	wordpools/wordpool_EN.txt	PIPE	12	16	n/a	n/a	pyFR	6	TJ041
1822.061	2.522	1912588	WORD	n/a	wordpools/wordpool_EN.txt	PANTS	13	16	n/a	n/a	pyFR	6	TJ041
1824.583	2.654	1915110	WORD	n/a	wordpools/wordpool_EN.txt	POND	14	16	n/a	n/a	pyFR	6	TJ041
1827.237	1.604	1917764	WORD	n/a	wordpools/wordpool_EN.txt	GLOVE	15	16	n/a	n/a	pyFR	6	TJ041
1828.841	0.867	1919368	START	n/a	n/a	n/a	n/a	16	[-999 -999 -999]	-999	pyFR	6	TJ041
1829.708	3.706	1920235	PROB	3.674	n/a	n/a	n/a	16	[5 3 4]	12	pyFR	6	TJ041
1833.414	2.954	1923941	PROB	2.927	n/a	n/a	n/a	16	[5 4 8]	17	pyFR	6	TJ041
1836.368	2.872	1926895	PROB	2.846	n/a	n/a	n/a	16	[9 4 8]	21	pyFR	6	TJ041
1839.24	3.474	1929767	PROB	3.446	n/a	n/a	n/a	16	[3 3 9]	15	pyFR	6	TJ041
1842.714	2.636	1933241	PROB	2.611	n/a	n/a	n/a	16	[4 5 3]	12	pyFR	6	TJ041
1845.35	2.972	1935877	PROB	2.935	n/a	n/a	n/a	16	[7 9 6]	22	pyFR	6	TJ041
1848.322	4.556	1938848	PROB	4.556	n/a	n/a	n/a	16	[8 8 6]	22	pyFR	6	TJ041
1852.878	1.054	1943404	STOP	n/a	n/a	n/a	n/a	16	[-999 -999 -999]	-999	pyFR	6	TJ041
1853.932	1.735	1944458	REC_START	n/a	n/a	n/a	-999	16	n/a	n/a	pyFR	6	TJ041
1855.667	1.49	1946193	REC_WORD	1.735	n/a	SPONGE	-999	16	n/a	n/a	pyFR	6	TJ041
1857.157	1.969	1947683	REC_WORD	3.225	n/a	VAN	-999	16	n/a	n/a	pyFR	6	TJ041
1859.126	1.752	1949652	REC_WORD	5.194	n/a	SINK	-999	16	n/a	n/a	pyFR	6	TJ041
1860.878	1.889	1951404	REC_WORD	6.946	n/a	CLIFF	-999	16	n/a	n/a	pyFR	6	TJ041
1862.767	524.798	1953293	REC_WORD	8.835	n/a	POND	-999	16	n/a	n/a	pyFR	6	TJ041
2387.565	0.076	2478075	SESS_END	n/a	n/a	n/a	-999	16	n/a	n/a	pyFR	6	TJ041
2387.641	0.0	2478151	E	n/a	n/a	n/a	-999	16	n/a	n/a	pyFR	6	TJ041
