onset	duration	sample	trial_type	response_time	stim_file	item_name	serialpos	list	test	answer	experiment	session	subject
0.0	4.017	280360	E	n/a	n/a	n/a	-999	-999	n/a	n/a	pyFR	0	UP020
4.017	0.0	282417	SESS_START	n/a	n/a	n/a	-999	-999	n/a	n/a	pyFR	0	UP020
4.017	88.703	282417	B	n/a	n/a	n/a	-999	-999	n/a	n/a	pyFR	0	UP020
92.72	0.041	327836	START	n/a	n/a	n/a	n/a	0	[-999 -999 -999]	-999	pyFR	0	UP020
92.761	9.224	327857	PROB	9.168	n/a	n/a	n/a	0	[6 5 6]	17	pyFR	0	UP020
101.985	6.071	332580	PROB	6.015	n/a	n/a	n/a	0	[2 5 2]	9	pyFR	0	UP020
108.056	9.209	335689	PROB	9.161	n/a	n/a	n/a	0	[2 5 4]	11	pyFR	0	UP020
117.265	7.312	340404	PROB	7.312	n/a	n/a	n/a	0	[5 5 6]	16	pyFR	0	UP020
124.577	74.506	344148	STOP	n/a	n/a	n/a	n/a	0	[-999 -999 -999]	-999	pyFR	0	UP020
199.083	0.016	382297	TRIAL	n/a	n/a	n/a	-999	-999	n/a	n/a	pyFR	0	UP020
199.099	2.703	382306	ORIENT	n/a	n/a	n/a	-999	-999	n/a	n/a	pyFR	0	UP020
201.802	2.452	383690	WORD	n/a	wordpools/wordpool_EN.txt	STREET	1	1	n/a	n/a	pyFR	0	UP020
204.254	2.452	384945	WORD	n/a	wordpools/wordpool_EN.txt	PEN	2	1	n/a	n/a	pyFR	0	UP020
206.706	2.786	386201	WORD	n/a	wordpools/wordpool_EN.txt	WOOD	3	1	n/a	n/a	pyFR	0	UP020
209.492	2.635	387627	WORD	n/a	wordpools/wordpool_EN.txt	DESK	4	1	n/a	n/a	pyFR	0	UP020
212.127	2.753	388976	WORD	n/a	wordpools/wordpool_EN.txt	VINE	5	1	n/a	n/a	pyFR	0	UP020
214.88	2.669	390386	WORD	n/a	wordpools/wordpool_EN.txt	FRUIT	6	1	n/a	n/a	pyFR	0	UP020
217.549	2.435	391753	WORD	n/a	wordpools/wordpool_EN.txt	PIPE	7	1	n/a	n/a	pyFR	0	UP020
219.984	2.519	392999	WORD	n/a	wordpools/wordpool_EN.txt	CAPE	8	1	n/a	n/a	pyFR	0	UP020
222.503	2.535	394289	WORD	n/a	wordpools/wordpool_EN.txt	STRING	9	1	n/a	n/a	pyFR	0	UP020
225.038	2.586	395587	WORD	n/a	wordpools/wordpool_EN.txt	JET	10	1	n/a	n/a	pyFR	0	UP020
227.624	2.569	396911	WORD	n/a	wordpools/wordpool_EN.txt	MAT	11	1	n/a	n/a	pyFR	0	UP020
230.193	2.719	398227	WORD	n/a	wordpools/wordpool_EN.txt	CHAIR	12	1	n/a	n/a	pyFR	0	UP020
232.912	2.685	399619	WORD	n/a	wordpools/wordpool_EN.txt	VASE	13	1	n/a	n/a	pyFR	0	UP020
235.597	2.753	400994	WORD	n/a	wordpools/wordpool_EN.txt	PURSE	14	1	n/a	n/a	pyFR	0	UP020
238.35	1.619	402403	WORD	n/a	wordpools/wordpool_EN.txt	FUR	15	1	n/a	n/a	pyFR	0	UP020
239.969	1.049	403232	START	n/a	n/a	n/a	n/a	1	[-999 -999 -999]	-999	pyFR	0	UP020
241.018	16.197	403770	PROB	16.142	n/a	n/a	n/a	1	[4 4 8]	16	pyFR	0	UP020
257.215	6.034	412063	PROB	6.034	n/a	n/a	n/a	1	[5 3 4]	12	pyFR	0	UP020
263.249	1.1	415153	STOP	n/a	n/a	n/a	n/a	1	[-999 -999 -999]	-999	pyFR	0	UP020
264.349	0.848	415716	REC_START	n/a	n/a	n/a	-999	-999	n/a	n/a	pyFR	0	UP020
265.197	1.0	416150	REC_WORD	0.848	n/a	<>	-999	1	n/a	n/a	pyFR	0	UP020
266.197	1.0	416662	REC_WORD	1.848	n/a	<>	-999	1	n/a	n/a	pyFR	0	UP020
267.197	1.0	417174	REC_WORD	2.848	n/a	<>	-999	1	n/a	n/a	pyFR	0	UP020
268.197	1.0	417686	REC_WORD	3.848	n/a	<>	-999	1	n/a	n/a	pyFR	0	UP020
269.197	1.335	418198	REC_WORD	4.848	n/a	<>	-999	1	n/a	n/a	pyFR	0	UP020
270.532	2.356	418882	REC_WORD	6.183	n/a	FRUIT	-999	1	n/a	n/a	pyFR	0	UP020
272.888	2.318	420088	REC_WORD	8.539	n/a	VASE	-999	1	n/a	n/a	pyFR	0	UP020
275.206	1.477	421275	REC_WORD	10.857	n/a	VINE	-999	1	n/a	n/a	pyFR	0	UP020
276.683	2.722	422031	REC_WORD	12.334	n/a	STREET	-999	1	n/a	n/a	pyFR	0	UP020
279.405	3.237	423425	REC_WORD	15.056	n/a	MAT	-999	1	n/a	n/a	pyFR	0	UP020
282.642	15.571	425082	REC_WORD	18.293	n/a	CAPE	-999	1	n/a	n/a	pyFR	0	UP020
298.213	1.483	433055	REC_WORD	33.864	n/a	<>	-999	1	n/a	n/a	pyFR	0	UP020
299.696	27.311	433815	REC_WORD	35.347	n/a	BARK	-999	1	n/a	n/a	pyFR	0	UP020
327.007	0.016	447799	TRIAL	n/a	n/a	n/a	-999	-999	n/a	n/a	pyFR	0	UP020
327.023	2.954	447807	ORIENT	n/a	n/a	n/a	-999	-999	n/a	n/a	pyFR	0	UP020
329.977	2.685	449319	WORD	n/a	wordpools/wordpool_EN.txt	FOOD	1	2	n/a	n/a	pyFR	0	UP020
332.662	2.786	450694	WORD	n/a	wordpools/wordpool_EN.txt	FOAM	2	2	n/a	n/a	pyFR	0	UP020
335.448	2.568	452121	WORD	n/a	wordpools/wordpool_EN.txt	HILL	3	2	n/a	n/a	pyFR	0	UP020
338.016	2.519	453436	WORD	n/a	wordpools/wordpool_EN.txt	SWAMP	4	2	n/a	n/a	pyFR	0	UP020
340.535	2.769	454726	WORD	n/a	wordpools/wordpool_EN.txt	JEEP	5	2	n/a	n/a	pyFR	0	UP020
343.304	2.536	456143	WORD	n/a	wordpools/wordpool_EN.txt	ROPE	6	2	n/a	n/a	pyFR	0	UP020
345.84	2.786	457442	WORD	n/a	wordpools/wordpool_EN.txt	BREAD	7	2	n/a	n/a	pyFR	0	UP020
348.626	2.652	458868	WORD	n/a	wordpools/wordpool_EN.txt	CONE	8	2	n/a	n/a	pyFR	0	UP020
351.278	2.452	460226	WORD	n/a	wordpools/wordpool_EN.txt	GLASS	9	2	n/a	n/a	pyFR	0	UP020
353.73	2.685	461482	WORD	n/a	wordpools/wordpool_EN.txt	CLAY	10	2	n/a	n/a	pyFR	0	UP020
356.415	2.668	462857	WORD	n/a	wordpools/wordpool_EN.txt	PLANE	11	2	n/a	n/a	pyFR	0	UP020
359.083	2.503	464223	WORD	n/a	wordpools/wordpool_EN.txt	MAZE	12	2	n/a	n/a	pyFR	0	UP020
361.586	2.703	465504	WORD	n/a	wordpools/wordpool_EN.txt	PANTS	13	2	n/a	n/a	pyFR	0	UP020
364.289	2.734	466888	WORD	n/a	wordpools/wordpool_EN.txt	BEAK	14	2	n/a	n/a	pyFR	0	UP020
367.023	1.621	468288	WORD	n/a	wordpools/wordpool_EN.txt	PEACH	15	2	n/a	n/a	pyFR	0	UP020
368.644	1.149	469118	START	n/a	n/a	n/a	n/a	2	[-999 -999 -999]	-999	pyFR	0	UP020
369.793	13.128	469707	PROB	13.072	n/a	n/a	n/a	2	[5 5 8]	18	pyFR	0	UP020
382.921	3.62	476429	PROB	3.576	n/a	n/a	n/a	2	[9 7 6]	22	pyFR	0	UP020
386.541	3.396	478282	PROB	3.396	n/a	n/a	n/a	2	[8 2 3]	13	pyFR	0	UP020
389.937	1.074	480021	STOP	n/a	n/a	n/a	n/a	2	[-999 -999 -999]	-999	pyFR	0	UP020
391.011	3.423	480571	REC_START	n/a	n/a	n/a	-999	-999	n/a	n/a	pyFR	0	UP020
394.434	1.064	482324	REC_WORD	3.423	n/a	FOOD	-999	2	n/a	n/a	pyFR	0	UP020
395.498	3.442	482868	REC_WORD	4.487	n/a	MAZE	-999	2	n/a	n/a	pyFR	0	UP020
398.94	2.019	484631	REC_WORD	7.929	n/a	TUNNEL	-999	2	n/a	n/a	pyFR	0	UP020
400.959	10.943	485665	REC_WORD	9.948	n/a	CONE	-999	2	n/a	n/a	pyFR	0	UP020
411.902	1.0	491268	REC_WORD	20.891	n/a	FOOT	-999	2	n/a	n/a	pyFR	0	UP020
412.902	38.544	491780	REC_WORD	21.891	n/a	<>	-999	2	n/a	n/a	pyFR	0	UP020
451.446	0.016	511516	TRIAL	n/a	n/a	n/a	-999	-999	n/a	n/a	pyFR	0	UP020
451.462	3.019	511524	ORIENT	n/a	n/a	n/a	-999	-999	n/a	n/a	pyFR	0	UP020
454.481	2.668	513070	WORD	n/a	wordpools/wordpool_EN.txt	DITCH	1	3	n/a	n/a	pyFR	0	UP020
457.149	2.52	514436	WORD	n/a	wordpools/wordpool_EN.txt	AXE	2	3	n/a	n/a	pyFR	0	UP020
459.669	2.602	515726	WORD	n/a	wordpools/wordpool_EN.txt	FORK	3	3	n/a	n/a	pyFR	0	UP020
462.271	2.535	517058	WORD	n/a	wordpools/wordpool_EN.txt	CAR	4	3	n/a	n/a	pyFR	0	UP020
464.806	2.569	518356	WORD	n/a	wordpools/wordpool_EN.txt	BEE	5	3	n/a	n/a	pyFR	0	UP020
467.375	2.785	519672	WORD	n/a	wordpools/wordpool_EN.txt	SNAIL	6	3	n/a	n/a	pyFR	0	UP020
470.16	2.62	521098	WORD	n/a	wordpools/wordpool_EN.txt	LAWN	7	3	n/a	n/a	pyFR	0	UP020
472.78	2.435	522439	WORD	n/a	wordpools/wordpool_EN.txt	SAIL	8	3	n/a	n/a	pyFR	0	UP020
475.215	2.519	523686	WORD	n/a	wordpools/wordpool_EN.txt	HAWK	9	3	n/a	n/a	pyFR	0	UP020
477.734	2.469	524976	WORD	n/a	wordpools/wordpool_EN.txt	BARN	10	3	n/a	n/a	pyFR	0	UP020
480.203	2.452	526240	WORD	n/a	wordpools/wordpool_EN.txt	SKUNK	11	3	n/a	n/a	pyFR	0	UP020
482.655	2.769	527496	WORD	n/a	wordpools/wordpool_EN.txt	ICE	12	3	n/a	n/a	pyFR	0	UP020
485.424	2.452	528913	WORD	n/a	wordpools/wordpool_EN.txt	WOLF	13	3	n/a	n/a	pyFR	0	UP020
487.876	2.719	530169	WORD	n/a	wordpools/wordpool_EN.txt	CART	14	3	n/a	n/a	pyFR	0	UP020
490.595	1.619	531561	WORD	n/a	wordpools/wordpool_EN.txt	APE	15	3	n/a	n/a	pyFR	0	UP020
492.214	0.932	532390	START	n/a	n/a	n/a	n/a	3	[-999 -999 -999]	-999	pyFR	0	UP020
493.146	6.74	532867	PROB	6.695	n/a	n/a	n/a	3	[4 2 7]	14	pyFR	0	UP020
499.886	11.443	536318	PROB	11.395	n/a	n/a	n/a	3	[6 1 5]	12	pyFR	0	UP020
511.329	7.695	542178	PROB	7.695	n/a	n/a	n/a	3	[7 8 4]	19	pyFR	0	UP020
519.024	1.23	546118	STOP	n/a	n/a	n/a	n/a	3	[-999 -999 -999]	-999	pyFR	0	UP020
520.254	2.827	546748	REC_START	n/a	n/a	n/a	-999	-999	n/a	n/a	pyFR	0	UP020
523.081	1.137	548195	REC_WORD	2.827	n/a	AXE	-999	3	n/a	n/a	pyFR	0	UP020
524.218	3.787	548777	REC_WORD	3.964	n/a	CONE	-999	3	n/a	n/a	pyFR	0	UP020
528.005	4.196	550716	REC_WORD	7.751	n/a	<>	-999	3	n/a	n/a	pyFR	0	UP020
532.201	20.1	552865	REC_WORD	11.947	n/a	<>	-999	3	n/a	n/a	pyFR	0	UP020
552.301	63.45	563157	REC_WORD	32.047	n/a	BARN	-999	3	n/a	n/a	pyFR	0	UP020
615.751	0.015	595645	TRIAL	n/a	n/a	n/a	-999	-999	n/a	n/a	pyFR	0	UP020
615.766	3.003	595653	ORIENT	n/a	n/a	n/a	-999	-999	n/a	n/a	pyFR	0	UP020
618.769	2.786	597190	WORD	n/a	wordpools/wordpool_EN.txt	PEARL	1	4	n/a	n/a	pyFR	0	UP020
621.555	2.685	598617	WORD	n/a	wordpools/wordpool_EN.txt	WALL	2	4	n/a	n/a	pyFR	0	UP020
624.24	2.768	599992	WORD	n/a	wordpools/wordpool_EN.txt	STOVE	3	4	n/a	n/a	pyFR	0	UP020
627.008	2.687	601409	WORD	n/a	wordpools/wordpool_EN.txt	BAG	4	4	n/a	n/a	pyFR	0	UP020
629.695	2.468	602785	WORD	n/a	wordpools/wordpool_EN.txt	GOLD	5	4	n/a	n/a	pyFR	0	UP020
632.163	2.719	604049	WORD	n/a	wordpools/wordpool_EN.txt	PRINCE	6	4	n/a	n/a	pyFR	0	UP020
634.882	2.636	605441	WORD	n/a	wordpools/wordpool_EN.txt	FLEA	7	4	n/a	n/a	pyFR	0	UP020
637.518	2.786	606791	WORD	n/a	wordpools/wordpool_EN.txt	CALF	8	4	n/a	n/a	pyFR	0	UP020
640.304	2.602	608217	WORD	n/a	wordpools/wordpool_EN.txt	ROOF	9	4	n/a	n/a	pyFR	0	UP020
642.906	2.652	609549	WORD	n/a	wordpools/wordpool_EN.txt	PEAR	10	4	n/a	n/a	pyFR	0	UP020
645.558	2.752	610907	WORD	n/a	wordpools/wordpool_EN.txt	SHRIMP	11	4	n/a	n/a	pyFR	0	UP020
648.31	2.486	612316	WORD	n/a	wordpools/wordpool_EN.txt	RICE	12	4	n/a	n/a	pyFR	0	UP020
650.796	2.569	613589	WORD	n/a	wordpools/wordpool_EN.txt	PHONE	13	4	n/a	n/a	pyFR	0	UP020
653.365	2.535	614905	WORD	n/a	wordpools/wordpool_EN.txt	BLUSH	14	4	n/a	n/a	pyFR	0	UP020
655.9	1.62	616203	WORD	n/a	wordpools/wordpool_EN.txt	GRASS	15	4	n/a	n/a	pyFR	0	UP020
657.52	1.183	617032	START	n/a	n/a	n/a	n/a	4	[-999 -999 -999]	-999	pyFR	0	UP020
658.703	9.007	617638	PROB	8.962	n/a	n/a	n/a	4	[9 5 4]	18	pyFR	0	UP020
667.71	3.036	622250	PROB	2.987	n/a	n/a	n/a	4	[9 1 1]	11	pyFR	0	UP020
670.746	5.303	623804	PROB	5.254	n/a	n/a	n/a	4	[3 1 4]	8	pyFR	0	UP020
676.049	4.144	626520	PROB	4.144	n/a	n/a	n/a	4	[6 9 2]	17	pyFR	0	UP020
680.193	1.162	628642	STOP	n/a	n/a	n/a	n/a	4	[-999 -999 -999]	-999	pyFR	0	UP020
681.355	1.866	629237	REC_START	n/a	n/a	n/a	-999	-999	n/a	n/a	pyFR	0	UP020
683.221	1.291	630192	REC_WORD	1.866	n/a	PEARL	-999	4	n/a	n/a	pyFR	0	UP020
684.512	6.588	630853	REC_WORD	3.157	n/a	PRINCESS	-999	4	n/a	n/a	pyFR	0	UP020
691.1	8.655	634226	REC_WORD	9.745	n/a	WIFE	-999	4	n/a	n/a	pyFR	0	UP020
699.755	16.257	638658	REC_WORD	18.4	n/a	PEAR	-999	4	n/a	n/a	pyFR	0	UP020
716.012	27.713	646982	REC_WORD	34.657	n/a	GOLD	-999	4	n/a	n/a	pyFR	0	UP020
743.725	0.016	661172	TRIAL	n/a	n/a	n/a	-999	-999	n/a	n/a	pyFR	0	UP020
743.741	2.652	661180	ORIENT	n/a	n/a	n/a	-999	-999	n/a	n/a	pyFR	0	UP020
746.393	2.502	662538	WORD	n/a	wordpools/wordpool_EN.txt	SOCK	1	5	n/a	n/a	pyFR	0	UP020
748.895	2.485	663819	WORD	n/a	wordpools/wordpool_EN.txt	QUEEN	2	5	n/a	n/a	pyFR	0	UP020
751.38	2.702	665092	WORD	n/a	wordpools/wordpool_EN.txt	CAGE	3	5	n/a	n/a	pyFR	0	UP020
754.082	2.636	666475	WORD	n/a	wordpools/wordpool_EN.txt	RIB	4	5	n/a	n/a	pyFR	0	UP020
756.718	2.469	667825	WORD	n/a	wordpools/wordpool_EN.txt	PIT	5	5	n/a	n/a	pyFR	0	UP020
759.187	2.468	669089	WORD	n/a	wordpools/wordpool_EN.txt	STAIR	6	5	n/a	n/a	pyFR	0	UP020
761.655	2.519	670353	WORD	n/a	wordpools/wordpool_EN.txt	SHOE	7	5	n/a	n/a	pyFR	0	UP020
764.174	2.436	671643	WORD	n/a	wordpools/wordpool_EN.txt	CAKE	8	5	n/a	n/a	pyFR	0	UP020
766.61	2.735	672890	WORD	n/a	wordpools/wordpool_EN.txt	TREE	9	5	n/a	n/a	pyFR	0	UP020
769.345	2.486	674290	WORD	n/a	wordpools/wordpool_EN.txt	CHIN	10	5	n/a	n/a	pyFR	0	UP020
771.831	2.769	675563	WORD	n/a	wordpools/wordpool_EN.txt	SPONGE	11	5	n/a	n/a	pyFR	0	UP020
774.6	2.702	676981	WORD	n/a	wordpools/wordpool_EN.txt	WAND	12	5	n/a	n/a	pyFR	0	UP020
777.302	2.785	678365	WORD	n/a	wordpools/wordpool_EN.txt	BOY	13	5	n/a	n/a	pyFR	0	UP020
780.087	2.603	679791	WORD	n/a	wordpools/wordpool_EN.txt	PEA	14	5	n/a	n/a	pyFR	0	UP020
782.69	1.619	681123	WORD	n/a	wordpools/wordpool_EN.txt	LEAF	15	5	n/a	n/a	pyFR	0	UP020
784.309	1.116	681952	START	n/a	n/a	n/a	n/a	5	[-999 -999 -999]	-999	pyFR	0	UP020
785.425	5.255	682524	PROB	5.2	n/a	n/a	n/a	5	[5 5 5]	15	pyFR	0	UP020
790.68	3.52	685215	PROB	3.464	n/a	n/a	n/a	5	[3 4 1]	8	pyFR	0	UP020
794.2	5.554	687017	PROB	5.513	n/a	n/a	n/a	5	[3 2 9]	14	pyFR	0	UP020
799.754	7.727	689861	PROB	7.727	n/a	n/a	n/a	5	[8 6 5]	19	pyFR	0	UP020
807.481	1.165	693817	STOP	n/a	n/a	n/a	n/a	5	[-999 -999 -999]	-999	pyFR	0	UP020
808.646	2.295	694414	REC_START	n/a	n/a	n/a	-999	-999	n/a	n/a	pyFR	0	UP020
810.941	3.407	695589	REC_WORD	2.295	n/a	SOCK	-999	5	n/a	n/a	pyFR	0	UP020
814.348	9.314	697333	REC_WORD	5.702	n/a	PEAR	-999	5	n/a	n/a	pyFR	0	UP020
823.662	1.759	702102	REC_WORD	15.016	n/a	WAND	-999	5	n/a	n/a	pyFR	0	UP020
825.421	11.052	703003	REC_WORD	16.775	n/a	BOY	-999	5	n/a	n/a	pyFR	0	UP020
836.473	9.429	708662	REC_WORD	27.827	n/a	STUFF	-999	5	n/a	n/a	pyFR	0	UP020
845.902	2.151	713490	REC_WORD	37.256	n/a	<>	-999	5	n/a	n/a	pyFR	0	UP020
848.053	77.056	714591	REC_WORD	39.407	n/a	<>	-999	5	n/a	n/a	pyFR	0	UP020
925.109	0.016	754047	TRIAL	n/a	n/a	n/a	-999	-999	n/a	n/a	pyFR	0	UP020
925.125	2.737	754055	ORIENT	n/a	n/a	n/a	-999	-999	n/a	n/a	pyFR	0	UP020
927.862	2.502	755456	WORD	n/a	wordpools/wordpool_EN.txt	CRANE	1	6	n/a	n/a	pyFR	0	UP020
930.364	2.651	756737	WORD	n/a	wordpools/wordpool_EN.txt	PARK	2	6	n/a	n/a	pyFR	0	UP020
933.015	2.653	758095	WORD	n/a	wordpools/wordpool_EN.txt	BENCH	3	6	n/a	n/a	pyFR	0	UP020
935.668	2.451	759453	WORD	n/a	wordpools/wordpool_EN.txt	BOOK	4	6	n/a	n/a	pyFR	0	UP020
938.119	2.603	760708	WORD	n/a	wordpools/wordpool_EN.txt	STORM	5	6	n/a	n/a	pyFR	0	UP020
940.722	2.586	762041	WORD	n/a	wordpools/wordpool_EN.txt	GRAPE	6	6	n/a	n/a	pyFR	0	UP020
943.308	2.818	763365	WORD	n/a	wordpools/wordpool_EN.txt	PIN	7	6	n/a	n/a	pyFR	0	UP020
946.126	2.687	764808	WORD	n/a	wordpools/wordpool_EN.txt	LIP	8	6	n/a	n/a	pyFR	0	UP020
948.813	2.602	766184	WORD	n/a	wordpools/wordpool_EN.txt	WORLD	9	6	n/a	n/a	pyFR	0	UP020
951.415	2.519	767516	WORD	n/a	wordpools/wordpool_EN.txt	RAKE	10	6	n/a	n/a	pyFR	0	UP020
953.934	2.568	768806	WORD	n/a	wordpools/wordpool_EN.txt	KING	11	6	n/a	n/a	pyFR	0	UP020
956.502	2.602	770121	WORD	n/a	wordpools/wordpool_EN.txt	GOAT	12	6	n/a	n/a	pyFR	0	UP020
959.104	2.753	771453	WORD	n/a	wordpools/wordpool_EN.txt	KEY	13	6	n/a	n/a	pyFR	0	UP020
961.857	2.552	772863	WORD	n/a	wordpools/wordpool_EN.txt	FUDGE	14	6	n/a	n/a	pyFR	0	UP020
964.409	1.619	774170	WORD	n/a	wordpools/wordpool_EN.txt	TOE	15	6	n/a	n/a	pyFR	0	UP020
966.028	0.966	774998	START	n/a	n/a	n/a	n/a	6	[-999 -999 -999]	-999	pyFR	0	UP020
966.994	11.125	775493	PROB	11.078	n/a	n/a	n/a	6	[6 5 9]	20	pyFR	0	UP020
978.119	4.322	781189	PROB	4.274	n/a	n/a	n/a	6	[1 7 4]	12	pyFR	0	UP020
982.441	3.169	783402	PROB	3.12	n/a	n/a	n/a	6	[9 1 3]	13	pyFR	0	UP020
985.61	4.039	785025	PROB	4.039	n/a	n/a	n/a	6	[9 2 8]	19	pyFR	0	UP020
989.649	1.099	787093	STOP	n/a	n/a	n/a	n/a	6	[-999 -999 -999]	-999	pyFR	0	UP020
990.748	2.504	787656	REC_START	n/a	n/a	n/a	-999	-999	n/a	n/a	pyFR	0	UP020
993.252	3.756	788938	REC_WORD	2.504	n/a	CRANE	-999	6	n/a	n/a	pyFR	0	UP020
997.008	0.264	790861	REC_WORD	6.26	n/a	<>	-999	6	n/a	n/a	pyFR	0	UP020
997.272	2.404	790996	REC_WORD	6.524	n/a	BOOK	-999	6	n/a	n/a	pyFR	0	UP020
999.676	8.055	792227	REC_WORD	8.928	n/a	FUDGE	-999	6	n/a	n/a	pyFR	0	UP020
1007.731	15.825	796352	REC_WORD	16.983	n/a	SPRING	-999	6	n/a	n/a	pyFR	0	UP020
1023.556	18.936	804455	REC_WORD	32.808	n/a	KEY	-999	6	n/a	n/a	pyFR	0	UP020
1042.492	0.016	814151	TRIAL	n/a	n/a	n/a	-999	-999	n/a	n/a	pyFR	0	UP020
1042.508	2.869	814159	ORIENT	n/a	n/a	n/a	-999	-999	n/a	n/a	pyFR	0	UP020
1045.377	2.651	815628	WORD	n/a	wordpools/wordpool_EN.txt	LAND	1	7	n/a	n/a	pyFR	0	UP020
1048.028	2.453	816985	WORD	n/a	wordpools/wordpool_EN.txt	PET	2	7	n/a	n/a	pyFR	0	UP020
1050.481	2.752	818241	WORD	n/a	wordpools/wordpool_EN.txt	VAN	3	7	n/a	n/a	pyFR	0	UP020
1053.233	2.553	819650	WORD	n/a	wordpools/wordpool_EN.txt	SHIP	4	7	n/a	n/a	pyFR	0	UP020
1055.786	2.702	820958	WORD	n/a	wordpools/wordpool_EN.txt	FLAG	5	7	n/a	n/a	pyFR	0	UP020
1058.488	2.769	822341	WORD	n/a	wordpools/wordpool_EN.txt	MOON	6	7	n/a	n/a	pyFR	0	UP020
1061.257	2.818	823759	WORD	n/a	wordpools/wordpool_EN.txt	PIG	7	7	n/a	n/a	pyFR	0	UP020
1064.075	2.586	825202	WORD	n/a	wordpools/wordpool_EN.txt	HORSE	8	7	n/a	n/a	pyFR	0	UP020
1066.661	2.703	826526	WORD	n/a	wordpools/wordpool_EN.txt	CASH	9	7	n/a	n/a	pyFR	0	UP020
1069.364	2.619	827910	WORD	n/a	wordpools/wordpool_EN.txt	MOUTH	10	7	n/a	n/a	pyFR	0	UP020
1071.983	2.585	829251	WORD	n/a	wordpools/wordpool_EN.txt	STOOL	11	7	n/a	n/a	pyFR	0	UP020
1074.568	2.451	830575	WORD	n/a	wordpools/wordpool_EN.txt	TOY	12	7	n/a	n/a	pyFR	0	UP020
1077.019	2.487	831830	WORD	n/a	wordpools/wordpool_EN.txt	SEAL	13	7	n/a	n/a	pyFR	0	UP020
1079.506	2.534	833103	WORD	n/a	wordpools/wordpool_EN.txt	TEETH	14	7	n/a	n/a	pyFR	0	UP020
1082.04	1.621	834400	WORD	n/a	wordpools/wordpool_EN.txt	BRUSH	15	7	n/a	n/a	pyFR	0	UP020
1083.661	1.149	835230	START	n/a	n/a	n/a	n/a	7	[-999 -999 -999]	-999	pyFR	0	UP020
1084.81	9.024	835819	PROB	8.983	n/a	n/a	n/a	7	[5 3 9]	17	pyFR	0	UP020
1093.834	2.903	840439	PROB	2.855	n/a	n/a	n/a	7	[1 9 5]	15	pyFR	0	UP020
1096.737	4.269	841926	PROB	4.216	n/a	n/a	n/a	7	[6 3 6]	15	pyFR	0	UP020
1101.006	4.739	844112	PROB	4.739	n/a	n/a	n/a	7	[8 6 1]	15	pyFR	0	UP020
1105.745	1.084	846538	STOP	n/a	n/a	n/a	n/a	7	[-999 -999 -999]	-999	pyFR	0	UP020
1106.829	1.365	847093	REC_START	n/a	n/a	n/a	-999	-999	n/a	n/a	pyFR	0	UP020
1108.194	1.085	847792	REC_WORD	1.365	n/a	LAND	-999	7	n/a	n/a	pyFR	0	UP020
1109.279	0.989	848348	REC_WORD	2.45	n/a	PET	-999	7	n/a	n/a	pyFR	0	UP020
1110.268	2.288	848854	REC_WORD	3.439	n/a	CASH	-999	7	n/a	n/a	pyFR	0	UP020
1112.556	1.354	850026	REC_WORD	5.727	n/a	STOOL	-999	7	n/a	n/a	pyFR	0	UP020
1113.91	3.642	850719	REC_WORD	7.081	n/a	BRUSH	-999	7	n/a	n/a	pyFR	0	UP020
1117.552	4.56	852584	REC_WORD	10.723	n/a	TOOL	-999	7	n/a	n/a	pyFR	0	UP020
1122.112	3.328	854919	REC_WORD	15.283	n/a	<>	-999	7	n/a	n/a	pyFR	0	UP020
1125.44	1.0	856623	REC_WORD	18.611	n/a	HOUSE	-999	7	n/a	n/a	pyFR	0	UP020
1126.44	2.991	857135	REC_WORD	19.611	n/a	<>	-999	7	n/a	n/a	pyFR	0	UP020
1129.431	9.939	858666	REC_WORD	22.602	n/a	<>	-999	7	n/a	n/a	pyFR	0	UP020
1139.37	36.317	863755	REC_WORD	32.541	n/a	<>	-999	7	n/a	n/a	pyFR	0	UP020
1175.687	0.016	882351	TRIAL	n/a	n/a	n/a	-999	-999	n/a	n/a	pyFR	0	UP020
1175.703	2.969	882359	ORIENT	n/a	n/a	n/a	-999	-999	n/a	n/a	pyFR	0	UP020
1178.672	2.636	883879	WORD	n/a	wordpools/wordpool_EN.txt	ROOM	1	8	n/a	n/a	pyFR	0	UP020
1181.308	2.602	885229	WORD	n/a	wordpools/wordpool_EN.txt	SLEEVE	2	8	n/a	n/a	pyFR	0	UP020
1183.91	2.519	886561	WORD	n/a	wordpools/wordpool_EN.txt	SEED	3	8	n/a	n/a	pyFR	0	UP020
1186.429	2.502	887851	WORD	n/a	wordpools/wordpool_EN.txt	GUARD	4	8	n/a	n/a	pyFR	0	UP020
1188.931	2.602	889132	WORD	n/a	wordpools/wordpool_EN.txt	TRUCK	5	8	n/a	n/a	pyFR	0	UP020
1191.533	2.484	890464	WORD	n/a	wordpools/wordpool_EN.txt	FARM	6	8	n/a	n/a	pyFR	0	UP020
1194.017	2.57	891736	WORD	n/a	wordpools/wordpool_EN.txt	MOLE	7	8	n/a	n/a	pyFR	0	UP020
1196.587	2.803	893052	WORD	n/a	wordpools/wordpool_EN.txt	JUDGE	8	8	n/a	n/a	pyFR	0	UP020
1199.39	2.485	894488	WORD	n/a	wordpools/wordpool_EN.txt	SLUSH	9	8	n/a	n/a	pyFR	0	UP020
1201.875	2.619	895760	WORD	n/a	wordpools/wordpool_EN.txt	CAVE	10	8	n/a	n/a	pyFR	0	UP020
1204.494	2.769	897101	WORD	n/a	wordpools/wordpool_EN.txt	CUBE	11	8	n/a	n/a	pyFR	0	UP020
1207.263	2.685	898519	WORD	n/a	wordpools/wordpool_EN.txt	MAIL	12	8	n/a	n/a	pyFR	0	UP020
1209.948	2.469	899894	WORD	n/a	wordpools/wordpool_EN.txt	ROAD	13	8	n/a	n/a	pyFR	0	UP020
1212.417	2.786	901158	WORD	n/a	wordpools/wordpool_EN.txt	BRANCH	14	8	n/a	n/a	pyFR	0	UP020
1215.203	1.619	902584	WORD	n/a	wordpools/wordpool_EN.txt	PLATE	15	8	n/a	n/a	pyFR	0	UP020
1216.822	1.116	903413	START	n/a	n/a	n/a	n/a	8	[-999 -999 -999]	-999	pyFR	0	UP020
1217.938	9.058	903985	PROB	9.007	n/a	n/a	n/a	8	[6 4 6]	16	pyFR	0	UP020
1226.996	5.988	908623	PROB	5.933	n/a	n/a	n/a	8	[1 4 1]	6	pyFR	0	UP020
1232.984	5.377	911689	PROB	5.377	n/a	n/a	n/a	8	[4 6 7]	17	pyFR	0	UP020
1238.361	1.129	914442	STOP	n/a	n/a	n/a	n/a	8	[-999 -999 -999]	-999	pyFR	0	UP020
1239.49	2.372	915020	REC_START	n/a	n/a	n/a	-999	-999	n/a	n/a	pyFR	0	UP020
1241.862	1.89	916235	REC_WORD	2.372	n/a	CUBE	-999	8	n/a	n/a	pyFR	0	UP020
1243.752	2.582	917202	REC_WORD	4.262	n/a	CAVE	-999	8	n/a	n/a	pyFR	0	UP020
1246.334	5.838	918524	REC_WORD	6.844	n/a	LAND	-999	8	n/a	n/a	pyFR	0	UP020
1252.172	5.328	921514	REC_WORD	12.682	n/a	<>	-999	8	n/a	n/a	pyFR	0	UP020
1257.5	10.97	924242	REC_WORD	18.01	n/a	<>	-999	8	n/a	n/a	pyFR	0	UP020
1268.47	1.0	929859	REC_WORD	28.98	n/a	PUNCH	-999	8	n/a	n/a	pyFR	0	UP020
1269.47	9.119	930371	REC_WORD	29.98	n/a	<>	-999	8	n/a	n/a	pyFR	0	UP020
1278.589	0.0	935040	REC_WORD	39.099	n/a	<>	-999	8	n/a	n/a	pyFR	0	UP020
