onset	duration	sample	trial_type	response_time	stim_file	item_name	serialpos	list	test	answer	experiment	session	subject
0.0	2.224	2414940	E	n/a	n/a	n/a	-999	16	n/a	n/a	pyFR	2	TJ075
2.224	0.0	2417164	SESS_START	n/a	n/a	n/a	-999	-999	n/a	n/a	pyFR	2	TJ075
2.224	10.802	2417164	B	n/a	n/a	n/a	-999	-999	n/a	n/a	pyFR	2	TJ075
13.026	0.024	2427965	START	n/a	n/a	n/a	n/a	0	[-999 -999 -999]	-999	pyFR	2	TJ075
13.05	8.023	2427989	PROB	n/a	n/a	n/a	n/a	0	[2 9 9]	20	pyFR	2	TJ075
21.073	7.156	2436012	PROB	n/a	n/a	n/a	n/a	0	[1 9 4]	14	pyFR	2	TJ075
28.229	16.329	2443168	PROB	n/a	n/a	n/a	n/a	0	[7 3 6]	16	pyFR	2	TJ075
44.558	27.209	2459496	STOP	n/a	n/a	n/a	n/a	0	[-999 -999 -999]	-999	pyFR	2	TJ075
71.767	0.016	2486704	TRIAL	n/a	n/a	n/a	-999	1	n/a	n/a	pyFR	2	TJ075
71.783	2.803	2486720	ORIENT	n/a	n/a	n/a	-999	1	n/a	n/a	pyFR	2	TJ075
74.586	2.467	2489523	WORD	n/a	wordpools/wordpool_EN.txt	CORN	1	1	n/a	n/a	pyFR	2	TJ075
77.053	2.47	2491990	WORD	n/a	wordpools/wordpool_EN.txt	SEA	2	1	n/a	n/a	pyFR	2	TJ075
79.523	2.668	2494459	WORD	n/a	wordpools/wordpool_EN.txt	BREAD	3	1	n/a	n/a	pyFR	2	TJ075
82.191	2.487	2497127	WORD	n/a	wordpools/wordpool_EN.txt	CANE	4	1	n/a	n/a	pyFR	2	TJ075
84.678	2.685	2499614	WORD	n/a	wordpools/wordpool_EN.txt	WOLF	5	1	n/a	n/a	pyFR	2	TJ075
87.363	2.802	2502299	WORD	n/a	wordpools/wordpool_EN.txt	BALL	6	1	n/a	n/a	pyFR	2	TJ075
90.165	2.536	2505101	WORD	n/a	wordpools/wordpool_EN.txt	BATH	7	1	n/a	n/a	pyFR	2	TJ075
92.701	2.418	2507637	WORD	n/a	wordpools/wordpool_EN.txt	JAIL	8	1	n/a	n/a	pyFR	2	TJ075
95.119	2.436	2510055	WORD	n/a	wordpools/wordpool_EN.txt	TRASH	9	1	n/a	n/a	pyFR	2	TJ075
97.555	2.534	2512491	WORD	n/a	wordpools/wordpool_EN.txt	BARN	10	1	n/a	n/a	pyFR	2	TJ075
100.089	2.504	2515025	WORD	n/a	wordpools/wordpool_EN.txt	PALM	11	1	n/a	n/a	pyFR	2	TJ075
102.593	2.702	2517528	WORD	n/a	wordpools/wordpool_EN.txt	SHIRT	12	1	n/a	n/a	pyFR	2	TJ075
105.295	2.435	2520230	WORD	n/a	wordpools/wordpool_EN.txt	TEETH	13	1	n/a	n/a	pyFR	2	TJ075
107.73	2.418	2522665	WORD	n/a	wordpools/wordpool_EN.txt	FLUTE	14	1	n/a	n/a	pyFR	2	TJ075
110.148	1.604	2525083	WORD	n/a	wordpools/wordpool_EN.txt	VEST	15	1	n/a	n/a	pyFR	2	TJ075
111.752	0.866	2526687	START	n/a	n/a	n/a	n/a	1	[-999 -999 -999]	-999	pyFR	2	TJ075
112.618	5.321	2527553	PROB	n/a	n/a	n/a	n/a	1	[2 6 5]	18	pyFR	2	TJ075
117.939	12.142	2532874	PROB	n/a	n/a	n/a	n/a	1	[3 7 8]	23	pyFR	2	TJ075
130.081	8.083	2545015	PROB	n/a	n/a	n/a	n/a	1	[9 6 3]	18	pyFR	2	TJ075
138.164	1.176	2553098	STOP	n/a	n/a	n/a	n/a	1	[-999 -999 -999]	-999	pyFR	2	TJ075
139.34	0.873	2554274	REC_START	n/a	n/a	n/a	-999	1	n/a	n/a	pyFR	2	TJ075
140.213	1.496	2555147	REC_WORD_VV	1.496	n/a	<>	-999	1	n/a	n/a	pyFR	2	TJ075
141.709	0.861	2556643	REC_WORD	0.861	n/a	VEST	-999	1	n/a	n/a	pyFR	2	TJ075
142.57	2.13	2557504	REC_WORD	2.13	n/a	SHIRT	-999	1	n/a	n/a	pyFR	2	TJ075
144.7	1.836	2559634	REC_WORD	1.836	n/a	WOLF	-999	1	n/a	n/a	pyFR	2	TJ075
146.536	1.347	2561470	REC_WORD_VV	1.347	n/a	<>	-999	1	n/a	n/a	pyFR	2	TJ075
147.883	2.503	2562817	REC_WORD	2.503	n/a	BREAD	-999	1	n/a	n/a	pyFR	2	TJ075
150.386	10.993	2565319	REC_WORD_VV	10.993	n/a	<>	-999	1	n/a	n/a	pyFR	2	TJ075
161.379	44.401	2576312	REC_WORD_VV	44.401	n/a	<>	-999	1	n/a	n/a	pyFR	2	TJ075
205.78	0.016	2620711	TRIAL	n/a	n/a	n/a	-999	2	n/a	n/a	pyFR	2	TJ075
205.796	2.802	2620727	ORIENT	n/a	n/a	n/a	-999	2	n/a	n/a	pyFR	2	TJ075
208.598	2.551	2623529	WORD	n/a	wordpools/wordpool_EN.txt	STORE	1	2	n/a	n/a	pyFR	2	TJ075
211.149	2.47	2626080	WORD	n/a	wordpools/wordpool_EN.txt	CAKE	2	2	n/a	n/a	pyFR	2	TJ075
213.619	2.534	2628550	WORD	n/a	wordpools/wordpool_EN.txt	SHARK	3	2	n/a	n/a	pyFR	2	TJ075
216.153	2.587	2631084	WORD	n/a	wordpools/wordpool_EN.txt	FARM	4	2	n/a	n/a	pyFR	2	TJ075
218.74	2.535	2633671	WORD	n/a	wordpools/wordpool_EN.txt	BUSH	5	2	n/a	n/a	pyFR	2	TJ075
221.275	2.519	2636205	WORD	n/a	wordpools/wordpool_EN.txt	CLOUD	6	2	n/a	n/a	pyFR	2	TJ075
223.794	2.736	2638724	WORD	n/a	wordpools/wordpool_EN.txt	MILK	7	2	n/a	n/a	pyFR	2	TJ075
226.53	2.535	2641460	WORD	n/a	wordpools/wordpool_EN.txt	WALL	8	2	n/a	n/a	pyFR	2	TJ075
229.065	2.719	2643995	WORD	n/a	wordpools/wordpool_EN.txt	CLAY	9	2	n/a	n/a	pyFR	2	TJ075
231.784	2.753	2646714	WORD	n/a	wordpools/wordpool_EN.txt	BOAT	10	2	n/a	n/a	pyFR	2	TJ075
234.537	2.618	2649467	WORD	n/a	wordpools/wordpool_EN.txt	DAD	11	2	n/a	n/a	pyFR	2	TJ075
237.155	2.619	2652085	WORD	n/a	wordpools/wordpool_EN.txt	FORT	12	2	n/a	n/a	pyFR	2	TJ075
239.774	2.485	2654704	WORD	n/a	wordpools/wordpool_EN.txt	BOWL	13	2	n/a	n/a	pyFR	2	TJ075
242.259	2.586	2657189	WORD	n/a	wordpools/wordpool_EN.txt	WEB	14	2	n/a	n/a	pyFR	2	TJ075
244.845	1.603	2659774	WORD	n/a	wordpools/wordpool_EN.txt	DEER	15	2	n/a	n/a	pyFR	2	TJ075
246.448	0.866	2661377	START	n/a	n/a	n/a	n/a	2	[-999 -999 -999]	-999	pyFR	2	TJ075
247.314	6.422	2662243	PROB	n/a	n/a	n/a	n/a	2	[3 9 6]	18	pyFR	2	TJ075
253.736	3.086	2668665	PROB	n/a	n/a	n/a	n/a	2	[1 4 1]	6	pyFR	2	TJ075
256.822	3.636	2671751	PROB	n/a	n/a	n/a	n/a	2	[6 3 2]	12	pyFR	2	TJ075
260.458	6.65	2675387	PROB	n/a	n/a	n/a	n/a	2	[5 3 6]	14	pyFR	2	TJ075
267.108	1.123	2682036	STOP	n/a	n/a	n/a	n/a	2	[-999 -999 -999]	-999	pyFR	2	TJ075
268.231	2.491	2683159	REC_START	n/a	n/a	n/a	-999	2	n/a	n/a	pyFR	2	TJ075
270.722	10.942	2685650	REC_WORD_VV	10.942	n/a	<>	-999	2	n/a	n/a	pyFR	2	TJ075
281.664	89.387	2696592	REC_WORD_VV	89.387	n/a	<>	-999	2	n/a	n/a	pyFR	2	TJ075
371.051	0.016	2785975	TRIAL	n/a	n/a	n/a	-999	3	n/a	n/a	pyFR	2	TJ075
371.067	2.803	2785991	ORIENT	n/a	n/a	n/a	-999	3	n/a	n/a	pyFR	2	TJ075
373.87	2.636	2788794	WORD	n/a	wordpools/wordpool_EN.txt	MUD	1	3	n/a	n/a	pyFR	2	TJ075
376.506	2.819	2791430	WORD	n/a	wordpools/wordpool_EN.txt	RUG	2	3	n/a	n/a	pyFR	2	TJ075
379.325	2.452	2794249	WORD	n/a	wordpools/wordpool_EN.txt	FOG	3	3	n/a	n/a	pyFR	2	TJ075
381.777	2.585	2796701	WORD	n/a	wordpools/wordpool_EN.txt	FOAM	4	3	n/a	n/a	pyFR	2	TJ075
384.362	2.502	2799285	WORD	n/a	wordpools/wordpool_EN.txt	DOOR	5	3	n/a	n/a	pyFR	2	TJ075
386.864	2.703	2801787	WORD	n/a	wordpools/wordpool_EN.txt	LAKE	6	3	n/a	n/a	pyFR	2	TJ075
389.567	2.719	2804490	WORD	n/a	wordpools/wordpool_EN.txt	CAR	7	3	n/a	n/a	pyFR	2	TJ075
392.286	2.734	2807209	WORD	n/a	wordpools/wordpool_EN.txt	OAR	8	3	n/a	n/a	pyFR	2	TJ075
395.02	2.57	2809943	WORD	n/a	wordpools/wordpool_EN.txt	FROG	9	3	n/a	n/a	pyFR	2	TJ075
397.59	2.551	2812513	WORD	n/a	wordpools/wordpool_EN.txt	BOMB	10	3	n/a	n/a	pyFR	2	TJ075
400.141	2.654	2815064	WORD	n/a	wordpools/wordpool_EN.txt	SUN	11	3	n/a	n/a	pyFR	2	TJ075
402.795	2.484	2817718	WORD	n/a	wordpools/wordpool_EN.txt	WORLD	12	3	n/a	n/a	pyFR	2	TJ075
405.279	2.453	2820202	WORD	n/a	wordpools/wordpool_EN.txt	JUICE	13	3	n/a	n/a	pyFR	2	TJ075
407.732	2.535	2822654	WORD	n/a	wordpools/wordpool_EN.txt	SPEAR	14	3	n/a	n/a	pyFR	2	TJ075
410.267	1.603	2825189	WORD	n/a	wordpools/wordpool_EN.txt	GRAPE	15	3	n/a	n/a	pyFR	2	TJ075
411.87	1.05	2826792	START	n/a	n/a	n/a	n/a	3	[-999 -999 -999]	-999	pyFR	2	TJ075
412.92	6.104	2827842	PROB	n/a	n/a	n/a	n/a	3	[7 4 7]	18	pyFR	2	TJ075
419.024	9.342	2833946	PROB	n/a	n/a	n/a	n/a	3	[7 8 6]	21	pyFR	2	TJ075
428.366	3.759	2843288	PROB	n/a	n/a	n/a	n/a	3	[6 1 1]	8	pyFR	2	TJ075
432.125	1.196	2847046	STOP	n/a	n/a	n/a	n/a	3	[-999 -999 -999]	-999	pyFR	2	TJ075
433.321	4.606	2848242	REC_START	n/a	n/a	n/a	-999	3	n/a	n/a	pyFR	2	TJ075
437.927	0.882	2852848	REC_WORD_VV	0.882	n/a	<>	-999	3	n/a	n/a	pyFR	2	TJ075
438.809	2.977	2853730	REC_WORD	2.977	n/a	SPEAR	-999	3	n/a	n/a	pyFR	2	TJ075
441.786	3.469	2856707	REC_WORD	3.469	n/a	FOG	-999	3	n/a	n/a	pyFR	2	TJ075
445.255	2.0	2860176	REC_WORD	2.0	n/a	MUD	-999	3	n/a	n/a	pyFR	2	TJ075
447.255	3.43	2862176	REC_WORD_VV	3.43	n/a	<>	-999	3	n/a	n/a	pyFR	2	TJ075
450.685	5.725	2865606	REC_WORD_VV	5.725	n/a	<>	-999	3	n/a	n/a	pyFR	2	TJ075
456.41	33.892	2871330	REC_WORD	33.892	n/a	CAR	-999	3	n/a	n/a	pyFR	2	TJ075
490.302	0.016	2905221	TRIAL	n/a	n/a	n/a	-999	4	n/a	n/a	pyFR	2	TJ075
490.318	2.935	2905237	ORIENT	n/a	n/a	n/a	-999	4	n/a	n/a	pyFR	2	TJ075
493.253	2.42	2908172	WORD	n/a	wordpools/wordpool_EN.txt	COIN	1	4	n/a	n/a	pyFR	2	TJ075
495.673	2.534	2910592	WORD	n/a	wordpools/wordpool_EN.txt	SNAKE	2	4	n/a	n/a	pyFR	2	TJ075
498.207	2.57	2913126	WORD	n/a	wordpools/wordpool_EN.txt	STORM	3	4	n/a	n/a	pyFR	2	TJ075
500.777	2.619	2915696	WORD	n/a	wordpools/wordpool_EN.txt	LAWN	4	4	n/a	n/a	pyFR	2	TJ075
503.396	2.717	2918314	WORD	n/a	wordpools/wordpool_EN.txt	PIT	5	4	n/a	n/a	pyFR	2	TJ075
506.113	2.771	2921031	WORD	n/a	wordpools/wordpool_EN.txt	BLUSH	6	4	n/a	n/a	pyFR	2	TJ075
508.884	2.752	2923802	WORD	n/a	wordpools/wordpool_EN.txt	PASTE	7	4	n/a	n/a	pyFR	2	TJ075
511.636	2.568	2926554	WORD	n/a	wordpools/wordpool_EN.txt	YARD	8	4	n/a	n/a	pyFR	2	TJ075
514.204	2.603	2929122	WORD	n/a	wordpools/wordpool_EN.txt	BRIDGE	9	4	n/a	n/a	pyFR	2	TJ075
516.807	2.418	2931725	WORD	n/a	wordpools/wordpool_EN.txt	NEST	10	4	n/a	n/a	pyFR	2	TJ075
519.225	2.519	2934143	WORD	n/a	wordpools/wordpool_EN.txt	TAIL	11	4	n/a	n/a	pyFR	2	TJ075
521.744	2.653	2936662	WORD	n/a	wordpools/wordpool_EN.txt	BOARD	12	4	n/a	n/a	pyFR	2	TJ075
524.397	2.684	2939315	WORD	n/a	wordpools/wordpool_EN.txt	BENCH	13	4	n/a	n/a	pyFR	2	TJ075
527.081	2.553	2941998	WORD	n/a	wordpools/wordpool_EN.txt	BEAK	14	4	n/a	n/a	pyFR	2	TJ075
529.634	1.619	2944551	WORD	n/a	wordpools/wordpool_EN.txt	ELF	15	4	n/a	n/a	pyFR	2	TJ075
531.253	0.899	2946170	START	n/a	n/a	n/a	n/a	4	[-999 -999 -999]	-999	pyFR	2	TJ075
532.152	4.271	2947069	PROB	n/a	n/a	n/a	n/a	4	[2 1 5]	8	pyFR	2	TJ075
536.423	6.472	2951340	PROB	n/a	n/a	n/a	n/a	4	[4 1 8]	13	pyFR	2	TJ075
542.895	15.257	2957812	PROB	n/a	n/a	n/a	n/a	4	[6 9 5]	20	pyFR	2	TJ075
558.152	1.191	2973068	STOP	n/a	n/a	n/a	n/a	4	[-999 -999 -999]	-999	pyFR	2	TJ075
559.343	6.083	2974259	REC_START	n/a	n/a	n/a	-999	4	n/a	n/a	pyFR	2	TJ075
565.426	4.083	2980342	REC_WORD_VV	4.083	n/a	<>	-999	4	n/a	n/a	pyFR	2	TJ075
569.509	98.025	2984425	REC_WORD	98.025	n/a	PIT	-999	4	n/a	n/a	pyFR	2	TJ075
667.534	0.016	3082445	TRIAL	n/a	n/a	n/a	-999	5	n/a	n/a	pyFR	2	TJ075
667.55	2.953	3082461	ORIENT	n/a	n/a	n/a	-999	5	n/a	n/a	pyFR	2	TJ075
670.503	2.701	3085414	WORD	n/a	wordpools/wordpool_EN.txt	TEA	1	5	n/a	n/a	pyFR	2	TJ075
673.204	2.553	3088115	WORD	n/a	wordpools/wordpool_EN.txt	PANTS	2	5	n/a	n/a	pyFR	2	TJ075
675.757	2.468	3090668	WORD	n/a	wordpools/wordpool_EN.txt	DRESS	3	5	n/a	n/a	pyFR	2	TJ075
678.225	2.519	3093136	WORD	n/a	wordpools/wordpool_EN.txt	PET	4	5	n/a	n/a	pyFR	2	TJ075
680.744	2.451	3095655	WORD	n/a	wordpools/wordpool_EN.txt	FAN	5	5	n/a	n/a	pyFR	2	TJ075
683.195	2.754	3098106	WORD	n/a	wordpools/wordpool_EN.txt	POLE	6	5	n/a	n/a	pyFR	2	TJ075
685.949	2.635	3100860	WORD	n/a	wordpools/wordpool_EN.txt	CHAIR	7	5	n/a	n/a	pyFR	2	TJ075
688.584	2.468	3103495	WORD	n/a	wordpools/wordpool_EN.txt	BEE	8	5	n/a	n/a	pyFR	2	TJ075
691.052	2.537	3105962	WORD	n/a	wordpools/wordpool_EN.txt	STEM	9	5	n/a	n/a	pyFR	2	TJ075
693.589	2.735	3108499	WORD	n/a	wordpools/wordpool_EN.txt	QUEEN	10	5	n/a	n/a	pyFR	2	TJ075
696.324	2.519	3111234	WORD	n/a	wordpools/wordpool_EN.txt	THREAD	11	5	n/a	n/a	pyFR	2	TJ075
698.843	2.519	3113753	WORD	n/a	wordpools/wordpool_EN.txt	MAT	12	5	n/a	n/a	pyFR	2	TJ075
701.362	2.602	3116272	WORD	n/a	wordpools/wordpool_EN.txt	CONE	13	5	n/a	n/a	pyFR	2	TJ075
703.964	2.502	3118874	WORD	n/a	wordpools/wordpool_EN.txt	BAND	14	5	n/a	n/a	pyFR	2	TJ075
706.466	1.618	3121376	WORD	n/a	wordpools/wordpool_EN.txt	HOSE	15	5	n/a	n/a	pyFR	2	TJ075
708.084	1.201	3122994	START	n/a	n/a	n/a	n/a	5	[-999 -999 -999]	-999	pyFR	2	TJ075
709.285	13.578	3124195	PROB	n/a	n/a	n/a	n/a	5	[9 3 7]	19	pyFR	2	TJ075
722.863	9.455	3137772	PROB	n/a	n/a	n/a	n/a	5	[6 8 4]	18	pyFR	2	TJ075
732.318	1.072	3147227	STOP	n/a	n/a	n/a	n/a	5	[-999 -999 -999]	-999	pyFR	2	TJ075
733.39	3.055	3148299	REC_START	n/a	n/a	n/a	-999	5	n/a	n/a	pyFR	2	TJ075
736.445	0.637	3151354	REC_WORD_VV	0.637	n/a	<>	-999	5	n/a	n/a	pyFR	2	TJ075
737.082	1.937	3151991	REC_WORD	1.937	n/a	PET	-999	5	n/a	n/a	pyFR	2	TJ075
739.019	2.679	3153927	REC_WORD	2.679	n/a	QUEEN	-999	5	n/a	n/a	pyFR	2	TJ075
741.698	6.197	3156606	REC_WORD	6.197	n/a	BEE	-999	5	n/a	n/a	pyFR	2	TJ075
747.895	88.831	3162803	REC_WORD	88.831	n/a	STEM	-999	5	n/a	n/a	pyFR	2	TJ075
836.726	0.016	3251630	TRIAL	n/a	n/a	n/a	-999	6	n/a	n/a	pyFR	2	TJ075
836.742	2.702	3251646	ORIENT	n/a	n/a	n/a	-999	6	n/a	n/a	pyFR	2	TJ075
839.444	2.735	3254348	WORD	n/a	wordpools/wordpool_EN.txt	PIPE	1	6	n/a	n/a	pyFR	2	TJ075
842.179	2.77	3257083	WORD	n/a	wordpools/wordpool_EN.txt	BAG	2	6	n/a	n/a	pyFR	2	TJ075
844.949	2.602	3259853	WORD	n/a	wordpools/wordpool_EN.txt	MOOSE	3	6	n/a	n/a	pyFR	2	TJ075
847.551	2.701	3262455	WORD	n/a	wordpools/wordpool_EN.txt	LEAF	4	6	n/a	n/a	pyFR	2	TJ075
850.252	2.803	3265156	WORD	n/a	wordpools/wordpool_EN.txt	SOUP	5	6	n/a	n/a	pyFR	2	TJ075
853.055	2.753	3267959	WORD	n/a	wordpools/wordpool_EN.txt	CROW	6	6	n/a	n/a	pyFR	2	TJ075
855.808	2.652	3270711	WORD	n/a	wordpools/wordpool_EN.txt	PIN	7	6	n/a	n/a	pyFR	2	TJ075
858.46	2.818	3273363	WORD	n/a	wordpools/wordpool_EN.txt	STAR	8	6	n/a	n/a	pyFR	2	TJ075
861.278	2.72	3276181	WORD	n/a	wordpools/wordpool_EN.txt	STRING	9	6	n/a	n/a	pyFR	2	TJ075
863.998	2.786	3278901	WORD	n/a	wordpools/wordpool_EN.txt	SINK	10	6	n/a	n/a	pyFR	2	TJ075
866.784	2.669	3281687	WORD	n/a	wordpools/wordpool_EN.txt	COUCH	11	6	n/a	n/a	pyFR	2	TJ075
869.453	2.485	3284356	WORD	n/a	wordpools/wordpool_EN.txt	RAKE	12	6	n/a	n/a	pyFR	2	TJ075
871.938	2.636	3286841	WORD	n/a	wordpools/wordpool_EN.txt	PRINCE	13	6	n/a	n/a	pyFR	2	TJ075
874.574	2.601	3289477	WORD	n/a	wordpools/wordpool_EN.txt	SEED	14	6	n/a	n/a	pyFR	2	TJ075
877.175	1.604	3292078	WORD	n/a	wordpools/wordpool_EN.txt	TOAST	15	6	n/a	n/a	pyFR	2	TJ075
878.779	1.166	3293681	START	n/a	n/a	n/a	n/a	6	[-999 -999 -999]	-999	pyFR	2	TJ075
879.945	6.722	3294847	PROB	n/a	n/a	n/a	n/a	6	[3 5 4]	12	pyFR	2	TJ075
886.667	8.674	3301569	PROB	n/a	n/a	n/a	n/a	6	[2 2 4]	8	pyFR	2	TJ075
895.341	4.84	3310243	PROB	n/a	n/a	n/a	n/a	6	[1 3 1]	5	pyFR	2	TJ075
900.181	1.149	3315083	STOP	n/a	n/a	n/a	n/a	6	[-999 -999 -999]	-999	pyFR	2	TJ075
901.33	1.84	3316232	REC_START	n/a	n/a	n/a	-999	6	n/a	n/a	pyFR	2	TJ075
903.17	2.104	3318071	REC_WORD_VV	2.104	n/a	<>	-999	6	n/a	n/a	pyFR	2	TJ075
905.274	0.469	3320175	REC_WORD_VV	0.469	n/a	<>	-999	6	n/a	n/a	pyFR	2	TJ075
905.743	10.632	3320644	REC_WORD	10.632	n/a	PRINCE	-999	6	n/a	n/a	pyFR	2	TJ075
916.375	4.629	3331276	REC_WORD	4.629	n/a	WOLF	-999	6	n/a	n/a	pyFR	2	TJ075
921.004	10.771	3335905	REC_WORD_VV	10.771	n/a	<>	-999	6	n/a	n/a	pyFR	2	TJ075
931.775	161.183	3346675	REC_WORD_VV	161.183	n/a	<>	-999	6	n/a	n/a	pyFR	2	TJ075
1092.958	0.016	3507851	TRIAL	n/a	n/a	n/a	-999	7	n/a	n/a	pyFR	2	TJ075
1092.974	2.885	3507867	ORIENT	n/a	n/a	n/a	-999	7	n/a	n/a	pyFR	2	TJ075
1095.859	2.469	3510752	WORD	n/a	wordpools/wordpool_EN.txt	ARM	1	7	n/a	n/a	pyFR	2	TJ075
1098.328	2.519	3513221	WORD	n/a	wordpools/wordpool_EN.txt	BEAR	2	7	n/a	n/a	pyFR	2	TJ075
1100.847	2.452	3515740	WORD	n/a	wordpools/wordpool_EN.txt	ROPE	3	7	n/a	n/a	pyFR	2	TJ075
1103.299	2.419	3518192	WORD	n/a	wordpools/wordpool_EN.txt	SHRIMP	4	7	n/a	n/a	pyFR	2	TJ075
1105.718	2.702	3520611	WORD	n/a	wordpools/wordpool_EN.txt	CART	5	7	n/a	n/a	pyFR	2	TJ075
1108.42	2.651	3523313	WORD	n/a	wordpools/wordpool_EN.txt	SHEEP	6	7	n/a	n/a	pyFR	2	TJ075
1111.071	2.42	3525964	WORD	n/a	wordpools/wordpool_EN.txt	ZOO	7	7	n/a	n/a	pyFR	2	TJ075
1113.491	2.751	3528384	WORD	n/a	wordpools/wordpool_EN.txt	TOAD	8	7	n/a	n/a	pyFR	2	TJ075
1116.242	2.754	3531134	WORD	n/a	wordpools/wordpool_EN.txt	TENT	9	7	n/a	n/a	pyFR	2	TJ075
1118.996	2.652	3533888	WORD	n/a	wordpools/wordpool_EN.txt	CHIN	10	7	n/a	n/a	pyFR	2	TJ075
1121.648	2.568	3536540	WORD	n/a	wordpools/wordpool_EN.txt	SKI	11	7	n/a	n/a	pyFR	2	TJ075
1124.216	2.619	3539108	WORD	n/a	wordpools/wordpool_EN.txt	SALT	12	7	n/a	n/a	pyFR	2	TJ075
1126.835	2.753	3541727	WORD	n/a	wordpools/wordpool_EN.txt	PEA	13	7	n/a	n/a	pyFR	2	TJ075
1129.588	2.467	3544480	WORD	n/a	wordpools/wordpool_EN.txt	BOOK	14	7	n/a	n/a	pyFR	2	TJ075
1132.055	1.604	3546947	WORD	n/a	wordpools/wordpool_EN.txt	PEARL	15	7	n/a	n/a	pyFR	2	TJ075
1133.659	0.883	3548551	START	n/a	n/a	n/a	n/a	7	[-999 -999 -999]	-999	pyFR	2	TJ075
1134.542	12.177	3549434	PROB	n/a	n/a	n/a	n/a	7	[8 9 8]	25	pyFR	2	TJ075
1146.719	9.255	3561610	PROB	n/a	n/a	n/a	n/a	7	[4 8 5]	17	pyFR	2	TJ075
1155.974	1.237	3570865	STOP	n/a	n/a	n/a	n/a	7	[-999 -999 -999]	-999	pyFR	2	TJ075
1157.211	3.736	3572102	REC_START	n/a	n/a	n/a	-999	7	n/a	n/a	pyFR	2	TJ075
1160.947	3.158	3575837	REC_WORD	3.158	n/a	SALT	-999	7	n/a	n/a	pyFR	2	TJ075
1164.105	3.165	3578995	REC_WORD	3.165	n/a	ZOO	-999	7	n/a	n/a	pyFR	2	TJ075
1167.27	14.677	3582160	REC_WORD	14.677	n/a	TOAD	-999	7	n/a	n/a	pyFR	2	TJ075
1181.947	3.985	3596837	REC_WORD	3.985	n/a	WOLF	-999	7	n/a	n/a	pyFR	2	TJ075
1185.932	1.87	3600821	REC_WORD	1.87	n/a	ARM	-999	7	n/a	n/a	pyFR	2	TJ075
1187.802	7.316	3602691	REC_WORD	7.316	n/a	CHIN	-999	7	n/a	n/a	pyFR	2	TJ075
1195.118	59.859	3610007	REC_WORD_VV	59.859	n/a	<>	-999	7	n/a	n/a	pyFR	2	TJ075
1254.977	0.016	3669864	TRIAL	n/a	n/a	n/a	-999	8	n/a	n/a	pyFR	2	TJ075
1254.993	2.752	3669880	ORIENT	n/a	n/a	n/a	-999	8	n/a	n/a	pyFR	2	TJ075
1257.745	2.552	3672631	WORD	n/a	wordpools/wordpool_EN.txt	PIG	1	8	n/a	n/a	pyFR	2	TJ075
1260.297	2.686	3675183	WORD	n/a	wordpools/wordpool_EN.txt	SNOW	2	8	n/a	n/a	pyFR	2	TJ075
1262.983	2.502	3677869	WORD	n/a	wordpools/wordpool_EN.txt	KEY	3	8	n/a	n/a	pyFR	2	TJ075
1265.485	2.535	3680371	WORD	n/a	wordpools/wordpool_EN.txt	JUDGE	4	8	n/a	n/a	pyFR	2	TJ075
1268.02	2.436	3682906	WORD	n/a	wordpools/wordpool_EN.txt	STONE	5	8	n/a	n/a	pyFR	2	TJ075
1270.456	2.685	3685342	WORD	n/a	wordpools/wordpool_EN.txt	SMILE	6	8	n/a	n/a	pyFR	2	TJ075
1273.141	2.503	3688027	WORD	n/a	wordpools/wordpool_EN.txt	BED	7	8	n/a	n/a	pyFR	2	TJ075
1275.644	2.785	3690530	WORD	n/a	wordpools/wordpool_EN.txt	WEED	8	8	n/a	n/a	pyFR	2	TJ075
1278.429	2.818	3693315	WORD	n/a	wordpools/wordpool_EN.txt	STOOL	9	8	n/a	n/a	pyFR	2	TJ075
1281.247	2.52	3696132	WORD	n/a	wordpools/wordpool_EN.txt	WHEEL	10	8	n/a	n/a	pyFR	2	TJ075
1283.767	2.569	3698652	WORD	n/a	wordpools/wordpool_EN.txt	BEACH	11	8	n/a	n/a	pyFR	2	TJ075
1286.336	2.469	3701221	WORD	n/a	wordpools/wordpool_EN.txt	FUR	12	8	n/a	n/a	pyFR	2	TJ075
1288.805	2.485	3703690	WORD	n/a	wordpools/wordpool_EN.txt	CLOWN	13	8	n/a	n/a	pyFR	2	TJ075
1291.29	2.486	3706175	WORD	n/a	wordpools/wordpool_EN.txt	TOOTH	14	8	n/a	n/a	pyFR	2	TJ075
1293.776	1.619	3708661	WORD	n/a	wordpools/wordpool_EN.txt	DOLL	15	8	n/a	n/a	pyFR	2	TJ075
1295.395	1.2	3710280	START	n/a	n/a	n/a	n/a	8	[-999 -999 -999]	-999	pyFR	2	TJ075
1296.595	11.408	3711480	PROB	n/a	n/a	n/a	n/a	8	[9 5 3]	17	pyFR	2	TJ075
1308.003	6.623	3722887	PROB	n/a	n/a	n/a	n/a	8	[6 4 6]	16	pyFR	2	TJ075
1314.626	7.948	3729510	PROB	n/a	n/a	n/a	n/a	8	[6 9 5]	20	pyFR	2	TJ075
1322.574	1.127	3737458	STOP	n/a	n/a	n/a	n/a	8	[-999 -999 -999]	-999	pyFR	2	TJ075
1323.701	4.466	3738585	REC_START	n/a	n/a	n/a	-999	8	n/a	n/a	pyFR	2	TJ075
1328.167	1.772	3743050	REC_WORD	1.772	n/a	PIG	-999	8	n/a	n/a	pyFR	2	TJ075
1329.939	2.726	3744822	REC_WORD	2.726	n/a	STOOL	-999	8	n/a	n/a	pyFR	2	TJ075
1332.665	13.41	3747548	REC_WORD	13.41	n/a	WEED	-999	8	n/a	n/a	pyFR	2	TJ075
1346.075	16.003	3760958	REC_WORD	16.003	n/a	PLANT	-999	8	n/a	n/a	pyFR	2	TJ075
1362.078	10.831	3776960	REC_WORD_VV	10.831	n/a	<>	-999	8	n/a	n/a	pyFR	2	TJ075
1372.909	0.016	3787790	TRIAL	n/a	n/a	n/a	-999	9	n/a	n/a	pyFR	2	TJ075
1372.925	2.636	3787806	ORIENT	n/a	n/a	n/a	-999	9	n/a	n/a	pyFR	2	TJ075
1375.561	2.735	3790442	WORD	n/a	wordpools/wordpool_EN.txt	WOOD	1	9	n/a	n/a	pyFR	2	TJ075
1378.296	2.735	3793177	WORD	n/a	wordpools/wordpool_EN.txt	DOG	2	9	n/a	n/a	pyFR	2	TJ075
1381.031	2.603	3795912	WORD	n/a	wordpools/wordpool_EN.txt	PEN	3	9	n/a	n/a	pyFR	2	TJ075
1383.634	2.551	3798515	WORD	n/a	wordpools/wordpool_EN.txt	HOLE	4	9	n/a	n/a	pyFR	2	TJ075
1386.185	2.72	3801066	WORD	n/a	wordpools/wordpool_EN.txt	INK	5	9	n/a	n/a	pyFR	2	TJ075
1388.905	2.553	3803786	WORD	n/a	wordpools/wordpool_EN.txt	DOCK	6	9	n/a	n/a	pyFR	2	TJ075
1391.458	2.717	3806339	WORD	n/a	wordpools/wordpool_EN.txt	HILL	7	9	n/a	n/a	pyFR	2	TJ075
1394.175	2.554	3809056	WORD	n/a	wordpools/wordpool_EN.txt	HAND	8	9	n/a	n/a	pyFR	2	TJ075
1396.729	2.752	3811609	WORD	n/a	wordpools/wordpool_EN.txt	HOOF	9	9	n/a	n/a	pyFR	2	TJ075
1399.481	2.601	3814361	WORD	n/a	wordpools/wordpool_EN.txt	LIP	10	9	n/a	n/a	pyFR	2	TJ075
1402.082	2.537	3816962	WORD	n/a	wordpools/wordpool_EN.txt	BAT	11	9	n/a	n/a	pyFR	2	TJ075
1404.619	2.685	3819499	WORD	n/a	wordpools/wordpool_EN.txt	PLANT	12	9	n/a	n/a	pyFR	2	TJ075
1407.304	2.735	3822184	WORD	n/a	wordpools/wordpool_EN.txt	AXE	13	9	n/a	n/a	pyFR	2	TJ075
1410.039	2.653	3824919	WORD	n/a	wordpools/wordpool_EN.txt	SHELL	14	9	n/a	n/a	pyFR	2	TJ075
1412.692	1.603	3827572	WORD	n/a	wordpools/wordpool_EN.txt	HEART	15	9	n/a	n/a	pyFR	2	TJ075
1414.295	1.033	3829175	START	n/a	n/a	n/a	n/a	9	[-999 -999 -999]	-999	pyFR	2	TJ075
1415.328	3.553	3830208	PROB	n/a	n/a	n/a	n/a	9	[1 1 2]	4	pyFR	2	TJ075
1418.881	7.121	3833761	PROB	n/a	n/a	n/a	n/a	9	[4 6 8]	18	pyFR	2	TJ075
1426.002	2.754	3840881	PROB	n/a	n/a	n/a	n/a	9	[1 1 4]	6	pyFR	2	TJ075
1428.756	6.497	3843635	PROB	n/a	n/a	n/a	n/a	9	[6 7 1]	14	pyFR	2	TJ075
1435.253	1.21	3850132	STOP	n/a	n/a	n/a	n/a	9	[-999 -999 -999]	-999	pyFR	2	TJ075
1436.463	3.553	3851342	REC_START	n/a	n/a	n/a	-999	9	n/a	n/a	pyFR	2	TJ075
1440.016	0.725	3854895	REC_WORD_VV	0.725	n/a	<>	-999	9	n/a	n/a	pyFR	2	TJ075
1440.741	1.489	3855620	REC_WORD	1.489	n/a	PLANT	-999	9	n/a	n/a	pyFR	2	TJ075
1442.23	1.41	3857109	REC_WORD	1.41	n/a	AXE	-999	9	n/a	n/a	pyFR	2	TJ075
1443.64	17.67	3858518	REC_WORD	17.67	n/a	SHELL	-999	9	n/a	n/a	pyFR	2	TJ075
1461.31	36.454	3876188	REC_WORD	36.454	n/a	HEART	-999	9	n/a	n/a	pyFR	2	TJ075
1497.764	0.016	3912640	TRIAL	n/a	n/a	n/a	-999	10	n/a	n/a	pyFR	2	TJ075
1497.78	2.853	3912656	ORIENT	n/a	n/a	n/a	-999	10	n/a	n/a	pyFR	2	TJ075
1500.633	2.601	3915509	WORD	n/a	wordpools/wordpool_EN.txt	NOSE	1	10	n/a	n/a	pyFR	2	TJ075
1503.234	2.72	3918110	WORD	n/a	wordpools/wordpool_EN.txt	TREE	2	10	n/a	n/a	pyFR	2	TJ075
1505.954	2.552	3920830	WORD	n/a	wordpools/wordpool_EN.txt	STEAK	3	10	n/a	n/a	pyFR	2	TJ075
1508.506	2.634	3923382	WORD	n/a	wordpools/wordpool_EN.txt	JEEP	4	10	n/a	n/a	pyFR	2	TJ075
1511.14	2.537	3926016	WORD	n/a	wordpools/wordpool_EN.txt	CRANE	5	10	n/a	n/a	pyFR	2	TJ075
1513.677	2.752	3928553	WORD	n/a	wordpools/wordpool_EN.txt	WAND	6	10	n/a	n/a	pyFR	2	TJ075
1516.429	2.519	3931304	WORD	n/a	wordpools/wordpool_EN.txt	TRAIN	7	10	n/a	n/a	pyFR	2	TJ075
1518.948	2.752	3933823	WORD	n/a	wordpools/wordpool_EN.txt	TRAY	8	10	n/a	n/a	pyFR	2	TJ075
1521.7	2.535	3936575	WORD	n/a	wordpools/wordpool_EN.txt	TOY	9	10	n/a	n/a	pyFR	2	TJ075
1524.235	2.653	3939110	WORD	n/a	wordpools/wordpool_EN.txt	HORSE	10	10	n/a	n/a	pyFR	2	TJ075
1526.888	2.752	3941763	WORD	n/a	wordpools/wordpool_EN.txt	SHIELD	11	10	n/a	n/a	pyFR	2	TJ075
1529.64	2.635	3944515	WORD	n/a	wordpools/wordpool_EN.txt	SKUNK	12	10	n/a	n/a	pyFR	2	TJ075
1532.275	2.603	3947150	WORD	n/a	wordpools/wordpool_EN.txt	POOL	13	10	n/a	n/a	pyFR	2	TJ075
1534.878	2.652	3949753	WORD	n/a	wordpools/wordpool_EN.txt	GRASS	14	10	n/a	n/a	pyFR	2	TJ075
1537.53	1.618	3952404	WORD	n/a	wordpools/wordpool_EN.txt	SHEET	15	10	n/a	n/a	pyFR	2	TJ075
1539.148	1.033	3954022	START	n/a	n/a	n/a	n/a	10	[-999 -999 -999]	-999	pyFR	2	TJ075
1540.181	8.559	3955055	PROB	n/a	n/a	n/a	n/a	10	[9 9 8]	26	pyFR	2	TJ075
1548.74	5.154	3963614	PROB	n/a	n/a	n/a	n/a	10	[5 5 3]	13	pyFR	2	TJ075
1553.894	10.263	3968768	PROB	n/a	n/a	n/a	n/a	10	[7 2 8]	17	pyFR	2	TJ075
1564.157	1.079	3979030	STOP	n/a	n/a	n/a	n/a	10	[-999 -999 -999]	-999	pyFR	2	TJ075
1565.236	45.0	3980109	REC_START	n/a	n/a	n/a	-999	10	n/a	n/a	pyFR	2	TJ075
1610.236	75.852	4025107	REC_WORD_VV	75.852	n/a	<>	-999	10	n/a	n/a	pyFR	2	TJ075
1686.088	0.016	4100956	TRIAL	n/a	n/a	n/a	-999	11	n/a	n/a	pyFR	2	TJ075
1686.104	3.002	4100972	ORIENT	n/a	n/a	n/a	-999	11	n/a	n/a	pyFR	2	TJ075
1689.106	2.687	4103974	WORD	n/a	wordpools/wordpool_EN.txt	NAIL	1	11	n/a	n/a	pyFR	2	TJ075
1691.793	2.802	4106661	WORD	n/a	wordpools/wordpool_EN.txt	SWAMP	2	11	n/a	n/a	pyFR	2	TJ075
1694.595	2.651	4109463	WORD	n/a	wordpools/wordpool_EN.txt	STAIR	3	11	n/a	n/a	pyFR	2	TJ075
1697.246	2.604	4112114	WORD	n/a	wordpools/wordpool_EN.txt	SAIL	4	11	n/a	n/a	pyFR	2	TJ075
1699.85	2.635	4114718	WORD	n/a	wordpools/wordpool_EN.txt	EEL	5	11	n/a	n/a	pyFR	2	TJ075
1702.485	2.803	4117352	WORD	n/a	wordpools/wordpool_EN.txt	CUP	6	11	n/a	n/a	pyFR	2	TJ075
1705.288	2.668	4120155	WORD	n/a	wordpools/wordpool_EN.txt	FLAME	7	11	n/a	n/a	pyFR	2	TJ075
1707.956	2.503	4122823	WORD	n/a	wordpools/wordpool_EN.txt	SPOON	8	11	n/a	n/a	pyFR	2	TJ075
1710.459	2.502	4125326	WORD	n/a	wordpools/wordpool_EN.txt	GLOVE	9	11	n/a	n/a	pyFR	2	TJ075
1712.961	2.619	4127828	WORD	n/a	wordpools/wordpool_EN.txt	EAR	10	11	n/a	n/a	pyFR	2	TJ075
1715.58	2.584	4130447	WORD	n/a	wordpools/wordpool_EN.txt	HAT	11	11	n/a	n/a	pyFR	2	TJ075
1718.164	2.537	4133031	WORD	n/a	wordpools/wordpool_EN.txt	BRUSH	12	11	n/a	n/a	pyFR	2	TJ075
1720.701	2.769	4135568	WORD	n/a	wordpools/wordpool_EN.txt	CORD	13	11	n/a	n/a	pyFR	2	TJ075
1723.47	2.435	4138337	WORD	n/a	wordpools/wordpool_EN.txt	RICE	14	11	n/a	n/a	pyFR	2	TJ075
1725.905	1.603	4140771	WORD	n/a	wordpools/wordpool_EN.txt	CLOTH	15	11	n/a	n/a	pyFR	2	TJ075
1727.508	1.199	4142374	START	n/a	n/a	n/a	n/a	11	[-999 -999 -999]	-999	pyFR	2	TJ075
1728.707	5.238	4143573	PROB	n/a	n/a	n/a	n/a	11	[2 9 1]	12	pyFR	2	TJ075
1733.945	5.07	4148811	PROB	n/a	n/a	n/a	n/a	11	[4 1 3]	8	pyFR	2	TJ075
1739.015	14.254	4153881	PROB	n/a	n/a	n/a	n/a	11	[8 6 4]	18	pyFR	2	TJ075
1753.269	1.044	4168134	STOP	n/a	n/a	n/a	n/a	11	[-999 -999 -999]	-999	pyFR	2	TJ075
1754.313	11.332	4169178	REC_START	n/a	n/a	n/a	-999	11	n/a	n/a	pyFR	2	TJ075
1765.645	3.584	4180510	REC_WORD	3.584	n/a	SNAIL	-999	11	n/a	n/a	pyFR	2	TJ075
1769.229	11.297	4184094	REC_WORD	11.297	n/a	SAIL	-999	11	n/a	n/a	pyFR	2	TJ075
1780.526	0.582	4195390	REC_WORD_VV	0.582	n/a	<>	-999	11	n/a	n/a	pyFR	2	TJ075
1781.108	11.626	4195972	REC_WORD	11.626	n/a	HORSE	-999	11	n/a	n/a	pyFR	2	TJ075
1792.734	10.119	4207598	REC_WORD_VV	10.119	n/a	<>	-999	11	n/a	n/a	pyFR	2	TJ075
1802.853	0.016	4217716	TRIAL	n/a	n/a	n/a	-999	12	n/a	n/a	pyFR	2	TJ075
1802.869	2.853	4217732	ORIENT	n/a	n/a	n/a	-999	12	n/a	n/a	pyFR	2	TJ075
1805.722	2.534	4220585	WORD	n/a	wordpools/wordpool_EN.txt	SEAL	1	12	n/a	n/a	pyFR	2	TJ075
1808.256	2.453	4223119	WORD	n/a	wordpools/wordpool_EN.txt	ROCK	2	12	n/a	n/a	pyFR	2	TJ075
1810.709	2.603	4225572	WORD	n/a	wordpools/wordpool_EN.txt	HAWK	3	12	n/a	n/a	pyFR	2	TJ075
1813.312	2.768	4228175	WORD	n/a	wordpools/wordpool_EN.txt	GUARD	4	12	n/a	n/a	pyFR	2	TJ075
1816.08	2.436	4230943	WORD	n/a	wordpools/wordpool_EN.txt	GOAT	5	12	n/a	n/a	pyFR	2	TJ075
1818.516	2.534	4233379	WORD	n/a	wordpools/wordpool_EN.txt	DRUM	6	12	n/a	n/a	pyFR	2	TJ075
1821.05	2.537	4235912	WORD	n/a	wordpools/wordpool_EN.txt	APE	7	12	n/a	n/a	pyFR	2	TJ075
1823.587	2.551	4238449	WORD	n/a	wordpools/wordpool_EN.txt	BEAN	8	12	n/a	n/a	pyFR	2	TJ075
1826.138	2.603	4241000	WORD	n/a	wordpools/wordpool_EN.txt	FISH	9	12	n/a	n/a	pyFR	2	TJ075
1828.741	2.569	4243603	WORD	n/a	wordpools/wordpool_EN.txt	BELL	10	12	n/a	n/a	pyFR	2	TJ075
1831.31	2.419	4246172	WORD	n/a	wordpools/wordpool_EN.txt	BOX	11	12	n/a	n/a	pyFR	2	TJ075
1833.729	2.752	4248591	WORD	n/a	wordpools/wordpool_EN.txt	SHIP	12	12	n/a	n/a	pyFR	2	TJ075
1836.481	2.519	4251343	WORD	n/a	wordpools/wordpool_EN.txt	SNAIL	13	12	n/a	n/a	pyFR	2	TJ075
1839.0	2.485	4253862	WORD	n/a	wordpools/wordpool_EN.txt	ROSE	14	12	n/a	n/a	pyFR	2	TJ075
1841.485	1.602	4256347	WORD	n/a	wordpools/wordpool_EN.txt	FLEA	15	12	n/a	n/a	pyFR	2	TJ075
1843.087	0.9	4257949	START	n/a	n/a	n/a	n/a	12	[-999 -999 -999]	-999	pyFR	2	TJ075
1843.987	18.966	4258848	PROB	n/a	n/a	n/a	n/a	12	[9 2 3]	14	pyFR	2	TJ075
1862.953	10.917	4277814	PROB	n/a	n/a	n/a	n/a	12	[6 7 9]	21	pyFR	2	TJ075
1873.87	1.127	4288730	STOP	n/a	n/a	n/a	n/a	12	[-999 -999 -999]	-999	pyFR	2	TJ075
1874.997	2.317	4289857	REC_START	n/a	n/a	n/a	-999	12	n/a	n/a	pyFR	2	TJ075
1877.314	0.608	4292174	REC_WORD_VV	0.608	n/a	<>	-999	12	n/a	n/a	pyFR	2	TJ075
1877.922	9.488	4292782	REC_WORD	9.488	n/a	SNAIL	-999	12	n/a	n/a	pyFR	2	TJ075
1887.41	12.768	4302270	REC_WORD	12.768	n/a	GUARD	-999	12	n/a	n/a	pyFR	2	TJ075
1900.178	6.68	4315037	REC_WORD_VV	6.68	n/a	<>	-999	12	n/a	n/a	pyFR	2	TJ075
1906.858	43.602	4321717	REC_WORD	43.602	n/a	APE	-999	12	n/a	n/a	pyFR	2	TJ075
1950.46	0.017	4365317	TRIAL	n/a	n/a	n/a	-999	13	n/a	n/a	pyFR	2	TJ075
1950.477	2.869	4365334	ORIENT	n/a	n/a	n/a	-999	13	n/a	n/a	pyFR	2	TJ075
1953.346	2.535	4368203	WORD	n/a	wordpools/wordpool_EN.txt	PHONE	1	13	n/a	n/a	pyFR	2	TJ075
1955.881	2.486	4370738	WORD	n/a	wordpools/wordpool_EN.txt	GATE	2	13	n/a	n/a	pyFR	2	TJ075
1958.367	2.585	4373224	WORD	n/a	wordpools/wordpool_EN.txt	FORK	3	13	n/a	n/a	pyFR	2	TJ075
1960.952	2.602	4375809	WORD	n/a	wordpools/wordpool_EN.txt	MAIL	4	13	n/a	n/a	pyFR	2	TJ075
1963.554	2.485	4378410	WORD	n/a	wordpools/wordpool_EN.txt	CARD	5	13	n/a	n/a	pyFR	2	TJ075
1966.039	2.803	4380895	WORD	n/a	wordpools/wordpool_EN.txt	MULE	6	13	n/a	n/a	pyFR	2	TJ075
1968.842	2.418	4383698	WORD	n/a	wordpools/wordpool_EN.txt	DUCK	7	13	n/a	n/a	pyFR	2	TJ075
1971.26	2.636	4386116	WORD	n/a	wordpools/wordpool_EN.txt	STEAM	8	13	n/a	n/a	pyFR	2	TJ075
1973.896	2.753	4388752	WORD	n/a	wordpools/wordpool_EN.txt	ROOF	9	13	n/a	n/a	pyFR	2	TJ075
1976.649	2.819	4391505	WORD	n/a	wordpools/wordpool_EN.txt	DITCH	10	13	n/a	n/a	pyFR	2	TJ075
1979.468	2.468	4394324	WORD	n/a	wordpools/wordpool_EN.txt	CAVE	11	13	n/a	n/a	pyFR	2	TJ075
1981.936	2.619	4396792	WORD	n/a	wordpools/wordpool_EN.txt	FACE	12	13	n/a	n/a	pyFR	2	TJ075
1984.555	2.568	4399411	WORD	n/a	wordpools/wordpool_EN.txt	BRANCH	13	13	n/a	n/a	pyFR	2	TJ075
1987.123	2.587	4401978	WORD	n/a	wordpools/wordpool_EN.txt	THUMB	14	13	n/a	n/a	pyFR	2	TJ075
1989.71	1.602	4404565	WORD	n/a	wordpools/wordpool_EN.txt	SOCK	15	13	n/a	n/a	pyFR	2	TJ075
1991.312	1.0	4406167	START	n/a	n/a	n/a	n/a	13	[-999 -999 -999]	-999	pyFR	2	TJ075
1992.312	4.353	4407167	PROB	n/a	n/a	n/a	n/a	13	[2 4 4]	10	pyFR	2	TJ075
1996.665	6.74	4411520	PROB	n/a	n/a	n/a	n/a	13	[3 4 3]	10	pyFR	2	TJ075
2003.405	4.553	4418260	PROB	n/a	n/a	n/a	n/a	13	[3 7 3]	13	pyFR	2	TJ075
2007.958	6.344	4422813	PROB	n/a	n/a	n/a	n/a	13	[6 4 2]	12	pyFR	2	TJ075
2014.302	1.165	4429156	STOP	n/a	n/a	n/a	n/a	13	[-999 -999 -999]	-999	pyFR	2	TJ075
2015.467	2.679	4430321	REC_START	n/a	n/a	n/a	-999	13	n/a	n/a	pyFR	2	TJ075
2018.146	0.955	4433000	REC_WORD_VV	0.955	n/a	<>	-999	13	n/a	n/a	pyFR	2	TJ075
2019.101	4.303	4433955	REC_WORD	4.303	n/a	THUMB	-999	13	n/a	n/a	pyFR	2	TJ075
2023.404	2.214	4438258	REC_WORD_VV	2.214	n/a	<>	-999	13	n/a	n/a	pyFR	2	TJ075
2025.618	3.665	4440472	REC_WORD	3.665	n/a	STEAM	-999	13	n/a	n/a	pyFR	2	TJ075
2029.283	5.212	4444137	REC_WORD_VV	5.212	n/a	<>	-999	13	n/a	n/a	pyFR	2	TJ075
2034.495	4.242	4449348	REC_WORD_VV	4.242	n/a	<>	-999	13	n/a	n/a	pyFR	2	TJ075
2038.737	8.966	4453590	REC_WORD	8.966	n/a	CLOWN	-999	13	n/a	n/a	pyFR	2	TJ075
2047.703	58.972	4462556	REC_WORD	58.972	n/a	MULE	-999	13	n/a	n/a	pyFR	2	TJ075
2106.675	0.016	4521525	TRIAL	n/a	n/a	n/a	-999	14	n/a	n/a	pyFR	2	TJ075
2106.691	2.953	4521541	ORIENT	n/a	n/a	n/a	-999	14	n/a	n/a	pyFR	2	TJ075
2109.644	2.702	4524494	WORD	n/a	wordpools/wordpool_EN.txt	MOUSE	1	14	n/a	n/a	pyFR	2	TJ075
2112.346	2.535	4527196	WORD	n/a	wordpools/wordpool_EN.txt	SPARK	2	14	n/a	n/a	pyFR	2	TJ075
2114.881	2.536	4529731	WORD	n/a	wordpools/wordpool_EN.txt	SWORD	3	14	n/a	n/a	pyFR	2	TJ075
2117.417	2.651	4532267	WORD	n/a	wordpools/wordpool_EN.txt	STOVE	4	14	n/a	n/a	pyFR	2	TJ075
2120.068	2.503	4534918	WORD	n/a	wordpools/wordpool_EN.txt	DIME	5	14	n/a	n/a	pyFR	2	TJ075
2122.571	2.601	4537421	WORD	n/a	wordpools/wordpool_EN.txt	PLATE	6	14	n/a	n/a	pyFR	2	TJ075
2125.172	2.687	4540022	WORD	n/a	wordpools/wordpool_EN.txt	MOLE	7	14	n/a	n/a	pyFR	2	TJ075
2127.859	2.619	4542708	WORD	n/a	wordpools/wordpool_EN.txt	GLASS	8	14	n/a	n/a	pyFR	2	TJ075
2130.478	2.468	4545327	WORD	n/a	wordpools/wordpool_EN.txt	FENCE	9	14	n/a	n/a	pyFR	2	TJ075
2132.946	2.603	4547795	WORD	n/a	wordpools/wordpool_EN.txt	DESK	10	14	n/a	n/a	pyFR	2	TJ075
2135.549	2.701	4550398	WORD	n/a	wordpools/wordpool_EN.txt	MOUTH	11	14	n/a	n/a	pyFR	2	TJ075
2138.25	2.453	4553099	WORD	n/a	wordpools/wordpool_EN.txt	WHALE	12	14	n/a	n/a	pyFR	2	TJ075
2140.703	2.468	4555552	WORD	n/a	wordpools/wordpool_EN.txt	SKY	13	14	n/a	n/a	pyFR	2	TJ075
2143.171	2.453	4558020	WORD	n/a	wordpools/wordpool_EN.txt	COW	14	14	n/a	n/a	pyFR	2	TJ075
2145.624	1.618	4560473	WORD	n/a	wordpools/wordpool_EN.txt	SPRING	15	14	n/a	n/a	pyFR	2	TJ075
2147.242	1.118	4562091	START	n/a	n/a	n/a	n/a	14	[-999 -999 -999]	-999	pyFR	2	TJ075
2148.36	17.646	4563209	PROB	n/a	n/a	n/a	n/a	14	[9 8 5]	21	pyFR	2	TJ075
2166.006	3.872	4580854	PROB	n/a	n/a	n/a	n/a	14	[1 2 2]	5	pyFR	2	TJ075
2169.878	1.118	4584726	STOP	n/a	n/a	n/a	n/a	14	[-999 -999 -999]	-999	pyFR	2	TJ075
2170.996	9.391	4585844	REC_START	n/a	n/a	n/a	-999	14	n/a	n/a	pyFR	2	TJ075
2180.387	1.614	4595234	REC_WORD_VV	1.614	n/a	<>	-999	14	n/a	n/a	pyFR	2	TJ075
2182.001	4.861	4596848	REC_WORD	4.861	n/a	MOLE	-999	14	n/a	n/a	pyFR	2	TJ075
2186.862	23.081	4601709	REC_WORD_VV	23.081	n/a	<>	-999	14	n/a	n/a	pyFR	2	TJ075
2209.943	69.66	4624789	REC_WORD_VV	69.66	n/a	<>	-999	14	n/a	n/a	pyFR	2	TJ075
2279.603	0.017	4694446	TRIAL	n/a	n/a	n/a	-999	15	n/a	n/a	pyFR	2	TJ075
2279.62	2.969	4694463	ORIENT	n/a	n/a	n/a	-999	15	n/a	n/a	pyFR	2	TJ075
2282.589	2.434	4697432	WORD	n/a	wordpools/wordpool_EN.txt	CALF	1	15	n/a	n/a	pyFR	2	TJ075
2285.023	2.72	4699866	WORD	n/a	wordpools/wordpool_EN.txt	DART	2	15	n/a	n/a	pyFR	2	TJ075
2287.743	2.468	4702586	WORD	n/a	wordpools/wordpool_EN.txt	OAK	3	15	n/a	n/a	pyFR	2	TJ075
2290.211	2.42	4705054	WORD	n/a	wordpools/wordpool_EN.txt	TAPE	4	15	n/a	n/a	pyFR	2	TJ075
2292.631	2.584	4707473	WORD	n/a	wordpools/wordpool_EN.txt	VAN	5	15	n/a	n/a	pyFR	2	TJ075
2295.215	2.637	4710057	WORD	n/a	wordpools/wordpool_EN.txt	WORM	6	15	n/a	n/a	pyFR	2	TJ075
2297.852	2.502	4712694	WORD	n/a	wordpools/wordpool_EN.txt	PLANE	7	15	n/a	n/a	pyFR	2	TJ075
2300.354	2.435	4715196	WORD	n/a	wordpools/wordpool_EN.txt	SEAT	8	15	n/a	n/a	pyFR	2	TJ075
2302.789	2.619	4717631	WORD	n/a	wordpools/wordpool_EN.txt	CAT	9	15	n/a	n/a	pyFR	2	TJ075
2305.408	2.818	4720250	WORD	n/a	wordpools/wordpool_EN.txt	GEESE	10	15	n/a	n/a	pyFR	2	TJ075
2308.226	2.453	4723068	WORD	n/a	wordpools/wordpool_EN.txt	HOUSE	11	15	n/a	n/a	pyFR	2	TJ075
2310.679	2.736	4725521	WORD	n/a	wordpools/wordpool_EN.txt	RAT	12	15	n/a	n/a	pyFR	2	TJ075
2313.415	2.751	4728257	WORD	n/a	wordpools/wordpool_EN.txt	WAVE	13	15	n/a	n/a	pyFR	2	TJ075
2316.166	2.453	4731007	WORD	n/a	wordpools/wordpool_EN.txt	EGG	14	15	n/a	n/a	pyFR	2	TJ075
2318.619	1.618	4733460	WORD	n/a	wordpools/wordpool_EN.txt	CHEEK	15	15	n/a	n/a	pyFR	2	TJ075
2320.237	0.866	4735078	START	n/a	n/a	n/a	n/a	15	[-999 -999 -999]	-999	pyFR	2	TJ075
2321.103	11.06	4735944	PROB	n/a	n/a	n/a	n/a	15	[7 7 7]	21	pyFR	2	TJ075
2332.163	4.87	4747004	PROB	n/a	n/a	n/a	n/a	15	[5 5 6]	16	pyFR	2	TJ075
2337.033	3.988	4751874	PROB	n/a	n/a	n/a	n/a	15	[3 7 7]	17	pyFR	2	TJ075
2341.021	1.151	4755861	STOP	n/a	n/a	n/a	n/a	15	[-999 -999 -999]	-999	pyFR	2	TJ075
2342.172	2.663	4757012	REC_START	n/a	n/a	n/a	-999	15	n/a	n/a	pyFR	2	TJ075
2344.835	1.261	4759675	REC_WORD_VV	1.261	n/a	<>	-999	15	n/a	n/a	pyFR	2	TJ075
2346.096	1.376	4760936	REC_WORD	1.376	n/a	EGG	-999	15	n/a	n/a	pyFR	2	TJ075
2347.472	2.191	4762312	REC_WORD	2.191	n/a	PLANE	-999	15	n/a	n/a	pyFR	2	TJ075
2349.663	4.225	4764503	REC_WORD	4.225	n/a	VAN	-999	15	n/a	n/a	pyFR	2	TJ075
2353.888	5.765	4768728	REC_WORD_VV	5.765	n/a	<>	-999	15	n/a	n/a	pyFR	2	TJ075
2359.653	6.572	4774493	REC_WORD	6.572	n/a	CALF	-999	15	n/a	n/a	pyFR	2	TJ075
2366.225	4.562	4781064	REC_WORD_VV	4.562	n/a	<>	-999	15	n/a	n/a	pyFR	2	TJ075
2370.787	23.529	4785626	REC_WORD	23.529	n/a	CAT	-999	15	n/a	n/a	pyFR	2	TJ075
2394.316	0.017	4809154	TRIAL	n/a	n/a	n/a	-999	16	n/a	n/a	pyFR	2	TJ075
2394.333	2.985	4809171	ORIENT	n/a	n/a	n/a	-999	16	n/a	n/a	pyFR	2	TJ075
2397.318	2.735	4812156	WORD	n/a	wordpools/wordpool_EN.txt	SUIT	1	16	n/a	n/a	pyFR	2	TJ075
2400.053	2.553	4814891	WORD	n/a	wordpools/wordpool_EN.txt	CLIFF	2	16	n/a	n/a	pyFR	2	TJ075
2402.606	2.535	4817444	WORD	n/a	wordpools/wordpool_EN.txt	COAT	3	16	n/a	n/a	pyFR	2	TJ075
2405.141	2.469	4819979	WORD	n/a	wordpools/wordpool_EN.txt	CUBE	4	16	n/a	n/a	pyFR	2	TJ075
2407.61	2.435	4822448	WORD	n/a	wordpools/wordpool_EN.txt	FOX	5	16	n/a	n/a	pyFR	2	TJ075
2410.045	2.72	4824882	WORD	n/a	wordpools/wordpool_EN.txt	POND	6	16	n/a	n/a	pyFR	2	TJ075
2412.765	2.467	4827602	WORD	n/a	wordpools/wordpool_EN.txt	CHALK	7	16	n/a	n/a	pyFR	2	TJ075
2415.232	2.754	4830069	WORD	n/a	wordpools/wordpool_EN.txt	TOE	8	16	n/a	n/a	pyFR	2	TJ075
2417.986	2.569	4832823	WORD	n/a	wordpools/wordpool_EN.txt	KITE	9	16	n/a	n/a	pyFR	2	TJ075
2420.555	2.684	4835392	WORD	n/a	wordpools/wordpool_EN.txt	HORN	10	16	n/a	n/a	pyFR	2	TJ075
2423.239	2.486	4838076	WORD	n/a	wordpools/wordpool_EN.txt	PURSE	11	16	n/a	n/a	pyFR	2	TJ075
2425.725	2.636	4840562	WORD	n/a	wordpools/wordpool_EN.txt	BOOT	12	16	n/a	n/a	pyFR	2	TJ075
2428.361	2.419	4843198	WORD	n/a	wordpools/wordpool_EN.txt	MUG	13	16	n/a	n/a	pyFR	2	TJ075
2430.78	2.669	4845617	WORD	n/a	wordpools/wordpool_EN.txt	GIRL	14	16	n/a	n/a	pyFR	2	TJ075
2433.449	1.618	4848285	WORD	n/a	wordpools/wordpool_EN.txt	HOOK	15	16	n/a	n/a	pyFR	2	TJ075
2435.067	1.15	4849903	START	n/a	n/a	n/a	n/a	16	[-999 -999 -999]	-999	pyFR	2	TJ075
2436.217	8.957	4851053	PROB	n/a	n/a	n/a	n/a	16	[7 9 7]	23	pyFR	2	TJ075
2445.174	8.007	4860010	PROB	n/a	n/a	n/a	n/a	16	[2 6 9]	17	pyFR	2	TJ075
2453.181	3.553	4868017	PROB	n/a	n/a	n/a	n/a	16	[2 3 3]	8	pyFR	2	TJ075
2456.734	1.253	4871569	STOP	n/a	n/a	n/a	n/a	16	[-999 -999 -999]	-999	pyFR	2	TJ075
2457.987	5.5	4872822	REC_START	n/a	n/a	n/a	-999	16	n/a	n/a	pyFR	2	TJ075
2463.487	13.165	4878322	REC_WORD_VV	13.165	n/a	<>	-999	16	n/a	n/a	pyFR	2	TJ075
2476.652	497.609	4891487	REC_WORD_VV	497.609	n/a	<>	-999	16	n/a	n/a	pyFR	2	TJ075
2974.261	0.001	5389074	B	n/a	n/a	n/a	-999	16	n/a	n/a	pyFR	2	TJ075
2974.262	487.367	5389075	SESS_START	n/a	n/a	n/a	-999	16	n/a	n/a	pyFR	2	TJ075
3461.629	0.055	0	SESS_END	n/a	n/a	n/a	-999	16	n/a	n/a	pyFR	2	TJ075
3461.684	0.0	0	E	n/a	n/a	n/a	-999	16	n/a	n/a	pyFR	2	TJ075
