onset	duration	sample	trial_type	response_time	stim_file	item_name	serialpos	list	test	answer	experiment	session	subject
0.0	0.0	254158	SESS_START	n/a	n/a	n/a	-999	-999	n/a	n/a	pyFR	0	TJ065
0.0	74.095	254158	B	n/a	n/a	n/a	-999	-999	n/a	n/a	pyFR	0	TJ065
74.095	0.024	402342	START	n/a	n/a	n/a	n/a	0	[-999 -999 -999]	-999	pyFR	0	TJ065
74.119	56.725	402390	PROB	56.725	n/a	n/a	n/a	0	[9 4 8]	21	pyFR	0	TJ065
130.844	168.03	515836	STOP	n/a	n/a	n/a	n/a	0	[-999 -999 -999]	-999	pyFR	0	TJ065
298.874	0.016	851882	TRIAL	n/a	n/a	n/a	-999	1	n/a	n/a	pyFR	0	TJ065
298.89	2.935	851914	ORIENT	n/a	n/a	n/a	-999	1	n/a	n/a	pyFR	0	TJ065
301.825	2.803	857784	WORD	n/a	wordpools/wordpool_EN.txt	BRIDGE	1	1	n/a	n/a	pyFR	0	TJ065
304.628	2.62	863390	WORD	n/a	wordpools/wordpool_EN.txt	WING	2	1	n/a	n/a	pyFR	0	TJ065
307.248	2.735	868629	WORD	n/a	wordpools/wordpool_EN.txt	SPRING	3	1	n/a	n/a	pyFR	0	TJ065
309.983	2.551	874099	WORD	n/a	wordpools/wordpool_EN.txt	TANK	4	1	n/a	n/a	pyFR	0	TJ065
312.534	2.637	879201	WORD	n/a	wordpools/wordpool_EN.txt	HAND	5	1	n/a	n/a	pyFR	0	TJ065
315.171	2.468	884475	WORD	n/a	wordpools/wordpool_EN.txt	GEESE	6	1	n/a	n/a	pyFR	0	TJ065
317.639	2.719	889411	WORD	n/a	wordpools/wordpool_EN.txt	SHOE	7	1	n/a	n/a	pyFR	0	TJ065
320.358	2.603	894848	WORD	n/a	wordpools/wordpool_EN.txt	BREAD	8	1	n/a	n/a	pyFR	0	TJ065
322.961	2.435	900054	WORD	n/a	wordpools/wordpool_EN.txt	PIT	9	1	n/a	n/a	pyFR	0	TJ065
325.396	2.535	904924	WORD	n/a	wordpools/wordpool_EN.txt	SUIT	10	1	n/a	n/a	pyFR	0	TJ065
327.931	2.436	909994	WORD	n/a	wordpools/wordpool_EN.txt	SPARK	11	1	n/a	n/a	pyFR	0	TJ065
330.367	2.484	914865	WORD	n/a	wordpools/wordpool_EN.txt	WAVE	12	1	n/a	n/a	pyFR	0	TJ065
332.851	2.437	919833	WORD	n/a	wordpools/wordpool_EN.txt	MAP	13	1	n/a	n/a	pyFR	0	TJ065
335.288	2.769	924707	WORD	n/a	wordpools/wordpool_EN.txt	BARN	14	1	n/a	n/a	pyFR	0	TJ065
338.057	1.618	930245	WORD	n/a	wordpools/wordpool_EN.txt	HOOK	15	1	n/a	n/a	pyFR	0	TJ065
339.675	1.2	933481	START	n/a	n/a	n/a	n/a	1	[-999 -999 -999]	-999	pyFR	0	TJ065
340.875	9.024	935881	PROB	8.993	n/a	n/a	n/a	1	[8 1 1]	10	pyFR	0	TJ065
349.899	4.104	953928	PROB	4.074	n/a	n/a	n/a	1	[4 6 8]	18	pyFR	0	TJ065
354.003	6.234	962136	PROB	6.234	n/a	n/a	n/a	1	[2 1 8]	11	pyFR	0	TJ065
360.237	1.256	974603	STOP	n/a	n/a	n/a	n/a	1	[-999 -999 -999]	-999	pyFR	0	TJ065
361.493	10.042	977115	REC_START	n/a	n/a	n/a	-999	1	n/a	n/a	pyFR	0	TJ065
371.535	1.0	997198	REC_WORD_VV	10.042	n/a	<>	-999	1	n/a	n/a	pyFR	0	TJ065
372.535	1.0	999198	REC_WORD_VV	11.042	n/a	<>	-999	1	n/a	n/a	pyFR	0	TJ065
373.535	1.326	1001198	REC_WORD_VV	12.042	n/a	<>	-999	1	n/a	n/a	pyFR	0	TJ065
374.861	0.509	1003850	REC_WORD_VV	13.368	n/a	<>	-999	1	n/a	n/a	pyFR	0	TJ065
375.37	2.854	1004868	REC_WORD	13.877	n/a	WING	-999	1	n/a	n/a	pyFR	0	TJ065
378.224	1.687	1010576	REC_WORD	16.731	n/a	SUIT	-999	1	n/a	n/a	pyFR	0	TJ065
379.911	3.181	1013949	REC_WORD	18.418	n/a	GEESE	-999	1	n/a	n/a	pyFR	0	TJ065
383.092	4.347	1020311	REC_WORD_VV	21.599	n/a	<>	-999	1	n/a	n/a	pyFR	0	TJ065
387.439	12.329	1029005	REC_WORD	25.946	n/a	BRIDGE	-999	1	n/a	n/a	pyFR	0	TJ065
399.768	1.562	1053662	REC_WORD	38.275	n/a	TANK	-999	1	n/a	n/a	pyFR	0	TJ065
401.33	44.868	1056786	REC_WORD	39.837	n/a	PIT	-999	1	n/a	n/a	pyFR	0	TJ065
446.198	0.016	1146518	TRIAL	n/a	n/a	n/a	-999	2	n/a	n/a	pyFR	0	TJ065
446.214	3.003	1146550	ORIENT	n/a	n/a	n/a	-999	2	n/a	n/a	pyFR	0	TJ065
449.217	2.517	1152556	WORD	n/a	wordpools/wordpool_EN.txt	DITCH	1	2	n/a	n/a	pyFR	0	TJ065
451.734	2.487	1157590	WORD	n/a	wordpools/wordpool_EN.txt	ARK	2	2	n/a	n/a	pyFR	0	TJ065
454.221	2.802	1162564	WORD	n/a	wordpools/wordpool_EN.txt	BOAT	3	2	n/a	n/a	pyFR	0	TJ065
457.023	2.502	1168167	WORD	n/a	wordpools/wordpool_EN.txt	DART	4	2	n/a	n/a	pyFR	0	TJ065
459.525	2.653	1173171	WORD	n/a	wordpools/wordpool_EN.txt	SPOON	5	2	n/a	n/a	pyFR	0	TJ065
462.178	2.551	1178477	WORD	n/a	wordpools/wordpool_EN.txt	BRANCH	6	2	n/a	n/a	pyFR	0	TJ065
464.729	2.469	1183579	WORD	n/a	wordpools/wordpool_EN.txt	NET	7	2	n/a	n/a	pyFR	0	TJ065
467.198	2.535	1188516	WORD	n/a	wordpools/wordpool_EN.txt	COUCH	8	2	n/a	n/a	pyFR	0	TJ065
469.733	2.636	1193586	WORD	n/a	wordpools/wordpool_EN.txt	SHEET	9	2	n/a	n/a	pyFR	0	TJ065
472.369	2.518	1198858	WORD	n/a	wordpools/wordpool_EN.txt	SNOW	10	2	n/a	n/a	pyFR	0	TJ065
474.887	2.637	1203894	WORD	n/a	wordpools/wordpool_EN.txt	PASTE	11	2	n/a	n/a	pyFR	0	TJ065
477.524	2.769	1209168	WORD	n/a	wordpools/wordpool_EN.txt	SHIP	12	2	n/a	n/a	pyFR	0	TJ065
480.293	2.719	1214705	WORD	n/a	wordpools/wordpool_EN.txt	KEY	13	2	n/a	n/a	pyFR	0	TJ065
483.012	2.517	1220143	WORD	n/a	wordpools/wordpool_EN.txt	SEAT	14	2	n/a	n/a	pyFR	0	TJ065
485.529	1.621	1225177	WORD	n/a	wordpools/wordpool_EN.txt	MUG	15	2	n/a	n/a	pyFR	0	TJ065
487.15	1.033	1228419	START	n/a	n/a	n/a	n/a	2	[-999 -999 -999]	-999	pyFR	0	TJ065
488.183	20.118	1230485	PROB	20.118	n/a	n/a	n/a	2	[6 7 9]	22	pyFR	0	TJ065
508.301	1.084	1270719	STOP	n/a	n/a	n/a	n/a	2	[-999 -999 -999]	-999	pyFR	0	TJ065
509.385	3.314	1272887	REC_START	n/a	n/a	n/a	-999	2	n/a	n/a	pyFR	0	TJ065
512.699	3.721	1279515	REC_WORD	3.314	n/a	SEAT	-999	2	n/a	n/a	pyFR	0	TJ065
516.42	2.54	1286957	REC_WORD	7.035	n/a	DART	-999	2	n/a	n/a	pyFR	0	TJ065
518.96	8.438	1292036	REC_WORD	9.575	n/a	SHEET	-999	2	n/a	n/a	pyFR	0	TJ065
527.398	8.359	1308912	REC_WORD	18.013	n/a	COUCH	-999	2	n/a	n/a	pyFR	0	TJ065
535.757	14.907	1325629	REC_WORD	26.372	n/a	KEY	-999	2	n/a	n/a	pyFR	0	TJ065
550.664	15.084	1355442	REC_WORD	41.279	n/a	BRIDGE	-999	2	n/a	n/a	pyFR	0	TJ065
565.748	0.016	1385609	TRIAL	n/a	n/a	n/a	-999	3	n/a	n/a	pyFR	0	TJ065
565.764	2.785	1385641	ORIENT	n/a	n/a	n/a	-999	3	n/a	n/a	pyFR	0	TJ065
568.549	2.67	1391210	WORD	n/a	wordpools/wordpool_EN.txt	SLIME	1	3	n/a	n/a	pyFR	0	TJ065
571.219	2.651	1396550	WORD	n/a	wordpools/wordpool_EN.txt	MOLE	2	3	n/a	n/a	pyFR	0	TJ065
573.87	2.57	1401852	WORD	n/a	wordpools/wordpool_EN.txt	RAKE	3	3	n/a	n/a	pyFR	0	TJ065
576.44	2.486	1406992	WORD	n/a	wordpools/wordpool_EN.txt	WORM	4	3	n/a	n/a	pyFR	0	TJ065
578.926	2.535	1411963	WORD	n/a	wordpools/wordpool_EN.txt	CORD	5	3	n/a	n/a	pyFR	0	TJ065
581.461	2.669	1417033	WORD	n/a	wordpools/wordpool_EN.txt	GRAPE	6	3	n/a	n/a	pyFR	0	TJ065
584.13	2.601	1422371	WORD	n/a	wordpools/wordpool_EN.txt	BLOOM	7	3	n/a	n/a	pyFR	0	TJ065
586.731	2.603	1427573	WORD	n/a	wordpools/wordpool_EN.txt	GLOVE	8	3	n/a	n/a	pyFR	0	TJ065
589.334	2.568	1432779	WORD	n/a	wordpools/wordpool_EN.txt	HOSE	9	3	n/a	n/a	pyFR	0	TJ065
591.902	2.719	1437914	WORD	n/a	wordpools/wordpool_EN.txt	THUMB	10	3	n/a	n/a	pyFR	0	TJ065
594.621	2.47	1443352	WORD	n/a	wordpools/wordpool_EN.txt	CLOUD	11	3	n/a	n/a	pyFR	0	TJ065
597.091	2.751	1448292	WORD	n/a	wordpools/wordpool_EN.txt	PHONE	12	3	n/a	n/a	pyFR	0	TJ065
599.842	2.637	1453794	WORD	n/a	wordpools/wordpool_EN.txt	SALT	13	3	n/a	n/a	pyFR	0	TJ065
602.479	2.552	1459068	WORD	n/a	wordpools/wordpool_EN.txt	CAR	14	3	n/a	n/a	pyFR	0	TJ065
605.031	1.618	1464171	WORD	n/a	wordpools/wordpool_EN.txt	QUEEN	15	3	n/a	n/a	pyFR	0	TJ065
606.649	1.033	1467407	START	n/a	n/a	n/a	n/a	3	[-999 -999 -999]	-999	pyFR	0	TJ065
607.682	6.84	1469473	PROB	6.811	n/a	n/a	n/a	3	[3 1 4]	8	pyFR	0	TJ065
614.522	6.923	1483153	PROB	6.883	n/a	n/a	n/a	3	[4 8 9]	21	pyFR	0	TJ065
621.445	9.183	1496998	PROB	9.183	n/a	n/a	n/a	3	[7 7 5]	19	pyFR	0	TJ065
630.628	1.041	1515363	STOP	n/a	n/a	n/a	n/a	3	[-999 -999 -999]	-999	pyFR	0	TJ065
631.669	4.074	1517445	REC_START	n/a	n/a	n/a	-999	3	n/a	n/a	pyFR	0	TJ065
635.743	1.964	1525593	REC_WORD	4.074	n/a	CAR	-999	3	n/a	n/a	pyFR	0	TJ065
637.707	3.97	1529521	REC_WORD	6.038	n/a	GLOVE	-999	3	n/a	n/a	pyFR	0	TJ065
641.677	1.0	1537460	REC_WORD_VV	10.008	n/a	<>	-999	3	n/a	n/a	pyFR	0	TJ065
642.677	4.593	1539460	REC_WORD_VV	11.008	n/a	<>	-999	3	n/a	n/a	pyFR	0	TJ065
647.27	1.673	1548646	REC_WORD	15.601	n/a	SHIP	-999	3	n/a	n/a	pyFR	0	TJ065
648.943	13.063	1551992	REC_WORD	17.274	n/a	SALT	-999	3	n/a	n/a	pyFR	0	TJ065
662.006	3.138	1578117	REC_WORD	30.337	n/a	PHONE	-999	3	n/a	n/a	pyFR	0	TJ065
665.144	5.53	1584393	REC_WORD	33.475	n/a	THUMB	-999	3	n/a	n/a	pyFR	0	TJ065
670.674	22.415	1595452	REC_WORD	39.005	n/a	CORD	-999	3	n/a	n/a	pyFR	0	TJ065
693.089	0.016	1640280	TRIAL	n/a	n/a	n/a	-999	4	n/a	n/a	pyFR	0	TJ065
693.105	2.835	1640312	ORIENT	n/a	n/a	n/a	-999	4	n/a	n/a	pyFR	0	TJ065
695.94	2.618	1645982	WORD	n/a	wordpools/wordpool_EN.txt	SIGN	1	4	n/a	n/a	pyFR	0	TJ065
698.558	2.57	1651218	WORD	n/a	wordpools/wordpool_EN.txt	SKUNK	2	4	n/a	n/a	pyFR	0	TJ065
701.128	2.751	1656358	WORD	n/a	wordpools/wordpool_EN.txt	SMOKE	3	4	n/a	n/a	pyFR	0	TJ065
703.879	2.769	1661859	WORD	n/a	wordpools/wordpool_EN.txt	GIRL	4	4	n/a	n/a	pyFR	0	TJ065
706.648	2.52	1667397	WORD	n/a	wordpools/wordpool_EN.txt	BLUSH	5	4	n/a	n/a	pyFR	0	TJ065
709.168	2.501	1672437	WORD	n/a	wordpools/wordpool_EN.txt	BUSH	6	4	n/a	n/a	pyFR	0	TJ065
711.669	2.804	1677439	WORD	n/a	wordpools/wordpool_EN.txt	FOOD	7	4	n/a	n/a	pyFR	0	TJ065
714.473	2.535	1683047	WORD	n/a	wordpools/wordpool_EN.txt	DESK	8	4	n/a	n/a	pyFR	0	TJ065
717.008	2.668	1688116	WORD	n/a	wordpools/wordpool_EN.txt	VASE	9	4	n/a	n/a	pyFR	0	TJ065
719.676	2.57	1693452	WORD	n/a	wordpools/wordpool_EN.txt	BOY	10	4	n/a	n/a	pyFR	0	TJ065
722.246	2.568	1698592	WORD	n/a	wordpools/wordpool_EN.txt	GOLD	11	4	n/a	n/a	pyFR	0	TJ065
724.814	2.785	1703728	WORD	n/a	wordpools/wordpool_EN.txt	BALL	12	4	n/a	n/a	pyFR	0	TJ065
727.599	2.437	1709298	WORD	n/a	wordpools/wordpool_EN.txt	NOSE	13	4	n/a	n/a	pyFR	0	TJ065
730.036	2.485	1714171	WORD	n/a	wordpools/wordpool_EN.txt	STOOL	14	4	n/a	n/a	pyFR	0	TJ065
732.521	1.619	1719141	WORD	n/a	wordpools/wordpool_EN.txt	CALF	15	4	n/a	n/a	pyFR	0	TJ065
734.14	1.05	1722379	START	n/a	n/a	n/a	n/a	4	[-999 -999 -999]	-999	pyFR	0	TJ065
735.19	4.703	1724479	PROB	4.678	n/a	n/a	n/a	4	[4 2 1]	7	pyFR	0	TJ065
739.893	11.76	1733885	PROB	11.735	n/a	n/a	n/a	4	[3 2 8]	13	pyFR	0	TJ065
751.653	9.951	1757404	PROB	9.951	n/a	n/a	n/a	4	[9 9 5]	23	pyFR	0	TJ065
761.604	1.109	1777305	STOP	n/a	n/a	n/a	n/a	4	[-999 -999 -999]	-999	pyFR	0	TJ065
762.713	2.811	1779523	REC_START	n/a	n/a	n/a	-999	4	n/a	n/a	pyFR	0	TJ065
765.524	1.131	1785144	REC_WORD	2.811	n/a	BOY	-999	4	n/a	n/a	pyFR	0	TJ065
766.655	2.789	1787406	REC_WORD	3.942	n/a	GIRL	-999	4	n/a	n/a	pyFR	0	TJ065
769.444	2.889	1792984	REC_WORD	6.731	n/a	SLIME	-999	4	n/a	n/a	pyFR	0	TJ065
772.333	4.866	1798762	REC_WORD	9.62	n/a	MOLE	-999	4	n/a	n/a	pyFR	0	TJ065
777.199	3.996	1808494	REC_WORD	14.486	n/a	BUSH	-999	4	n/a	n/a	pyFR	0	TJ065
781.195	73.579	1816485	REC_WORD	18.482	n/a	BRANCH	-999	4	n/a	n/a	pyFR	0	TJ065
854.774	0.015	1963637	TRIAL	n/a	n/a	n/a	-999	5	n/a	n/a	pyFR	0	TJ065
854.789	2.869	1963667	ORIENT	n/a	n/a	n/a	-999	5	n/a	n/a	pyFR	0	TJ065
857.658	2.77	1969405	WORD	n/a	wordpools/wordpool_EN.txt	MOON	1	5	n/a	n/a	pyFR	0	TJ065
860.428	2.536	1974945	WORD	n/a	wordpools/wordpool_EN.txt	BOX	2	5	n/a	n/a	pyFR	0	TJ065
862.964	2.584	1980017	WORD	n/a	wordpools/wordpool_EN.txt	GATE	3	5	n/a	n/a	pyFR	0	TJ065
865.548	2.72	1985184	WORD	n/a	wordpools/wordpool_EN.txt	RIB	4	5	n/a	n/a	pyFR	0	TJ065
868.268	2.719	1990624	WORD	n/a	wordpools/wordpool_EN.txt	STORM	5	5	n/a	n/a	pyFR	0	TJ065
870.987	2.551	1996062	WORD	n/a	wordpools/wordpool_EN.txt	NAIL	6	5	n/a	n/a	pyFR	0	TJ065
873.538	2.837	2001164	WORD	n/a	wordpools/wordpool_EN.txt	ELF	7	5	n/a	n/a	pyFR	0	TJ065
876.375	2.719	2006838	WORD	n/a	wordpools/wordpool_EN.txt	VINE	8	5	n/a	n/a	pyFR	0	TJ065
879.094	2.735	2012275	WORD	n/a	wordpools/wordpool_EN.txt	TOE	9	5	n/a	n/a	pyFR	0	TJ065
881.829	2.486	2017745	WORD	n/a	wordpools/wordpool_EN.txt	BATH	10	5	n/a	n/a	pyFR	0	TJ065
884.315	2.702	2022717	WORD	n/a	wordpools/wordpool_EN.txt	FOAM	11	5	n/a	n/a	pyFR	0	TJ065
887.017	2.752	2028121	WORD	n/a	wordpools/wordpool_EN.txt	CUP	12	5	n/a	n/a	pyFR	0	TJ065
889.769	2.72	2033624	WORD	n/a	wordpools/wordpool_EN.txt	BEAR	13	5	n/a	n/a	pyFR	0	TJ065
892.489	2.435	2039064	WORD	n/a	wordpools/wordpool_EN.txt	FLAME	14	5	n/a	n/a	pyFR	0	TJ065
894.924	1.618	2043934	WORD	n/a	wordpools/wordpool_EN.txt	BOARD	15	5	n/a	n/a	pyFR	0	TJ065
896.542	0.984	2047170	START	n/a	n/a	n/a	n/a	5	[-999 -999 -999]	-999	pyFR	0	TJ065
897.526	16.481	2049138	PROB	16.447	n/a	n/a	n/a	5	[8 9 9]	26	pyFR	0	TJ065
914.007	9.038	2082099	PROB	9.038	n/a	n/a	n/a	5	[9 2 6]	17	pyFR	0	TJ065
923.045	1.238	2100174	STOP	n/a	n/a	n/a	n/a	5	[-999 -999 -999]	-999	pyFR	0	TJ065
924.283	17.002	2102650	REC_START	n/a	n/a	n/a	-999	5	n/a	n/a	pyFR	0	TJ065
941.285	12.933	2136652	REC_WORD	17.002	n/a	VINE	-999	5	n/a	n/a	pyFR	0	TJ065
954.218	50.082	2162517	REC_WORD	29.935	n/a	BATH	-999	5	n/a	n/a	pyFR	0	TJ065
1004.3	0.016	2262677	TRIAL	n/a	n/a	n/a	-999	6	n/a	n/a	pyFR	0	TJ065
1004.316	2.769	2262709	ORIENT	n/a	n/a	n/a	-999	6	n/a	n/a	pyFR	0	TJ065
1007.085	2.618	2268247	WORD	n/a	wordpools/wordpool_EN.txt	SHIRT	1	6	n/a	n/a	pyFR	0	TJ065
1009.703	2.603	2273483	WORD	n/a	wordpools/wordpool_EN.txt	SHELL	2	6	n/a	n/a	pyFR	0	TJ065
1012.306	2.719	2278689	WORD	n/a	wordpools/wordpool_EN.txt	BADGE	3	6	n/a	n/a	pyFR	0	TJ065
1015.025	2.718	2284126	WORD	n/a	wordpools/wordpool_EN.txt	POOL	4	6	n/a	n/a	pyFR	0	TJ065
1017.743	2.47	2289562	WORD	n/a	wordpools/wordpool_EN.txt	TOOL	5	6	n/a	n/a	pyFR	0	TJ065
1020.213	2.752	2294502	WORD	n/a	wordpools/wordpool_EN.txt	GUARD	6	6	n/a	n/a	pyFR	0	TJ065
1022.965	2.818	2300006	WORD	n/a	wordpools/wordpool_EN.txt	ICE	7	6	n/a	n/a	pyFR	0	TJ065
1025.783	2.769	2305642	WORD	n/a	wordpools/wordpool_EN.txt	FROG	8	6	n/a	n/a	pyFR	0	TJ065
1028.552	2.52	2311179	WORD	n/a	wordpools/wordpool_EN.txt	WHALE	9	6	n/a	n/a	pyFR	0	TJ065
1031.072	2.501	2316219	WORD	n/a	wordpools/wordpool_EN.txt	PEN	10	6	n/a	n/a	pyFR	0	TJ065
1033.573	2.803	2321221	WORD	n/a	wordpools/wordpool_EN.txt	PLANT	11	6	n/a	n/a	pyFR	0	TJ065
1036.376	2.434	2326827	WORD	n/a	wordpools/wordpool_EN.txt	ROOF	12	6	n/a	n/a	pyFR	0	TJ065
1038.81	2.454	2331695	WORD	n/a	wordpools/wordpool_EN.txt	FOX	13	6	n/a	n/a	pyFR	0	TJ065
1041.264	2.501	2336602	WORD	n/a	wordpools/wordpool_EN.txt	STAIR	14	6	n/a	n/a	pyFR	0	TJ065
1043.765	1.62	2341604	WORD	n/a	wordpools/wordpool_EN.txt	CLIFF	15	6	n/a	n/a	pyFR	0	TJ065
1045.385	1.133	2344844	START	n/a	n/a	n/a	n/a	6	[-999 -999 -999]	-999	pyFR	0	TJ065
1046.518	4.269	2347110	PROB	4.23	n/a	n/a	n/a	6	[1 2 8]	11	pyFR	0	TJ065
1050.787	4.338	2355648	PROB	4.314	n/a	n/a	n/a	6	[2 6 1]	9	pyFR	0	TJ065
1055.125	5.721	2364323	PROB	5.695	n/a	n/a	n/a	6	[9 9 8]	26	pyFR	0	TJ065
1060.846	8.694	2375765	PROB	8.694	n/a	n/a	n/a	6	[6 7 9]	21	pyFR	0	TJ065
1069.54	1.181	2393152	STOP	n/a	n/a	n/a	n/a	6	[-999 -999 -999]	-999	pyFR	0	TJ065
1070.721	3.095	2395514	REC_START	n/a	n/a	n/a	-999	6	n/a	n/a	pyFR	0	TJ065
1073.816	1.242	2401704	REC_WORD	3.095	n/a	FOX	-999	6	n/a	n/a	pyFR	0	TJ065
1075.058	1.0	2404188	REC_WORD_VV	4.337	n/a	<>	-999	6	n/a	n/a	pyFR	0	TJ065
1076.058	1.355	2406188	REC_WORD_VV	5.337	n/a	<>	-999	6	n/a	n/a	pyFR	0	TJ065
1077.413	1.0	2408897	REC_WORD	6.692	n/a	SKUNK	-999	6	n/a	n/a	pyFR	0	TJ065
1078.413	4.359	2410897	REC_WORD_VV	7.692	n/a	<>	-999	6	n/a	n/a	pyFR	0	TJ065
1082.772	3.159	2419615	REC_WORD	12.051	n/a	TOOL	-999	6	n/a	n/a	pyFR	0	TJ065
1085.931	4.65	2425933	REC_WORD	15.21	n/a	SHIRT	-999	6	n/a	n/a	pyFR	0	TJ065
1090.581	6.415	2435232	REC_WORD	19.86	n/a	POOL	-999	6	n/a	n/a	pyFR	0	TJ065
1096.996	17.068	2448062	REC_WORD	26.275	n/a	DATE	-999	6	n/a	n/a	pyFR	0	TJ065
1114.064	10.02	2482196	REC_WORD	43.343	n/a	GUARD	-999	6	n/a	n/a	pyFR	0	TJ065
1124.084	0.016	2502236	TRIAL	n/a	n/a	n/a	-999	7	n/a	n/a	pyFR	0	TJ065
1124.1	2.634	2502268	ORIENT	n/a	n/a	n/a	-999	7	n/a	n/a	pyFR	0	TJ065
1126.734	2.819	2507535	WORD	n/a	wordpools/wordpool_EN.txt	TOAD	1	7	n/a	n/a	pyFR	0	TJ065
1129.553	2.57	2513173	WORD	n/a	wordpools/wordpool_EN.txt	PEA	2	7	n/a	n/a	pyFR	0	TJ065
1132.123	2.568	2518313	WORD	n/a	wordpools/wordpool_EN.txt	NEST	3	7	n/a	n/a	pyFR	0	TJ065
1134.691	2.703	2523449	WORD	n/a	wordpools/wordpool_EN.txt	WOOD	4	7	n/a	n/a	pyFR	0	TJ065
1137.394	2.636	2528855	WORD	n/a	wordpools/wordpool_EN.txt	PIN	5	7	n/a	n/a	pyFR	0	TJ065
1140.03	2.634	2534126	WORD	n/a	wordpools/wordpool_EN.txt	FUDGE	6	7	n/a	n/a	pyFR	0	TJ065
1142.664	2.537	2539394	WORD	n/a	wordpools/wordpool_EN.txt	HEART	7	7	n/a	n/a	pyFR	0	TJ065
1145.201	2.752	2544468	WORD	n/a	wordpools/wordpool_EN.txt	HOUSE	8	7	n/a	n/a	pyFR	0	TJ065
1147.953	2.435	2549972	WORD	n/a	wordpools/wordpool_EN.txt	TENT	9	7	n/a	n/a	pyFR	0	TJ065
1150.388	2.468	2554842	WORD	n/a	wordpools/wordpool_EN.txt	MOTH	10	7	n/a	n/a	pyFR	0	TJ065
1152.856	2.719	2559777	WORD	n/a	wordpools/wordpool_EN.txt	PIG	11	7	n/a	n/a	pyFR	0	TJ065
1155.575	2.787	2565215	WORD	n/a	wordpools/wordpool_EN.txt	SAIL	12	7	n/a	n/a	pyFR	0	TJ065
1158.362	2.585	2570789	WORD	n/a	wordpools/wordpool_EN.txt	MOUTH	13	7	n/a	n/a	pyFR	0	TJ065
1160.947	2.651	2575959	WORD	n/a	wordpools/wordpool_EN.txt	FILM	14	7	n/a	n/a	pyFR	0	TJ065
1163.598	1.621	2581260	WORD	n/a	wordpools/wordpool_EN.txt	TOY	15	7	n/a	n/a	pyFR	0	TJ065
1165.219	1.15	2584502	START	n/a	n/a	n/a	n/a	7	[-999 -999 -999]	-999	pyFR	0	TJ065
1166.369	4.486	2586802	PROB	4.451	n/a	n/a	n/a	7	[3 7 4]	14	pyFR	0	TJ065
1170.855	4.304	2595774	PROB	4.278	n/a	n/a	n/a	7	[7 7 4]	18	pyFR	0	TJ065
1175.159	4.337	2604382	PROB	4.31	n/a	n/a	n/a	7	[1 4 6]	11	pyFR	0	TJ065
1179.496	4.437	2613055	PROB	4.404	n/a	n/a	n/a	7	[6 6 1]	13	pyFR	0	TJ065
1183.933	4.783	2621929	PROB	4.783	n/a	n/a	n/a	7	[3 7 6]	16	pyFR	0	TJ065
1188.716	1.24	2631494	STOP	n/a	n/a	n/a	n/a	7	[-999 -999 -999]	-999	pyFR	0	TJ065
1189.956	2.8	2633974	REC_START	n/a	n/a	n/a	-999	7	n/a	n/a	pyFR	0	TJ065
1192.756	1.0	2639574	REC_WORD	2.8	n/a	PIN	-999	7	n/a	n/a	pyFR	0	TJ065
1193.756	1.853	2641574	REC_WORD_VV	3.8	n/a	<>	-999	7	n/a	n/a	pyFR	0	TJ065
1195.609	3.275	2645280	REC_WORD	5.653	n/a	TENT	-999	7	n/a	n/a	pyFR	0	TJ065
1198.884	3.046	2651830	REC_WORD_VV	8.928	n/a	<>	-999	7	n/a	n/a	pyFR	0	TJ065
1201.93	14.785	2657921	REC_WORD	11.974	n/a	TOAD	-999	7	n/a	n/a	pyFR	0	TJ065
1216.715	2.393	2687490	REC_WORD	26.759	n/a	BADGE	-999	7	n/a	n/a	pyFR	0	TJ065
1219.108	1.0	2692276	REC_WORD_VV	29.152	n/a	<>	-999	7	n/a	n/a	pyFR	0	TJ065
1220.108	22.441	2694276	REC_WORD_VV	30.152	n/a	<>	-999	7	n/a	n/a	pyFR	0	TJ065
1242.549	0.016	2739156	TRIAL	n/a	n/a	n/a	-999	8	n/a	n/a	pyFR	0	TJ065
1242.565	2.887	2739188	ORIENT	n/a	n/a	n/a	-999	8	n/a	n/a	pyFR	0	TJ065
1245.452	2.652	2744962	WORD	n/a	wordpools/wordpool_EN.txt	GRASS	1	8	n/a	n/a	pyFR	0	TJ065
1248.104	2.651	2750266	WORD	n/a	wordpools/wordpool_EN.txt	WEB	2	8	n/a	n/a	pyFR	0	TJ065
1250.755	2.553	2755567	WORD	n/a	wordpools/wordpool_EN.txt	TRASH	3	8	n/a	n/a	pyFR	0	TJ065
1253.308	2.501	2760673	WORD	n/a	wordpools/wordpool_EN.txt	STRING	4	8	n/a	n/a	pyFR	0	TJ065
1255.809	2.52	2765675	WORD	n/a	wordpools/wordpool_EN.txt	ARM	5	8	n/a	n/a	pyFR	0	TJ065
1258.329	2.501	2770715	WORD	n/a	wordpools/wordpool_EN.txt	LAMP	6	8	n/a	n/a	pyFR	0	TJ065
1260.83	2.487	2775717	WORD	n/a	wordpools/wordpool_EN.txt	ROCK	7	8	n/a	n/a	pyFR	0	TJ065
1263.317	2.735	2780690	WORD	n/a	wordpools/wordpool_EN.txt	TEA	8	8	n/a	n/a	pyFR	0	TJ065
1266.052	2.501	2786160	WORD	n/a	wordpools/wordpool_EN.txt	SEAL	9	8	n/a	n/a	pyFR	0	TJ065
1268.553	2.637	2791162	WORD	n/a	wordpools/wordpool_EN.txt	FOG	10	8	n/a	n/a	pyFR	0	TJ065
1271.19	2.836	2796436	WORD	n/a	wordpools/wordpool_EN.txt	COW	11	8	n/a	n/a	pyFR	0	TJ065
1274.026	2.517	2802108	WORD	n/a	wordpools/wordpool_EN.txt	LOCK	12	8	n/a	n/a	pyFR	0	TJ065
1276.543	2.77	2807141	WORD	n/a	wordpools/wordpool_EN.txt	DUCK	13	8	n/a	n/a	pyFR	0	TJ065
1279.313	2.753	2812681	WORD	n/a	wordpools/wordpool_EN.txt	SHIELD	14	8	n/a	n/a	pyFR	0	TJ065
1282.066	1.618	2818187	WORD	n/a	wordpools/wordpool_EN.txt	PLATE	15	8	n/a	n/a	pyFR	0	TJ065
1283.684	1.183	2821423	START	n/a	n/a	n/a	n/a	8	[-999 -999 -999]	-999	pyFR	0	TJ065
1284.867	10.059	2823789	PROB	10.033	n/a	n/a	n/a	8	[9 4 5]	18	pyFR	0	TJ065
1294.926	8.541	2843906	PROB	8.511	n/a	n/a	n/a	8	[5 6 9]	20	pyFR	0	TJ065
1303.467	4.201	2860987	PROB	4.201	n/a	n/a	n/a	8	[5 1 9]	15	pyFR	0	TJ065
1307.668	1.186	2869389	STOP	n/a	n/a	n/a	n/a	8	[-999 -999 -999]	-999	pyFR	0	TJ065
1308.854	7.119	2871761	REC_START	n/a	n/a	n/a	-999	8	n/a	n/a	pyFR	0	TJ065
1315.973	6.484	2885998	REC_WORD	7.119	n/a	PLATE	-999	8	n/a	n/a	pyFR	0	TJ065
1322.457	378.495	2898966	REC_WORD	13.603	n/a	FOG	-999	8	n/a	n/a	pyFR	0	TJ065
1700.952	0.015	3655925	TRIAL	n/a	n/a	n/a	-999	9	n/a	n/a	pyFR	0	TJ065
1700.967	2.718	3655955	ORIENT	n/a	n/a	n/a	-999	9	n/a	n/a	pyFR	0	TJ065
1703.685	2.703	3661391	WORD	n/a	wordpools/wordpool_EN.txt	CLOWN	1	9	n/a	n/a	pyFR	0	TJ065
1706.388	2.636	3666797	WORD	n/a	wordpools/wordpool_EN.txt	CLOCK	2	9	n/a	n/a	pyFR	0	TJ065
1709.024	2.718	3672069	WORD	n/a	wordpools/wordpool_EN.txt	CAT	3	9	n/a	n/a	pyFR	0	TJ065
1711.742	2.753	3677504	WORD	n/a	wordpools/wordpool_EN.txt	LEG	4	9	n/a	n/a	pyFR	0	TJ065
1714.495	2.802	3683010	WORD	n/a	wordpools/wordpool_EN.txt	FACE	5	9	n/a	n/a	pyFR	0	TJ065
1717.297	2.67	3688614	WORD	n/a	wordpools/wordpool_EN.txt	TOAST	6	9	n/a	n/a	pyFR	0	TJ065
1719.967	2.601	3693954	WORD	n/a	wordpools/wordpool_EN.txt	TRAIN	7	9	n/a	n/a	pyFR	0	TJ065
1722.568	2.753	3699156	WORD	n/a	wordpools/wordpool_EN.txt	SEED	8	9	n/a	n/a	pyFR	0	TJ065
1725.321	2.451	3704661	WORD	n/a	wordpools/wordpool_EN.txt	FUR	9	9	n/a	n/a	pyFR	0	TJ065
1727.772	2.536	3709563	WORD	n/a	wordpools/wordpool_EN.txt	JUDGE	10	9	n/a	n/a	pyFR	0	TJ065
1730.308	2.619	3714635	WORD	n/a	wordpools/wordpool_EN.txt	OWL	11	9	n/a	n/a	pyFR	0	TJ065
1732.927	2.536	3719873	WORD	n/a	wordpools/wordpool_EN.txt	CUBE	12	9	n/a	n/a	pyFR	0	TJ065
1735.463	2.669	3724944	WORD	n/a	wordpools/wordpool_EN.txt	STORE	13	9	n/a	n/a	pyFR	0	TJ065
1738.132	2.651	3730282	WORD	n/a	wordpools/wordpool_EN.txt	WHEEL	14	9	n/a	n/a	pyFR	0	TJ065
1740.783	1.62	3735584	WORD	n/a	wordpools/wordpool_EN.txt	MAZE	15	9	n/a	n/a	pyFR	0	TJ065
1742.403	1.033	3738824	START	n/a	n/a	n/a	n/a	9	[-999 -999 -999]	-999	pyFR	0	TJ065
1743.436	5.187	3740890	PROB	5.16	n/a	n/a	n/a	9	[8 8 4]	20	pyFR	0	TJ065
1748.623	22.35	3751263	PROB	22.35	n/a	n/a	n/a	9	[7 6 8]	21	pyFR	0	TJ065
1770.973	1.155	3795962	STOP	n/a	n/a	n/a	n/a	9	[-999 -999 -999]	-999	pyFR	0	TJ065
1772.128	2.642	3798272	REC_START	n/a	n/a	n/a	-999	9	n/a	n/a	pyFR	0	TJ065
1774.77	0.325	3803555	REC_WORD	2.642	n/a	CLOCK	-999	9	n/a	n/a	pyFR	0	TJ065
1775.095	1.979	3804205	REC_WORD_VV	2.967	n/a	<>	-999	9	n/a	n/a	pyFR	0	TJ065
1777.074	2.553	3808163	REC_WORD	4.946	n/a	WHEEL	-999	9	n/a	n/a	pyFR	0	TJ065
1779.627	2.647	3813269	REC_WORD	7.499	n/a	LEG	-999	9	n/a	n/a	pyFR	0	TJ065
1782.274	20.836	3818563	REC_WORD	10.146	n/a	FACE	-999	9	n/a	n/a	pyFR	0	TJ065
1803.11	18.591	3860233	REC_WORD	30.982	n/a	FUR	-999	9	n/a	n/a	pyFR	0	TJ065
1821.701	0.016	3897414	TRIAL	n/a	n/a	n/a	-999	10	n/a	n/a	pyFR	0	TJ065
1821.717	2.804	3897446	ORIENT	n/a	n/a	n/a	-999	10	n/a	n/a	pyFR	0	TJ065
1824.521	2.452	3903053	WORD	n/a	wordpools/wordpool_EN.txt	GOAT	1	10	n/a	n/a	pyFR	0	TJ065
1826.973	2.735	3907957	WORD	n/a	wordpools/wordpool_EN.txt	WEED	2	10	n/a	n/a	pyFR	0	TJ065
1829.708	2.786	3913427	WORD	n/a	wordpools/wordpool_EN.txt	CAGE	3	10	n/a	n/a	pyFR	0	TJ065
1832.494	2.469	3918999	WORD	n/a	wordpools/wordpool_EN.txt	FLUTE	4	10	n/a	n/a	pyFR	0	TJ065
1834.963	2.701	3923936	WORD	n/a	wordpools/wordpool_EN.txt	JAR	5	10	n/a	n/a	pyFR	0	TJ065
1837.664	2.453	3929338	WORD	n/a	wordpools/wordpool_EN.txt	MOOSE	6	10	n/a	n/a	pyFR	0	TJ065
1840.117	2.485	3934244	WORD	n/a	wordpools/wordpool_EN.txt	POLE	7	10	n/a	n/a	pyFR	0	TJ065
1842.602	2.503	3939214	WORD	n/a	wordpools/wordpool_EN.txt	CAVE	8	10	n/a	n/a	pyFR	0	TJ065
1845.105	2.819	3944220	WORD	n/a	wordpools/wordpool_EN.txt	FOOT	9	10	n/a	n/a	pyFR	0	TJ065
1847.924	2.502	3949857	WORD	n/a	wordpools/wordpool_EN.txt	STAR	10	10	n/a	n/a	pyFR	0	TJ065
1850.426	2.535	3954861	WORD	n/a	wordpools/wordpool_EN.txt	DOOR	11	10	n/a	n/a	pyFR	0	TJ065
1852.961	2.718	3959931	WORD	n/a	wordpools/wordpool_EN.txt	HILL	12	10	n/a	n/a	pyFR	0	TJ065
1855.679	2.62	3965367	WORD	n/a	wordpools/wordpool_EN.txt	TRAY	13	10	n/a	n/a	pyFR	0	TJ065
1858.299	2.601	3970607	WORD	n/a	wordpools/wordpool_EN.txt	SKI	14	10	n/a	n/a	pyFR	0	TJ065
1860.9	1.621	3975808	WORD	n/a	wordpools/wordpool_EN.txt	JUICE	15	10	n/a	n/a	pyFR	0	TJ065
1862.521	1.015	3979050	START	n/a	n/a	n/a	n/a	10	[-999 -999 -999]	-999	pyFR	0	TJ065
1863.536	7.457	3981080	PROB	7.429	n/a	n/a	n/a	10	[5 4 6]	15	pyFR	0	TJ065
1870.993	5.521	3995994	PROB	5.484	n/a	n/a	n/a	10	[3 4 6]	13	pyFR	0	TJ065
1876.514	4.12	4007035	PROB	4.08	n/a	n/a	n/a	10	[1 1 5]	7	pyFR	0	TJ065
1880.634	6.347	4015275	PROB	6.347	n/a	n/a	n/a	10	[3 2 7]	12	pyFR	0	TJ065
1886.981	1.11	4027968	STOP	n/a	n/a	n/a	n/a	10	[-999 -999 -999]	-999	pyFR	0	TJ065
1888.091	2.361	4030188	REC_START	n/a	n/a	n/a	-999	10	n/a	n/a	pyFR	0	TJ065
1890.452	2.025	4034910	REC_WORD	2.361	n/a	DOOR	-999	10	n/a	n/a	pyFR	0	TJ065
1892.477	2.287	4038960	REC_WORD	4.386	n/a	POLE	-999	10	n/a	n/a	pyFR	0	TJ065
1894.764	3.935	4043534	REC_WORD	6.673	n/a	SKY	-999	10	n/a	n/a	pyFR	0	TJ065
1898.699	4.509	4051403	REC_WORD	10.608	n/a	TRAY	-999	10	n/a	n/a	pyFR	0	TJ065
1903.208	5.307	4060421	REC_WORD	15.117	n/a	MOOSE	-999	10	n/a	n/a	pyFR	0	TJ065
1908.515	114.355	4071035	REC_WORD	20.424	n/a	GOAT	-999	10	n/a	n/a	pyFR	0	TJ065
2022.87	0.016	4299735	TRIAL	n/a	n/a	n/a	-999	11	n/a	n/a	pyFR	0	TJ065
2022.886	3.003	4299767	ORIENT	n/a	n/a	n/a	-999	11	n/a	n/a	pyFR	0	TJ065
2025.889	2.652	4305773	WORD	n/a	wordpools/wordpool_EN.txt	FLAG	1	11	n/a	n/a	pyFR	0	TJ065
2028.541	2.77	4311077	WORD	n/a	wordpools/wordpool_EN.txt	ZOO	2	11	n/a	n/a	pyFR	0	TJ065
2031.311	2.752	4316617	WORD	n/a	wordpools/wordpool_EN.txt	CHAIR	3	11	n/a	n/a	pyFR	0	TJ065
2034.063	2.485	4322120	WORD	n/a	wordpools/wordpool_EN.txt	CANE	4	11	n/a	n/a	pyFR	0	TJ065
2036.548	2.453	4327090	WORD	n/a	wordpools/wordpool_EN.txt	BOOT	5	11	n/a	n/a	pyFR	0	TJ065
2039.001	2.618	4331996	WORD	n/a	wordpools/wordpool_EN.txt	DOLL	6	11	n/a	n/a	pyFR	0	TJ065
2041.619	2.786	4337232	WORD	n/a	wordpools/wordpool_EN.txt	HORN	7	11	n/a	n/a	pyFR	0	TJ065
2044.405	2.536	4342804	WORD	n/a	wordpools/wordpool_EN.txt	STOVE	8	11	n/a	n/a	pyFR	0	TJ065
2046.941	2.552	4347875	WORD	n/a	wordpools/wordpool_EN.txt	DOCK	9	11	n/a	n/a	pyFR	0	TJ065
2049.493	2.786	4352979	WORD	n/a	wordpools/wordpool_EN.txt	TOOTH	10	11	n/a	n/a	pyFR	0	TJ065
2052.279	2.669	4358551	WORD	n/a	wordpools/wordpool_EN.txt	SEA	11	11	n/a	n/a	pyFR	0	TJ065
2054.948	2.552	4363889	WORD	n/a	wordpools/wordpool_EN.txt	CLOTH	12	11	n/a	n/a	pyFR	0	TJ065
2057.5	2.835	4368993	WORD	n/a	wordpools/wordpool_EN.txt	LEAF	13	11	n/a	n/a	pyFR	0	TJ065
2060.335	2.803	4374662	WORD	n/a	wordpools/wordpool_EN.txt	ROOM	14	11	n/a	n/a	pyFR	0	TJ065
2063.138	1.618	4380268	WORD	n/a	wordpools/wordpool_EN.txt	RICE	15	11	n/a	n/a	pyFR	0	TJ065
2064.756	1.05	4383504	START	n/a	n/a	n/a	n/a	11	[-999 -999 -999]	-999	pyFR	0	TJ065
2065.806	4.554	4385604	PROB	4.519	n/a	n/a	n/a	11	[1 1 4]	6	pyFR	0	TJ065
2070.36	7.272	4394712	PROB	7.236	n/a	n/a	n/a	11	[9 9 5]	23	pyFR	0	TJ065
2077.632	4.855	4409255	PROB	4.821	n/a	n/a	n/a	11	[7 1 8]	16	pyFR	0	TJ065
2082.487	3.966	4418965	PROB	3.966	n/a	n/a	n/a	11	[2 4 4]	10	pyFR	0	TJ065
2086.453	1.238	4426896	STOP	n/a	n/a	n/a	n/a	11	[-999 -999 -999]	-999	pyFR	0	TJ065
2087.691	21.085	4429372	REC_START	n/a	n/a	n/a	-999	11	n/a	n/a	pyFR	0	TJ065
2108.776	4.075	4471540	REC_WORD	21.085	n/a	CHAIR	-999	11	n/a	n/a	pyFR	0	TJ065
2112.851	9.167	4479690	REC_WORD	25.16	n/a	ROOM	-999	11	n/a	n/a	pyFR	0	TJ065
2122.018	45.208	4498023	REC_WORD	34.327	n/a	DOCK	-999	11	n/a	n/a	pyFR	0	TJ065
2167.226	0.016	4588436	TRIAL	n/a	n/a	n/a	-999	12	n/a	n/a	pyFR	0	TJ065
2167.242	2.735	4588468	ORIENT	n/a	n/a	n/a	-999	12	n/a	n/a	pyFR	0	TJ065
2169.977	2.718	4593938	WORD	n/a	wordpools/wordpool_EN.txt	BEAK	1	12	n/a	n/a	pyFR	0	TJ065
2172.695	2.553	4599373	WORD	n/a	wordpools/wordpool_EN.txt	PET	2	12	n/a	n/a	pyFR	0	TJ065
2175.248	2.552	4604479	WORD	n/a	wordpools/wordpool_EN.txt	TREE	3	12	n/a	n/a	pyFR	0	TJ065
2177.8	2.72	4609583	WORD	n/a	wordpools/wordpool_EN.txt	JET	4	12	n/a	n/a	pyFR	0	TJ065
2180.52	2.735	4615023	WORD	n/a	wordpools/wordpool_EN.txt	ROOT	5	12	n/a	n/a	pyFR	0	TJ065
2183.255	2.618	4620492	WORD	n/a	wordpools/wordpool_EN.txt	MULE	6	12	n/a	n/a	pyFR	0	TJ065
2185.873	2.736	4625728	WORD	n/a	wordpools/wordpool_EN.txt	STEAK	7	12	n/a	n/a	pyFR	0	TJ065
2188.609	2.686	4631200	WORD	n/a	wordpools/wordpool_EN.txt	AXE	8	12	n/a	n/a	pyFR	0	TJ065
2191.295	2.518	4636572	WORD	n/a	wordpools/wordpool_EN.txt	SUN	9	12	n/a	n/a	pyFR	0	TJ065
2193.813	2.736	4641608	WORD	n/a	wordpools/wordpool_EN.txt	MUD	10	12	n/a	n/a	pyFR	0	TJ065
2196.549	2.486	4647079	WORD	n/a	wordpools/wordpool_EN.txt	SNAIL	11	12	n/a	n/a	pyFR	0	TJ065
2199.035	2.501	4652051	WORD	n/a	wordpools/wordpool_EN.txt	TAPE	12	12	n/a	n/a	pyFR	0	TJ065
2201.536	2.62	4657053	WORD	n/a	wordpools/wordpool_EN.txt	BRUSH	13	12	n/a	n/a	pyFR	0	TJ065
2204.156	2.701	4662293	WORD	n/a	wordpools/wordpool_EN.txt	CRANE	14	12	n/a	n/a	pyFR	0	TJ065
2206.857	1.621	4667695	WORD	n/a	wordpools/wordpool_EN.txt	SMILE	15	12	n/a	n/a	pyFR	0	TJ065
2208.478	1.165	4670936	START	n/a	n/a	n/a	n/a	12	[-999 -999 -999]	-999	pyFR	0	TJ065
2209.643	4.488	4673266	PROB	4.45	n/a	n/a	n/a	12	[2 4 3]	9	pyFR	0	TJ065
2214.131	25.202	4682242	PROB	25.202	n/a	n/a	n/a	12	[5 8 9]	22	pyFR	0	TJ065
2239.333	1.154	4732644	STOP	n/a	n/a	n/a	n/a	12	[-999 -999 -999]	-999	pyFR	0	TJ065
2240.487	1.983	4734952	REC_START	n/a	n/a	n/a	-999	12	n/a	n/a	pyFR	0	TJ065
2242.47	79.418	4738918	REC_WORD	1.983	n/a	CRANE	-999	12	n/a	n/a	pyFR	0	TJ065
2321.888	0.016	4897747	TRIAL	n/a	n/a	n/a	-999	13	n/a	n/a	pyFR	0	TJ065
2321.904	2.836	4897779	ORIENT	n/a	n/a	n/a	-999	13	n/a	n/a	pyFR	0	TJ065
2324.74	2.586	4903451	WORD	n/a	wordpools/wordpool_EN.txt	ROSE	1	13	n/a	n/a	pyFR	0	TJ065
2327.326	2.819	4908623	WORD	n/a	wordpools/wordpool_EN.txt	CHALK	2	13	n/a	n/a	pyFR	0	TJ065
2330.145	2.751	4914261	WORD	n/a	wordpools/wordpool_EN.txt	PARK	3	13	n/a	n/a	pyFR	0	TJ065
2332.896	2.487	4919762	WORD	n/a	wordpools/wordpool_EN.txt	KING	4	13	n/a	n/a	pyFR	0	TJ065
2335.383	2.752	4924736	WORD	n/a	wordpools/wordpool_EN.txt	COAT	5	13	n/a	n/a	pyFR	0	TJ065
2338.135	2.618	4930240	WORD	n/a	wordpools/wordpool_EN.txt	CHEEK	6	13	n/a	n/a	pyFR	0	TJ065
2340.753	2.603	4935476	WORD	n/a	wordpools/wordpool_EN.txt	HOLE	7	13	n/a	n/a	pyFR	0	TJ065
2343.356	2.736	4940682	WORD	n/a	wordpools/wordpool_EN.txt	FORK	8	13	n/a	n/a	pyFR	0	TJ065
2346.092	2.501	4946153	WORD	n/a	wordpools/wordpool_EN.txt	RAIN	9	13	n/a	n/a	pyFR	0	TJ065
2348.593	2.453	4951155	WORD	n/a	wordpools/wordpool_EN.txt	RUG	10	13	n/a	n/a	pyFR	0	TJ065
2351.046	2.551	4956061	WORD	n/a	wordpools/wordpool_EN.txt	PANTS	11	13	n/a	n/a	pyFR	0	TJ065
2353.597	2.553	4961163	WORD	n/a	wordpools/wordpool_EN.txt	SCHOOL	12	13	n/a	n/a	pyFR	0	TJ065
2356.15	2.786	4966269	WORD	n/a	wordpools/wordpool_EN.txt	JAIL	13	13	n/a	n/a	pyFR	0	TJ065
2358.936	2.485	4971840	WORD	n/a	wordpools/wordpool_EN.txt	PIE	14	13	n/a	n/a	pyFR	0	TJ065
2361.421	1.62	4976810	WORD	n/a	wordpools/wordpool_EN.txt	CHIEF	15	13	n/a	n/a	pyFR	0	TJ065
2363.041	1.099	4980050	START	n/a	n/a	n/a	n/a	13	[-999 -999 -999]	-999	pyFR	0	TJ065
2364.14	6.588	4982248	PROB	6.552	n/a	n/a	n/a	13	[7 9 3]	19	pyFR	0	TJ065
2370.728	3.437	4995423	PROB	3.413	n/a	n/a	n/a	13	[4 5 9]	18	pyFR	0	TJ065
2374.165	5.138	5002297	PROB	5.112	n/a	n/a	n/a	13	[4 7 9]	20	pyFR	0	TJ065
2379.303	13.094	5012573	PROB	13.094	n/a	n/a	n/a	13	[8 5 7]	20	pyFR	0	TJ065
2392.397	1.201	5038760	STOP	n/a	n/a	n/a	n/a	13	[-999 -999 -999]	-999	pyFR	0	TJ065
2393.598	3.12	5041162	REC_START	n/a	n/a	n/a	-999	13	n/a	n/a	pyFR	0	TJ065
2396.718	1.819	5047401	REC_WORD	3.12	n/a	PIE	-999	13	n/a	n/a	pyFR	0	TJ065
2398.537	14.491	5051039	REC_WORD	4.939	n/a	COAT	-999	13	n/a	n/a	pyFR	0	TJ065
2413.028	24.975	5080020	REC_WORD	19.43	n/a	KING	-999	13	n/a	n/a	pyFR	0	TJ065
2438.003	5.938	5129968	REC_WORD	44.405	n/a	FORK	-999	13	n/a	n/a	pyFR	0	TJ065
2443.941	0.016	5141844	TRIAL	n/a	n/a	n/a	-999	14	n/a	n/a	pyFR	0	TJ065
2443.957	2.785	5141876	ORIENT	n/a	n/a	n/a	-999	14	n/a	n/a	pyFR	0	TJ065
2446.742	2.786	5147445	WORD	n/a	wordpools/wordpool_EN.txt	PIPE	1	14	n/a	n/a	pyFR	0	TJ065
2449.528	2.553	5153017	WORD	n/a	wordpools/wordpool_EN.txt	BAND	2	14	n/a	n/a	pyFR	0	TJ065
2452.081	2.468	5158123	WORD	n/a	wordpools/wordpool_EN.txt	LAMB	3	14	n/a	n/a	pyFR	0	TJ065
2454.549	2.486	5163059	WORD	n/a	wordpools/wordpool_EN.txt	DRESS	4	14	n/a	n/a	pyFR	0	TJ065
2457.035	2.668	5168030	WORD	n/a	wordpools/wordpool_EN.txt	FRUIT	5	14	n/a	n/a	pyFR	0	TJ065
2459.703	2.736	5173366	WORD	n/a	wordpools/wordpool_EN.txt	INK	6	14	n/a	n/a	pyFR	0	TJ065
2462.439	2.736	5178838	WORD	n/a	wordpools/wordpool_EN.txt	SWORD	7	14	n/a	n/a	pyFR	0	TJ065
2465.175	2.468	5184310	WORD	n/a	wordpools/wordpool_EN.txt	OAR	8	14	n/a	n/a	pyFR	0	TJ065
2467.643	2.753	5189246	WORD	n/a	wordpools/wordpool_EN.txt	CASH	9	14	n/a	n/a	pyFR	0	TJ065
2470.396	2.686	5194751	WORD	n/a	wordpools/wordpool_EN.txt	PEAR	10	14	n/a	n/a	pyFR	0	TJ065
2473.082	2.784	5200123	WORD	n/a	wordpools/wordpool_EN.txt	HORSE	11	14	n/a	n/a	pyFR	0	TJ065
2475.866	2.719	5205691	WORD	n/a	wordpools/wordpool_EN.txt	THREAD	12	14	n/a	n/a	pyFR	0	TJ065
2478.585	2.47	5211129	WORD	n/a	wordpools/wordpool_EN.txt	STRAW	13	14	n/a	n/a	pyFR	0	TJ065
2481.055	2.469	5216069	WORD	n/a	wordpools/wordpool_EN.txt	BELL	14	14	n/a	n/a	pyFR	0	TJ065
2483.524	1.619	5221006	WORD	n/a	wordpools/wordpool_EN.txt	FLOOR	15	14	n/a	n/a	pyFR	0	TJ065
2485.143	1.05	5224244	START	n/a	n/a	n/a	n/a	14	[-999 -999 -999]	-999	pyFR	0	TJ065
2486.193	3.936	5226344	PROB	3.908	n/a	n/a	n/a	14	[4 4 8]	16	pyFR	0	TJ065
2490.129	11.243	5234216	PROB	11.22	n/a	n/a	n/a	14	[2 8 8]	18	pyFR	0	TJ065
2501.372	5.2	5256701	PROB	5.2	n/a	n/a	n/a	14	[9 2 7]	18	pyFR	0	TJ065
2506.572	1.188	5267100	STOP	n/a	n/a	n/a	n/a	14	[-999 -999 -999]	-999	pyFR	0	TJ065
2507.76	1.947	5269476	REC_START	n/a	n/a	n/a	-999	14	n/a	n/a	pyFR	0	TJ065
2509.707	2.749	5273370	REC_WORD	1.947	n/a	STRAW	-999	14	n/a	n/a	pyFR	0	TJ065
2512.456	38.146	5278868	REC_WORD	4.696	n/a	CUP	-999	14	n/a	n/a	pyFR	0	TJ065
2550.602	8.001	5355157	REC_WORD	42.842	n/a	PIE	-999	14	n/a	n/a	pyFR	0	TJ065
2558.603	0.016	5371158	TRIAL	n/a	n/a	n/a	-999	15	n/a	n/a	pyFR	0	TJ065
2558.619	2.804	5371190	ORIENT	n/a	n/a	n/a	-999	15	n/a	n/a	pyFR	0	TJ065
2561.423	2.602	5376798	WORD	n/a	wordpools/wordpool_EN.txt	FLEA	1	15	n/a	n/a	pyFR	0	TJ065
2564.025	2.601	5382002	WORD	n/a	wordpools/wordpool_EN.txt	JEEP	2	15	n/a	n/a	pyFR	0	TJ065
2566.626	2.637	5387204	WORD	n/a	wordpools/wordpool_EN.txt	MOUSE	3	15	n/a	n/a	pyFR	0	TJ065
2569.263	2.551	5392477	WORD	n/a	wordpools/wordpool_EN.txt	STREET	4	15	n/a	n/a	pyFR	0	TJ065
2571.814	2.486	5397579	WORD	n/a	wordpools/wordpool_EN.txt	DIME	5	15	n/a	n/a	pyFR	0	TJ065
2574.3	2.802	5402551	WORD	n/a	wordpools/wordpool_EN.txt	DOG	6	15	n/a	n/a	pyFR	0	TJ065
2577.102	2.802	5408155	WORD	n/a	wordpools/wordpool_EN.txt	VAN	7	15	n/a	n/a	pyFR	0	TJ065
2579.904	2.62	5413759	WORD	n/a	wordpools/wordpool_EN.txt	BROOM	8	15	n/a	n/a	pyFR	0	TJ065
2582.524	2.668	5418998	WORD	n/a	wordpools/wordpool_EN.txt	DRUM	9	15	n/a	n/a	pyFR	0	TJ065
2585.192	2.803	5424334	WORD	n/a	wordpools/wordpool_EN.txt	LAND	10	15	n/a	n/a	pyFR	0	TJ065
2587.995	2.768	5429940	WORD	n/a	wordpools/wordpool_EN.txt	PEACH	11	15	n/a	n/a	pyFR	0	TJ065
2590.763	2.753	5435476	WORD	n/a	wordpools/wordpool_EN.txt	FARM	12	15	n/a	n/a	pyFR	0	TJ065
2593.516	2.619	5440981	WORD	n/a	wordpools/wordpool_EN.txt	BEACH	13	15	n/a	n/a	pyFR	0	TJ065
2596.135	2.751	5446219	WORD	n/a	wordpools/wordpool_EN.txt	DEER	14	15	n/a	n/a	pyFR	0	TJ065
2598.886	1.621	5451721	WORD	n/a	wordpools/wordpool_EN.txt	EEL	15	15	n/a	n/a	pyFR	0	TJ065
2600.507	0.899	5454963	START	n/a	n/a	n/a	n/a	15	[-999 -999 -999]	-999	pyFR	0	TJ065
2601.406	6.989	5456761	PROB	6.959	n/a	n/a	n/a	15	[6 5 4]	15	pyFR	0	TJ065
2608.395	12.289	5470738	PROB	12.289	n/a	n/a	n/a	15	[8 3 9]	20	pyFR	0	TJ065
2620.684	1.072	5495315	STOP	n/a	n/a	n/a	n/a	15	[-999 -999 -999]	-999	pyFR	0	TJ065
2621.756	1.6	5497459	REC_START	n/a	n/a	n/a	-999	15	n/a	n/a	pyFR	0	TJ065
2623.356	2.584	5500659	REC_WORD	1.6	n/a	LAMB	-999	15	n/a	n/a	pyFR	0	TJ065
2625.94	4.065	5505827	REC_WORD	4.184	n/a	FLEA	-999	15	n/a	n/a	pyFR	0	TJ065
2630.005	48.749	5513957	REC_WORD_VV	8.249	n/a	<>	-999	15	n/a	n/a	pyFR	0	TJ065
2678.754	0.016	5611451	TRIAL	n/a	n/a	n/a	-999	16	n/a	n/a	pyFR	0	TJ065
2678.77	2.969	5611483	ORIENT	n/a	n/a	n/a	-999	16	n/a	n/a	pyFR	0	TJ065
2681.739	2.836	5617420	WORD	n/a	wordpools/wordpool_EN.txt	WALL	1	16	n/a	n/a	pyFR	0	TJ065
2684.575	2.82	5623092	WORD	n/a	wordpools/wordpool_EN.txt	WORLD	2	16	n/a	n/a	pyFR	0	TJ065
2687.395	2.669	5628732	WORD	n/a	wordpools/wordpool_EN.txt	SPONGE	3	16	n/a	n/a	pyFR	0	TJ065
2690.064	2.818	5634070	WORD	n/a	wordpools/wordpool_EN.txt	APE	4	16	n/a	n/a	pyFR	0	TJ065
2692.882	2.669	5639705	WORD	n/a	wordpools/wordpool_EN.txt	BANK	5	16	n/a	n/a	pyFR	0	TJ065
2695.551	2.72	5645043	WORD	n/a	wordpools/wordpool_EN.txt	SPEAR	6	16	n/a	n/a	pyFR	0	TJ065
2698.271	2.551	5650483	WORD	n/a	wordpools/wordpool_EN.txt	BEE	7	16	n/a	n/a	pyFR	0	TJ065
2700.822	2.536	5655585	WORD	n/a	wordpools/wordpool_EN.txt	SOUP	8	16	n/a	n/a	pyFR	0	TJ065
2703.358	2.753	5660657	WORD	n/a	wordpools/wordpool_EN.txt	BOMB	9	16	n/a	n/a	pyFR	0	TJ065
2706.111	2.684	5666162	WORD	n/a	wordpools/wordpool_EN.txt	PRINCE	10	16	n/a	n/a	pyFR	0	TJ065
2708.795	2.437	5671530	WORD	n/a	wordpools/wordpool_EN.txt	SINK	11	16	n/a	n/a	pyFR	0	TJ065
2711.232	2.634	5676404	WORD	n/a	wordpools/wordpool_EN.txt	TIE	12	16	n/a	n/a	pyFR	0	TJ065
2713.866	2.736	5681672	WORD	n/a	wordpools/wordpool_EN.txt	MAT	13	16	n/a	n/a	pyFR	0	TJ065
2716.602	2.553	5687144	WORD	n/a	wordpools/wordpool_EN.txt	RAT	14	16	n/a	n/a	pyFR	0	TJ065
2719.155	1.618	5692249	WORD	n/a	wordpools/wordpool_EN.txt	PURSE	15	16	n/a	n/a	pyFR	0	TJ065
2720.773	1.117	5695485	START	n/a	n/a	n/a	n/a	16	[-999 -999 -999]	-999	pyFR	0	TJ065
2721.89	3.587	5697719	PROB	3.555	n/a	n/a	n/a	16	[1 5 6]	12	pyFR	0	TJ065
2725.477	3.469	5704893	PROB	3.44	n/a	n/a	n/a	16	[6 5 1]	12	pyFR	0	TJ065
2728.946	3.853	5711831	PROB	3.818	n/a	n/a	n/a	16	[4 6 7]	17	pyFR	0	TJ065
2732.799	4.621	5719536	PROB	4.59	n/a	n/a	n/a	16	[2 9 3]	14	pyFR	0	TJ065
2737.42	4.025	5728778	PROB	4.025	n/a	n/a	n/a	16	[2 8 1]	11	pyFR	0	TJ065
2741.445	1.064	5736828	STOP	n/a	n/a	n/a	n/a	16	[-999 -999 -999]	-999	pyFR	0	TJ065
2742.509	2.089	5738955	REC_START	n/a	n/a	n/a	-999	16	n/a	n/a	pyFR	0	TJ065
2744.598	3.575	5743133	REC_WORD	2.089	n/a	WALL	-999	16	n/a	n/a	pyFR	0	TJ065
2748.173	3.478	5750283	REC_WORD	5.664	n/a	APE	-999	16	n/a	n/a	pyFR	0	TJ065
2751.651	583.539	5757239	REC_WORD	9.142	n/a	WORLD	-999	16	n/a	n/a	pyFR	0	TJ065
3335.19	0.115	6924270	SESS_END	n/a	n/a	n/a	-999	16	n/a	n/a	pyFR	0	TJ065
3335.305	0.0	6924500	E	n/a	n/a	n/a	-999	16	n/a	n/a	pyFR	0	TJ065
