onset	duration	sample	trial_type	response_time	stim_file	item_name	serialpos	list	test	answer	experiment	session	subject
0.0	0.001	56002	B	n/a	n/a	n/a	-999	-999	n/a	n/a	pyFR	7	TJ041
0.001	110.576	56003	SESS_START	n/a	n/a	n/a	-999	-999	n/a	n/a	pyFR	7	TJ041
110.577	0.01	166576	START	n/a	n/a	n/a	n/a	0	[-999 -999 -999]	-999	pyFR	7	TJ041
110.587	4.123	166586	PROB	4.096	n/a	n/a	n/a	0	[8 8 8]	24	pyFR	7	TJ041
114.71	2.771	170709	PROB	2.741	n/a	n/a	n/a	0	[1 7 9]	17	pyFR	7	TJ041
117.481	4.041	173480	PROB	4.018	n/a	n/a	n/a	0	[6 5 8]	19	pyFR	7	TJ041
121.522	3.021	177521	PROB	2.985	n/a	n/a	n/a	0	[6 2 8]	16	pyFR	7	TJ041
124.543	3.139	180541	PROB	3.116	n/a	n/a	n/a	0	[7 9 3]	19	pyFR	7	TJ041
127.682	2.32	183680	PROB	2.289	n/a	n/a	n/a	0	[4 5 8]	17	pyFR	7	TJ041
130.002	4.491	186000	PROB	4.457	n/a	n/a	n/a	0	[7 6 3]	16	pyFR	7	TJ041
134.493	3.139	190491	PROB	3.102	n/a	n/a	n/a	0	[4 2 4]	10	pyFR	7	TJ041
137.632	3.402	193630	PROB	3.402	n/a	n/a	n/a	0	[8 8 3]	19	pyFR	7	TJ041
141.034	14.06	197032	STOP	n/a	n/a	n/a	n/a	0	[-999 -999 -999]	-999	pyFR	7	TJ041
155.094	0.016	211092	TRIAL	n/a	n/a	n/a	-999	1	n/a	n/a	pyFR	7	TJ041
155.11	2.656	211108	ORIENT	n/a	n/a	n/a	-999	1	n/a	n/a	pyFR	7	TJ041
157.766	2.436	213763	WORD	n/a	wordpools/wordpool_EN.txt	BOMB	1	1	n/a	n/a	pyFR	7	TJ041
160.202	2.723	216199	WORD	n/a	wordpools/wordpool_EN.txt	CAPE	2	1	n/a	n/a	pyFR	7	TJ041
162.925	2.671	218922	WORD	n/a	wordpools/wordpool_EN.txt	PURSE	3	1	n/a	n/a	pyFR	7	TJ041
165.596	2.671	221593	WORD	n/a	wordpools/wordpool_EN.txt	BEAR	4	1	n/a	n/a	pyFR	7	TJ041
168.267	2.638	224264	WORD	n/a	wordpools/wordpool_EN.txt	PEACH	5	1	n/a	n/a	pyFR	7	TJ041
170.905	2.738	226902	WORD	n/a	wordpools/wordpool_EN.txt	KING	6	1	n/a	n/a	pyFR	7	TJ041
173.643	2.57	229640	WORD	n/a	wordpools/wordpool_EN.txt	SOUP	7	1	n/a	n/a	pyFR	7	TJ041
176.213	2.689	232210	WORD	n/a	wordpools/wordpool_EN.txt	CANE	8	1	n/a	n/a	pyFR	7	TJ041
178.902	2.788	234899	WORD	n/a	wordpools/wordpool_EN.txt	JEEP	9	1	n/a	n/a	pyFR	7	TJ041
181.69	2.805	237687	WORD	n/a	wordpools/wordpool_EN.txt	CART	10	1	n/a	n/a	pyFR	7	TJ041
184.495	2.586	240492	WORD	n/a	wordpools/wordpool_EN.txt	CHIN	11	1	n/a	n/a	pyFR	7	TJ041
187.081	2.522	243078	WORD	n/a	wordpools/wordpool_EN.txt	GRAPE	12	1	n/a	n/a	pyFR	7	TJ041
189.603	2.704	245599	WORD	n/a	wordpools/wordpool_EN.txt	PIT	13	1	n/a	n/a	pyFR	7	TJ041
192.307	2.555	248303	WORD	n/a	wordpools/wordpool_EN.txt	DEER	14	1	n/a	n/a	pyFR	7	TJ041
194.862	1.621	250858	WORD	n/a	wordpools/wordpool_EN.txt	BIRD	15	1	n/a	n/a	pyFR	7	TJ041
196.483	1.0	252479	START	n/a	n/a	n/a	n/a	1	[-999 -999 -999]	-999	pyFR	7	TJ041
197.483	4.557	253479	PROB	4.533	n/a	n/a	n/a	1	[1 8 1]	10	pyFR	7	TJ041
202.04	3.423	258036	PROB	3.393	n/a	n/a	n/a	1	[9 4 2]	15	pyFR	7	TJ041
205.463	2.103	261459	PROB	2.074	n/a	n/a	n/a	1	[1 6 5]	12	pyFR	7	TJ041
207.566	2.939	263562	PROB	2.907	n/a	n/a	n/a	1	[6 6 7]	19	pyFR	7	TJ041
210.505	2.304	266501	PROB	2.272	n/a	n/a	n/a	1	[4 4 6]	14	pyFR	7	TJ041
212.809	2.938	268805	PROB	2.912	n/a	n/a	n/a	1	[4 2 6]	12	pyFR	7	TJ041
215.747	3.589	271743	PROB	3.589	n/a	n/a	n/a	1	[5 6 9]	20	pyFR	7	TJ041
219.336	1.17	275332	STOP	n/a	n/a	n/a	n/a	1	[-999 -999 -999]	-999	pyFR	7	TJ041
220.506	4.131	276502	REC_START	n/a	n/a	n/a	-999	1	n/a	n/a	pyFR	7	TJ041
224.637	1.223	280632	REC_WORD	4.131	n/a	BOMB	-999	1	n/a	n/a	pyFR	7	TJ041
225.86	1.157	281855	REC_WORD	5.354	n/a	BEAR	-999	1	n/a	n/a	pyFR	7	TJ041
227.017	1.566	283012	REC_WORD	6.511	n/a	DEER	-999	1	n/a	n/a	pyFR	7	TJ041
228.583	1.528	284578	REC_WORD	8.077	n/a	BIRD	-999	1	n/a	n/a	pyFR	7	TJ041
230.111	1.504	286106	REC_WORD	9.605	n/a	CANE	-999	1	n/a	n/a	pyFR	7	TJ041
231.615	1.766	287610	REC_WORD	11.109	n/a	CHIN	-999	1	n/a	n/a	pyFR	7	TJ041
233.381	13.403	289376	REC_WORD	12.875	n/a	JEEP	-999	1	n/a	n/a	pyFR	7	TJ041
246.784	20.449	302779	REC_WORD	26.278	n/a	PURSE	-999	1	n/a	n/a	pyFR	7	TJ041
267.233	0.016	323227	TRIAL	n/a	n/a	n/a	-999	2	n/a	n/a	pyFR	7	TJ041
267.249	2.989	323243	ORIENT	n/a	n/a	n/a	-999	2	n/a	n/a	pyFR	7	TJ041
270.238	2.572	326232	WORD	n/a	wordpools/wordpool_EN.txt	BEACH	1	2	n/a	n/a	pyFR	7	TJ041
272.81	2.503	328804	WORD	n/a	wordpools/wordpool_EN.txt	GEESE	2	2	n/a	n/a	pyFR	7	TJ041
275.313	2.721	331307	WORD	n/a	wordpools/wordpool_EN.txt	LIP	3	2	n/a	n/a	pyFR	7	TJ041
278.034	2.589	334028	WORD	n/a	wordpools/wordpool_EN.txt	DOG	4	2	n/a	n/a	pyFR	7	TJ041
280.623	2.503	336617	WORD	n/a	wordpools/wordpool_EN.txt	SUN	5	2	n/a	n/a	pyFR	7	TJ041
283.126	2.672	339120	WORD	n/a	wordpools/wordpool_EN.txt	SINK	6	2	n/a	n/a	pyFR	7	TJ041
285.798	2.672	341792	WORD	n/a	wordpools/wordpool_EN.txt	PLANE	7	2	n/a	n/a	pyFR	7	TJ041
288.47	2.437	344463	WORD	n/a	wordpools/wordpool_EN.txt	KITE	8	2	n/a	n/a	pyFR	7	TJ041
290.907	2.688	346900	WORD	n/a	wordpools/wordpool_EN.txt	HOOF	9	2	n/a	n/a	pyFR	7	TJ041
293.595	2.654	349588	WORD	n/a	wordpools/wordpool_EN.txt	KEY	10	2	n/a	n/a	pyFR	7	TJ041
296.249	2.705	352242	WORD	n/a	wordpools/wordpool_EN.txt	BOARD	11	2	n/a	n/a	pyFR	7	TJ041
298.954	2.604	354947	WORD	n/a	wordpools/wordpool_EN.txt	BOY	12	2	n/a	n/a	pyFR	7	TJ041
301.558	2.771	357551	WORD	n/a	wordpools/wordpool_EN.txt	WALL	13	2	n/a	n/a	pyFR	7	TJ041
304.329	2.538	360322	WORD	n/a	wordpools/wordpool_EN.txt	DESK	14	2	n/a	n/a	pyFR	7	TJ041
306.867	1.621	362860	WORD	n/a	wordpools/wordpool_EN.txt	VAN	15	2	n/a	n/a	pyFR	7	TJ041
308.488	1.034	364481	START	n/a	n/a	n/a	n/a	2	[-999 -999 -999]	-999	pyFR	7	TJ041
309.522	4.924	365515	PROB	4.888	n/a	n/a	n/a	2	[5 8 7]	20	pyFR	7	TJ041
314.446	3.356	370439	PROB	3.332	n/a	n/a	n/a	2	[5 6 6]	17	pyFR	7	TJ041
317.802	2.52	373795	PROB	2.495	n/a	n/a	n/a	2	[6 8 7]	21	pyFR	7	TJ041
320.322	2.371	376314	PROB	2.344	n/a	n/a	n/a	2	[5 5 2]	12	pyFR	7	TJ041
322.693	3.172	378685	PROB	3.141	n/a	n/a	n/a	2	[9 4 6]	19	pyFR	7	TJ041
325.865	3.057	381857	PROB	3.057	n/a	n/a	n/a	2	[4 5 5]	14	pyFR	7	TJ041
328.922	1.217	384914	STOP	n/a	n/a	n/a	n/a	2	[-999 -999 -999]	-999	pyFR	7	TJ041
330.139	4.105	386131	REC_START	n/a	n/a	n/a	-999	2	n/a	n/a	pyFR	7	TJ041
334.244	1.296	390236	REC_WORD	4.105	n/a	PLANE	-999	2	n/a	n/a	pyFR	7	TJ041
335.54	1.013	391532	REC_WORD	5.401	n/a	PEACH	-999	2	n/a	n/a	pyFR	7	TJ041
336.553	1.581	392545	REC_WORD	6.414	n/a	LIP	-999	2	n/a	n/a	pyFR	7	TJ041
338.134	10.848	394126	REC_WORD	7.995	n/a	BOY	-999	2	n/a	n/a	pyFR	7	TJ041
348.982	1.133	404974	REC_WORD	18.843	n/a	SINK	-999	2	n/a	n/a	pyFR	7	TJ041
350.115	1.894	406107	REC_WORD	19.976	n/a	SUN	-999	2	n/a	n/a	pyFR	7	TJ041
352.009	3.109	408000	REC_WORD	21.87	n/a	PLANE	-999	2	n/a	n/a	pyFR	7	TJ041
355.118	22.335	411109	REC_WORD	24.979	n/a	SHIP	-999	2	n/a	n/a	pyFR	7	TJ041
377.453	0.016	433444	TRIAL	n/a	n/a	n/a	-999	3	n/a	n/a	pyFR	7	TJ041
377.469	2.922	433460	ORIENT	n/a	n/a	n/a	-999	3	n/a	n/a	pyFR	7	TJ041
380.391	2.521	436382	WORD	n/a	wordpools/wordpool_EN.txt	ELF	1	3	n/a	n/a	pyFR	7	TJ041
382.912	2.587	438903	WORD	n/a	wordpools/wordpool_EN.txt	BAG	2	3	n/a	n/a	pyFR	7	TJ041
385.499	2.704	441489	WORD	n/a	wordpools/wordpool_EN.txt	STRING	3	3	n/a	n/a	pyFR	7	TJ041
388.203	2.505	444193	WORD	n/a	wordpools/wordpool_EN.txt	HOSE	4	3	n/a	n/a	pyFR	7	TJ041
390.708	2.52	446698	WORD	n/a	wordpools/wordpool_EN.txt	MOLE	5	3	n/a	n/a	pyFR	7	TJ041
393.228	2.422	449218	WORD	n/a	wordpools/wordpool_EN.txt	SHEET	6	3	n/a	n/a	pyFR	7	TJ041
395.65	2.653	451640	WORD	n/a	wordpools/wordpool_EN.txt	TOAST	7	3	n/a	n/a	pyFR	7	TJ041
398.303	2.755	454293	WORD	n/a	wordpools/wordpool_EN.txt	CUP	8	3	n/a	n/a	pyFR	7	TJ041
401.058	2.789	457048	WORD	n/a	wordpools/wordpool_EN.txt	HOLE	9	3	n/a	n/a	pyFR	7	TJ041
403.847	2.554	459837	WORD	n/a	wordpools/wordpool_EN.txt	ARK	10	3	n/a	n/a	pyFR	7	TJ041
406.401	2.654	462391	WORD	n/a	wordpools/wordpool_EN.txt	SHELL	11	3	n/a	n/a	pyFR	7	TJ041
409.055	2.755	465045	WORD	n/a	wordpools/wordpool_EN.txt	ROAD	12	3	n/a	n/a	pyFR	7	TJ041
411.81	2.588	467800	WORD	n/a	wordpools/wordpool_EN.txt	GOLD	13	3	n/a	n/a	pyFR	7	TJ041
414.398	2.704	470388	WORD	n/a	wordpools/wordpool_EN.txt	PHONE	14	3	n/a	n/a	pyFR	7	TJ041
417.102	1.621	473091	WORD	n/a	wordpools/wordpool_EN.txt	BEE	15	3	n/a	n/a	pyFR	7	TJ041
418.723	0.934	474712	START	n/a	n/a	n/a	n/a	3	[-999 -999 -999]	-999	pyFR	7	TJ041
419.657	3.488	475646	PROB	3.454	n/a	n/a	n/a	3	[3 6 5]	14	pyFR	7	TJ041
423.145	2.472	479134	PROB	2.439	n/a	n/a	n/a	3	[1 6 5]	12	pyFR	7	TJ041
425.617	2.57	481606	PROB	2.542	n/a	n/a	n/a	3	[6 2 4]	12	pyFR	7	TJ041
428.187	2.888	484176	PROB	2.86	n/a	n/a	n/a	3	[6 6 4]	16	pyFR	7	TJ041
431.075	2.955	487064	PROB	2.932	n/a	n/a	n/a	3	[1 8 6]	15	pyFR	7	TJ041
434.03	3.055	490019	PROB	3.017	n/a	n/a	n/a	3	[7 7 3]	17	pyFR	7	TJ041
437.085	4.499	493074	PROB	4.499	n/a	n/a	n/a	3	[6 9 5]	20	pyFR	7	TJ041
441.584	1.079	497573	STOP	n/a	n/a	n/a	n/a	3	[-999 -999 -999]	-999	pyFR	7	TJ041
442.663	2.857	498652	REC_START	n/a	n/a	n/a	-999	3	n/a	n/a	pyFR	7	TJ041
445.52	1.383	501509	REC_WORD	2.857	n/a	ELF	-999	3	n/a	n/a	pyFR	7	TJ041
446.903	4.414	502892	REC_WORD	4.24	n/a	ARK	-999	3	n/a	n/a	pyFR	7	TJ041
451.317	1.418	507305	REC_WORD	8.654	n/a	MOLE	-999	3	n/a	n/a	pyFR	7	TJ041
452.735	1.295	508723	REC_WORD	10.072	n/a	HOLE	-999	3	n/a	n/a	pyFR	7	TJ041
454.03	39.468	510018	REC_WORD	11.367	n/a	SHEET	-999	3	n/a	n/a	pyFR	7	TJ041
493.498	0.016	549485	TRIAL	n/a	n/a	n/a	-999	4	n/a	n/a	pyFR	7	TJ041
493.514	2.654	549501	ORIENT	n/a	n/a	n/a	-999	4	n/a	n/a	pyFR	7	TJ041
496.168	2.722	552155	WORD	n/a	wordpools/wordpool_EN.txt	TEA	1	4	n/a	n/a	pyFR	7	TJ041
498.89	2.605	554877	WORD	n/a	wordpools/wordpool_EN.txt	BAND	2	4	n/a	n/a	pyFR	7	TJ041
501.495	2.503	557482	WORD	n/a	wordpools/wordpool_EN.txt	BOAT	3	4	n/a	n/a	pyFR	7	TJ041
503.998	2.521	559985	WORD	n/a	wordpools/wordpool_EN.txt	RAKE	4	4	n/a	n/a	pyFR	7	TJ041
506.519	2.438	562506	WORD	n/a	wordpools/wordpool_EN.txt	NET	5	4	n/a	n/a	pyFR	7	TJ041
508.957	2.738	564944	WORD	n/a	wordpools/wordpool_EN.txt	RUG	6	4	n/a	n/a	pyFR	7	TJ041
511.695	2.755	567682	WORD	n/a	wordpools/wordpool_EN.txt	SALT	7	4	n/a	n/a	pyFR	7	TJ041
514.45	2.77	570436	WORD	n/a	wordpools/wordpool_EN.txt	QUEEN	8	4	n/a	n/a	pyFR	7	TJ041
517.22	2.606	573206	WORD	n/a	wordpools/wordpool_EN.txt	MULE	9	4	n/a	n/a	pyFR	7	TJ041
519.826	2.521	575812	WORD	n/a	wordpools/wordpool_EN.txt	RIB	10	4	n/a	n/a	pyFR	7	TJ041
522.347	2.77	578333	WORD	n/a	wordpools/wordpool_EN.txt	WHEEL	11	4	n/a	n/a	pyFR	7	TJ041
525.117	2.505	581103	WORD	n/a	wordpools/wordpool_EN.txt	NAIL	12	4	n/a	n/a	pyFR	7	TJ041
527.622	2.436	583608	WORD	n/a	wordpools/wordpool_EN.txt	WAND	13	4	n/a	n/a	pyFR	7	TJ041
530.058	2.456	586044	WORD	n/a	wordpools/wordpool_EN.txt	STORM	14	4	n/a	n/a	pyFR	7	TJ041
532.514	1.619	588500	WORD	n/a	wordpools/wordpool_EN.txt	SHIP	15	4	n/a	n/a	pyFR	7	TJ041
534.133	1.201	590119	START	n/a	n/a	n/a	n/a	4	[-999 -999 -999]	-999	pyFR	7	TJ041
535.334	3.823	591320	PROB	3.793	n/a	n/a	n/a	4	[7 6 7]	20	pyFR	7	TJ041
539.157	3.072	595143	PROB	3.034	n/a	n/a	n/a	4	[2 9 8]	19	pyFR	7	TJ041
542.229	2.304	598215	PROB	2.275	n/a	n/a	n/a	4	[1 6 6]	13	pyFR	7	TJ041
544.533	3.506	600519	PROB	3.482	n/a	n/a	n/a	4	[7 6 2]	15	pyFR	7	TJ041
548.039	3.89	604024	PROB	3.857	n/a	n/a	n/a	4	[3 3 3]	9	pyFR	7	TJ041
551.929	3.182	607914	PROB	3.182	n/a	n/a	n/a	4	[4 4 4]	12	pyFR	7	TJ041
555.111	1.059	611096	STOP	n/a	n/a	n/a	n/a	4	[-999 -999 -999]	-999	pyFR	7	TJ041
556.17	2.292	612155	REC_START	n/a	n/a	n/a	-999	4	n/a	n/a	pyFR	7	TJ041
558.462	1.145	614447	REC_WORD	2.292	n/a	TEA	-999	4	n/a	n/a	pyFR	7	TJ041
559.607	2.726	615592	REC_WORD	3.437	n/a	BAND	-999	4	n/a	n/a	pyFR	7	TJ041
562.333	1.0	618318	REC_WORD	6.163	n/a	NAIL	-999	4	n/a	n/a	pyFR	7	TJ041
563.333	5.29	619318	REC_WORD_VV	7.163	n/a	<>	-999	4	n/a	n/a	pyFR	7	TJ041
568.623	17.178	624608	REC_WORD	12.453	n/a	SHIP	-999	4	n/a	n/a	pyFR	7	TJ041
585.801	1.217	641785	REC_WORD	29.631	n/a	STRING	-999	4	n/a	n/a	pyFR	7	TJ041
587.018	16.75	643002	REC_WORD	30.848	n/a	QUEEN	-999	4	n/a	n/a	pyFR	7	TJ041
603.768	0.016	659752	TRIAL	n/a	n/a	n/a	-999	5	n/a	n/a	pyFR	7	TJ041
603.784	2.904	659768	ORIENT	n/a	n/a	n/a	-999	5	n/a	n/a	pyFR	7	TJ041
606.688	2.52	662672	WORD	n/a	wordpools/wordpool_EN.txt	TOOL	1	5	n/a	n/a	pyFR	7	TJ041
609.208	2.439	665192	WORD	n/a	wordpools/wordpool_EN.txt	JAIL	2	5	n/a	n/a	pyFR	7	TJ041
611.647	2.788	667630	WORD	n/a	wordpools/wordpool_EN.txt	TAIL	3	5	n/a	n/a	pyFR	7	TJ041
614.435	2.82	670418	WORD	n/a	wordpools/wordpool_EN.txt	RAT	4	5	n/a	n/a	pyFR	7	TJ041
617.255	2.805	673238	WORD	n/a	wordpools/wordpool_EN.txt	CROWN	5	5	n/a	n/a	pyFR	7	TJ041
620.06	2.755	676043	WORD	n/a	wordpools/wordpool_EN.txt	BREAD	6	5	n/a	n/a	pyFR	7	TJ041
622.815	2.487	678798	WORD	n/a	wordpools/wordpool_EN.txt	TRAIN	7	5	n/a	n/a	pyFR	7	TJ041
625.302	2.605	681285	WORD	n/a	wordpools/wordpool_EN.txt	FUR	8	5	n/a	n/a	pyFR	7	TJ041
627.907	2.622	683890	WORD	n/a	wordpools/wordpool_EN.txt	FUDGE	9	5	n/a	n/a	pyFR	7	TJ041
630.529	2.653	686512	WORD	n/a	wordpools/wordpool_EN.txt	JET	10	5	n/a	n/a	pyFR	7	TJ041
633.182	2.455	689165	WORD	n/a	wordpools/wordpool_EN.txt	OAR	11	5	n/a	n/a	pyFR	7	TJ041
635.637	2.437	691620	WORD	n/a	wordpools/wordpool_EN.txt	DIME	12	5	n/a	n/a	pyFR	7	TJ041
638.074	2.588	694057	WORD	n/a	wordpools/wordpool_EN.txt	RICE	13	5	n/a	n/a	pyFR	7	TJ041
640.662	2.52	696645	WORD	n/a	wordpools/wordpool_EN.txt	SHOE	14	5	n/a	n/a	pyFR	7	TJ041
643.182	1.605	699165	WORD	n/a	wordpools/wordpool_EN.txt	LAMB	15	5	n/a	n/a	pyFR	7	TJ041
644.787	1.101	700769	START	n/a	n/a	n/a	n/a	5	[-999 -999 -999]	-999	pyFR	7	TJ041
645.888	4.724	701870	PROB	4.685	n/a	n/a	n/a	5	[2 8 5]	15	pyFR	7	TJ041
650.612	3.272	706594	PROB	3.242	n/a	n/a	n/a	5	[5 6 2]	13	pyFR	7	TJ041
653.884	3.506	709866	PROB	3.474	n/a	n/a	n/a	5	[5 3 2]	10	pyFR	7	TJ041
657.39	2.972	713372	PROB	2.942	n/a	n/a	n/a	5	[3 2 1]	6	pyFR	7	TJ041
660.362	3.055	716344	PROB	3.028	n/a	n/a	n/a	5	[6 4 5]	15	pyFR	7	TJ041
663.417	2.764	719399	PROB	2.764	n/a	n/a	n/a	5	[3 2 7]	12	pyFR	7	TJ041
666.181	1.177	722163	STOP	n/a	n/a	n/a	n/a	5	[-999 -999 -999]	-999	pyFR	7	TJ041
667.358	5.294	723340	REC_START	n/a	n/a	n/a	-999	5	n/a	n/a	pyFR	7	TJ041
672.652	1.415	728634	REC_WORD	5.294	n/a	TAIL	-999	5	n/a	n/a	pyFR	7	TJ041
674.067	1.005	730049	REC_WORD	6.709	n/a	JAIL	-999	5	n/a	n/a	pyFR	7	TJ041
675.072	1.448	731054	REC_WORD	7.714	n/a	TRAIN	-999	5	n/a	n/a	pyFR	7	TJ041
676.52	1.352	732501	REC_WORD	9.162	n/a	FUR	-999	5	n/a	n/a	pyFR	7	TJ041
677.872	5.663	733853	REC_WORD	10.514	n/a	FUDGE	-999	5	n/a	n/a	pyFR	7	TJ041
683.535	6.76	739516	REC_WORD	16.177	n/a	TOOL	-999	5	n/a	n/a	pyFR	7	TJ041
690.295	26.028	746276	REC_WORD	22.937	n/a	JET	-999	5	n/a	n/a	pyFR	7	TJ041
716.323	0.016	772303	TRIAL	n/a	n/a	n/a	-999	6	n/a	n/a	pyFR	7	TJ041
716.339	2.955	772319	ORIENT	n/a	n/a	n/a	-999	6	n/a	n/a	pyFR	7	TJ041
719.294	2.738	775274	WORD	n/a	wordpools/wordpool_EN.txt	STICK	1	6	n/a	n/a	pyFR	7	TJ041
722.032	2.572	778012	WORD	n/a	wordpools/wordpool_EN.txt	WAVE	2	6	n/a	n/a	pyFR	7	TJ041
724.604	2.586	780584	WORD	n/a	wordpools/wordpool_EN.txt	WORLD	3	6	n/a	n/a	pyFR	7	TJ041
727.19	2.789	783170	WORD	n/a	wordpools/wordpool_EN.txt	WOOD	4	6	n/a	n/a	pyFR	7	TJ041
729.979	2.571	785959	WORD	n/a	wordpools/wordpool_EN.txt	CAVE	5	6	n/a	n/a	pyFR	7	TJ041
732.55	2.587	788530	WORD	n/a	wordpools/wordpool_EN.txt	CLOUD	6	6	n/a	n/a	pyFR	7	TJ041
735.137	2.805	791117	WORD	n/a	wordpools/wordpool_EN.txt	MOTH	7	6	n/a	n/a	pyFR	7	TJ041
737.942	2.488	793922	WORD	n/a	wordpools/wordpool_EN.txt	DART	8	6	n/a	n/a	pyFR	7	TJ041
740.43	2.471	796410	WORD	n/a	wordpools/wordpool_EN.txt	SLEEVE	9	6	n/a	n/a	pyFR	7	TJ041
742.901	2.688	798880	WORD	n/a	wordpools/wordpool_EN.txt	TENT	10	6	n/a	n/a	pyFR	7	TJ041
745.589	2.687	801568	WORD	n/a	wordpools/wordpool_EN.txt	BAT	11	6	n/a	n/a	pyFR	7	TJ041
748.276	2.439	804255	WORD	n/a	wordpools/wordpool_EN.txt	MOON	12	6	n/a	n/a	pyFR	7	TJ041
750.715	2.536	806694	WORD	n/a	wordpools/wordpool_EN.txt	EAR	13	6	n/a	n/a	pyFR	7	TJ041
753.251	2.455	809230	WORD	n/a	wordpools/wordpool_EN.txt	MAZE	14	6	n/a	n/a	pyFR	7	TJ041
755.706	1.619	811685	WORD	n/a	wordpools/wordpool_EN.txt	GUARD	15	6	n/a	n/a	pyFR	7	TJ041
757.325	1.069	813304	START	n/a	n/a	n/a	n/a	6	[-999 -999 -999]	-999	pyFR	7	TJ041
758.394	4.223	814373	PROB	4.185	n/a	n/a	n/a	6	[8 6 2]	16	pyFR	7	TJ041
762.617	2.889	818596	PROB	2.866	n/a	n/a	n/a	6	[1 1 4]	6	pyFR	7	TJ041
765.506	2.854	821485	PROB	2.816	n/a	n/a	n/a	6	[9 3 1]	13	pyFR	7	TJ041
768.36	2.554	824339	PROB	2.523	n/a	n/a	n/a	6	[5 6 4]	15	pyFR	7	TJ041
770.914	9.711	826893	PROB	9.711	n/a	n/a	n/a	6	[7 9 9]	25	pyFR	7	TJ041
780.625	1.192	836603	STOP	n/a	n/a	n/a	n/a	6	[-999 -999 -999]	-999	pyFR	7	TJ041
781.817	7.22	837795	REC_START	n/a	n/a	n/a	-999	6	n/a	n/a	pyFR	7	TJ041
789.037	40.427	845015	REC_WORD	7.22	n/a	WOOD	-999	6	n/a	n/a	pyFR	7	TJ041
829.464	0.016	885441	TRIAL	n/a	n/a	n/a	-999	7	n/a	n/a	pyFR	7	TJ041
829.48	2.905	885457	ORIENT	n/a	n/a	n/a	-999	7	n/a	n/a	pyFR	7	TJ041
832.385	2.571	888362	WORD	n/a	wordpools/wordpool_EN.txt	POLE	1	7	n/a	n/a	pyFR	7	TJ041
834.956	2.771	890933	WORD	n/a	wordpools/wordpool_EN.txt	SEED	2	7	n/a	n/a	pyFR	7	TJ041
837.727	2.755	893704	WORD	n/a	wordpools/wordpool_EN.txt	SPOON	3	7	n/a	n/a	pyFR	7	TJ041
840.482	2.82	896458	WORD	n/a	wordpools/wordpool_EN.txt	SPARK	4	7	n/a	n/a	pyFR	7	TJ041
843.302	2.738	899278	WORD	n/a	wordpools/wordpool_EN.txt	SWAMP	5	7	n/a	n/a	pyFR	7	TJ041
846.04	2.606	902016	WORD	n/a	wordpools/wordpool_EN.txt	PEN	6	7	n/a	n/a	pyFR	7	TJ041
848.646	2.804	904622	WORD	n/a	wordpools/wordpool_EN.txt	DAD	7	7	n/a	n/a	pyFR	7	TJ041
851.45	2.787	907426	WORD	n/a	wordpools/wordpool_EN.txt	PLATE	8	7	n/a	n/a	pyFR	7	TJ041
854.237	2.572	910213	WORD	n/a	wordpools/wordpool_EN.txt	DRESS	9	7	n/a	n/a	pyFR	7	TJ041
856.809	2.621	912785	WORD	n/a	wordpools/wordpool_EN.txt	POND	10	7	n/a	n/a	pyFR	7	TJ041
859.43	2.787	915406	WORD	n/a	wordpools/wordpool_EN.txt	BEAK	11	7	n/a	n/a	pyFR	7	TJ041
862.217	2.739	918193	WORD	n/a	wordpools/wordpool_EN.txt	SHEEP	12	7	n/a	n/a	pyFR	7	TJ041
864.956	2.822	920932	WORD	n/a	wordpools/wordpool_EN.txt	AXE	13	7	n/a	n/a	pyFR	7	TJ041
867.778	2.821	923754	WORD	n/a	wordpools/wordpool_EN.txt	SHARK	14	7	n/a	n/a	pyFR	7	TJ041
870.599	1.62	926575	WORD	n/a	wordpools/wordpool_EN.txt	HAND	15	7	n/a	n/a	pyFR	7	TJ041
872.219	0.967	928194	START	n/a	n/a	n/a	n/a	7	[-999 -999 -999]	-999	pyFR	7	TJ041
873.186	3.724	929161	PROB	3.691	n/a	n/a	n/a	7	[6 5 6]	17	pyFR	7	TJ041
876.91	3.456	932885	PROB	3.43	n/a	n/a	n/a	7	[7 7 4]	18	pyFR	7	TJ041
880.366	2.619	936341	PROB	2.583	n/a	n/a	n/a	7	[8 3 4]	15	pyFR	7	TJ041
882.985	2.857	938960	PROB	2.828	n/a	n/a	n/a	7	[9 6 9]	24	pyFR	7	TJ041
885.842	2.452	941817	PROB	2.418	n/a	n/a	n/a	7	[6 3 3]	12	pyFR	7	TJ041
888.294	2.305	944269	PROB	2.271	n/a	n/a	n/a	7	[9 4 2]	15	pyFR	7	TJ041
890.599	3.741	946574	PROB	3.741	n/a	n/a	n/a	7	[3 3 9]	15	pyFR	7	TJ041
894.34	1.185	950315	STOP	n/a	n/a	n/a	n/a	7	[-999 -999 -999]	-999	pyFR	7	TJ041
895.525	2.746	951500	REC_START	n/a	n/a	n/a	-999	7	n/a	n/a	pyFR	7	TJ041
898.271	1.022	954246	REC_WORD	2.746	n/a	AXE	-999	7	n/a	n/a	pyFR	7	TJ041
899.293	1.222	955268	REC_WORD	3.768	n/a	SHARK	-999	7	n/a	n/a	pyFR	7	TJ041
900.515	1.253	956490	REC_WORD	4.99	n/a	HAND	-999	7	n/a	n/a	pyFR	7	TJ041
901.768	2.433	957743	REC_WORD	6.243	n/a	DAD	-999	7	n/a	n/a	pyFR	7	TJ041
904.201	1.853	960175	REC_WORD	8.676	n/a	SWAMP	-999	7	n/a	n/a	pyFR	7	TJ041
906.054	1.716	962028	REC_WORD	10.529	n/a	POLE	-999	7	n/a	n/a	pyFR	7	TJ041
907.77	37.554	963744	REC_WORD	12.245	n/a	SHEEP	-999	7	n/a	n/a	pyFR	7	TJ041
945.324	0.016	1001297	TRIAL	n/a	n/a	n/a	-999	8	n/a	n/a	pyFR	7	TJ041
945.34	2.722	1001313	ORIENT	n/a	n/a	n/a	-999	8	n/a	n/a	pyFR	7	TJ041
948.062	2.472	1004035	WORD	n/a	wordpools/wordpool_EN.txt	SCHOOL	1	8	n/a	n/a	pyFR	7	TJ041
950.534	2.553	1006507	WORD	n/a	wordpools/wordpool_EN.txt	OWL	2	8	n/a	n/a	pyFR	7	TJ041
953.087	2.789	1009060	WORD	n/a	wordpools/wordpool_EN.txt	EGG	3	8	n/a	n/a	pyFR	7	TJ041
955.876	2.638	1011849	WORD	n/a	wordpools/wordpool_EN.txt	SUIT	4	8	n/a	n/a	pyFR	7	TJ041
958.514	2.72	1014487	WORD	n/a	wordpools/wordpool_EN.txt	STOVE	5	8	n/a	n/a	pyFR	7	TJ041
961.234	2.656	1017207	WORD	n/a	wordpools/wordpool_EN.txt	CAR	6	8	n/a	n/a	pyFR	7	TJ041
963.89	2.453	1019863	WORD	n/a	wordpools/wordpool_EN.txt	GLOVE	7	8	n/a	n/a	pyFR	7	TJ041
966.343	2.638	1022316	WORD	n/a	wordpools/wordpool_EN.txt	CONE	8	8	n/a	n/a	pyFR	7	TJ041
968.981	2.655	1024954	WORD	n/a	wordpools/wordpool_EN.txt	WHALE	9	8	n/a	n/a	pyFR	7	TJ041
971.636	2.47	1027608	WORD	n/a	wordpools/wordpool_EN.txt	FOG	10	8	n/a	n/a	pyFR	7	TJ041
974.106	2.705	1030078	WORD	n/a	wordpools/wordpool_EN.txt	TEETH	11	8	n/a	n/a	pyFR	7	TJ041
976.811	2.605	1032783	WORD	n/a	wordpools/wordpool_EN.txt	PASTE	12	8	n/a	n/a	pyFR	7	TJ041
979.416	2.57	1035388	WORD	n/a	wordpools/wordpool_EN.txt	DOCK	13	8	n/a	n/a	pyFR	7	TJ041
981.986	2.505	1037958	WORD	n/a	wordpools/wordpool_EN.txt	TOY	14	8	n/a	n/a	pyFR	7	TJ041
984.491	1.619	1040463	WORD	n/a	wordpools/wordpool_EN.txt	LAWN	15	8	n/a	n/a	pyFR	7	TJ041
986.11	0.852	1042082	START	n/a	n/a	n/a	n/a	8	[-999 -999 -999]	-999	pyFR	7	TJ041
986.962	4.172	1042934	PROB	4.148	n/a	n/a	n/a	8	[7 8 2]	17	pyFR	7	TJ041
991.134	3.658	1047106	PROB	3.633	n/a	n/a	n/a	8	[2 6 6]	14	pyFR	7	TJ041
994.792	2.453	1050764	PROB	2.43	n/a	n/a	n/a	8	[2 2 1]	5	pyFR	7	TJ041
997.245	2.787	1053217	PROB	2.753	n/a	n/a	n/a	8	[7 9 6]	22	pyFR	7	TJ041
1000.032	4.709	1056004	PROB	4.679	n/a	n/a	n/a	8	[8 9 9]	26	pyFR	7	TJ041
1004.741	4.242	1060712	PROB	4.242	n/a	n/a	n/a	8	[1 3 5]	9	pyFR	7	TJ041
1008.983	1.1	1064954	STOP	n/a	n/a	n/a	n/a	8	[-999 -999 -999]	-999	pyFR	7	TJ041
1010.083	3.042	1066054	REC_START	n/a	n/a	n/a	-999	8	n/a	n/a	pyFR	7	TJ041
1013.125	1.972	1069096	REC_WORD	3.042	n/a	WHALE	-999	8	n/a	n/a	pyFR	7	TJ041
1015.097	1.723	1071068	REC_WORD	5.014	n/a	SCHOOL	-999	8	n/a	n/a	pyFR	7	TJ041
1016.82	1.618	1072791	REC_WORD	6.737	n/a	EGG	-999	8	n/a	n/a	pyFR	7	TJ041
1018.438	41.696	1074409	REC_WORD	8.355	n/a	OWL	-999	8	n/a	n/a	pyFR	7	TJ041
1060.134	0.017	1116104	TRIAL	n/a	n/a	n/a	-999	9	n/a	n/a	pyFR	7	TJ041
1060.151	2.722	1116121	ORIENT	n/a	n/a	n/a	-999	9	n/a	n/a	pyFR	7	TJ041
1062.873	2.771	1118843	WORD	n/a	wordpools/wordpool_EN.txt	GLASS	1	9	n/a	n/a	pyFR	7	TJ041
1065.644	2.637	1121614	WORD	n/a	wordpools/wordpool_EN.txt	WEED	2	9	n/a	n/a	pyFR	7	TJ041
1068.281	2.505	1124250	WORD	n/a	wordpools/wordpool_EN.txt	BED	3	9	n/a	n/a	pyFR	7	TJ041
1070.786	2.487	1126755	WORD	n/a	wordpools/wordpool_EN.txt	FLUTE	4	9	n/a	n/a	pyFR	7	TJ041
1073.273	2.522	1129242	WORD	n/a	wordpools/wordpool_EN.txt	STEAK	5	9	n/a	n/a	pyFR	7	TJ041
1075.795	2.57	1131764	WORD	n/a	wordpools/wordpool_EN.txt	SPONGE	6	9	n/a	n/a	pyFR	7	TJ041
1078.365	2.72	1134334	WORD	n/a	wordpools/wordpool_EN.txt	BRANCH	7	9	n/a	n/a	pyFR	7	TJ041
1081.085	2.673	1137054	WORD	n/a	wordpools/wordpool_EN.txt	SAIL	8	9	n/a	n/a	pyFR	7	TJ041
1083.758	2.638	1139727	WORD	n/a	wordpools/wordpool_EN.txt	FISH	9	9	n/a	n/a	pyFR	7	TJ041
1086.396	2.636	1142365	WORD	n/a	wordpools/wordpool_EN.txt	SEA	10	9	n/a	n/a	pyFR	7	TJ041
1089.032	2.589	1145001	WORD	n/a	wordpools/wordpool_EN.txt	SHIRT	11	9	n/a	n/a	pyFR	7	TJ041
1091.621	2.687	1147590	WORD	n/a	wordpools/wordpool_EN.txt	SOAP	12	9	n/a	n/a	pyFR	7	TJ041
1094.308	2.422	1150277	WORD	n/a	wordpools/wordpool_EN.txt	HOUSE	13	9	n/a	n/a	pyFR	7	TJ041
1096.73	2.804	1152699	WORD	n/a	wordpools/wordpool_EN.txt	SNAIL	14	9	n/a	n/a	pyFR	7	TJ041
1099.534	1.62	1155502	WORD	n/a	wordpools/wordpool_EN.txt	SLUSH	15	9	n/a	n/a	pyFR	7	TJ041
1101.154	0.984	1157122	START	n/a	n/a	n/a	n/a	9	[-999 -999 -999]	-999	pyFR	7	TJ041
1102.138	5.909	1158106	PROB	5.876	n/a	n/a	n/a	9	[8 1 4]	13	pyFR	7	TJ041
1108.047	4.024	1164015	PROB	3.991	n/a	n/a	n/a	9	[1 1 3]	5	pyFR	7	TJ041
1112.071	2.789	1168039	PROB	2.76	n/a	n/a	n/a	9	[7 1 1]	9	pyFR	7	TJ041
1114.86	3.706	1170828	PROB	3.675	n/a	n/a	n/a	9	[2 6 9]	17	pyFR	7	TJ041
1118.566	2.696	1174534	PROB	2.696	n/a	n/a	n/a	9	[9 3 2]	14	pyFR	7	TJ041
1121.262	1.145	1177230	STOP	n/a	n/a	n/a	n/a	9	[-999 -999 -999]	-999	pyFR	7	TJ041
1122.407	2.737	1178375	REC_START	n/a	n/a	n/a	-999	9	n/a	n/a	pyFR	7	TJ041
1125.144	1.418	1181112	REC_WORD	2.737	n/a	GLASS	-999	9	n/a	n/a	pyFR	7	TJ041
1126.562	8.07	1182530	REC_WORD	4.155	n/a	WEED	-999	9	n/a	n/a	pyFR	7	TJ041
1134.632	19.437	1190599	REC_WORD	12.225	n/a	SNAIL	-999	9	n/a	n/a	pyFR	7	TJ041
1154.069	6.051	1210036	REC_WORD	31.662	n/a	SCHOOL	-999	9	n/a	n/a	pyFR	7	TJ041
1160.12	9.949	1216087	REC_WORD	37.713	n/a	SLUSH	-999	9	n/a	n/a	pyFR	7	TJ041
1170.069	0.016	1226035	TRIAL	n/a	n/a	n/a	-999	10	n/a	n/a	pyFR	7	TJ041
1170.085	2.773	1226051	ORIENT	n/a	n/a	n/a	-999	10	n/a	n/a	pyFR	7	TJ041
1172.858	2.538	1228824	WORD	n/a	wordpools/wordpool_EN.txt	SNAKE	1	10	n/a	n/a	pyFR	7	TJ041
1175.396	2.437	1231362	WORD	n/a	wordpools/wordpool_EN.txt	MILK	2	10	n/a	n/a	pyFR	7	TJ041
1177.833	2.571	1233799	WORD	n/a	wordpools/wordpool_EN.txt	BELL	3	10	n/a	n/a	pyFR	7	TJ041
1180.404	2.487	1236370	WORD	n/a	wordpools/wordpool_EN.txt	MAT	4	10	n/a	n/a	pyFR	7	TJ041
1182.891	2.504	1238857	WORD	n/a	wordpools/wordpool_EN.txt	VASE	5	10	n/a	n/a	pyFR	7	TJ041
1185.395	2.505	1241361	WORD	n/a	wordpools/wordpool_EN.txt	ROCK	6	10	n/a	n/a	pyFR	7	TJ041
1187.9	2.538	1243866	WORD	n/a	wordpools/wordpool_EN.txt	OAK	7	10	n/a	n/a	pyFR	7	TJ041
1190.438	2.487	1246404	WORD	n/a	wordpools/wordpool_EN.txt	SNOW	8	10	n/a	n/a	pyFR	7	TJ041
1192.925	2.821	1248891	WORD	n/a	wordpools/wordpool_EN.txt	BOWL	9	10	n/a	n/a	pyFR	7	TJ041
1195.746	2.52	1251712	WORD	n/a	wordpools/wordpool_EN.txt	CROW	10	10	n/a	n/a	pyFR	7	TJ041
1198.266	2.656	1254231	WORD	n/a	wordpools/wordpool_EN.txt	STAIR	11	10	n/a	n/a	pyFR	7	TJ041
1200.922	2.771	1256887	WORD	n/a	wordpools/wordpool_EN.txt	CLOTH	12	10	n/a	n/a	pyFR	7	TJ041
1203.693	2.738	1259658	WORD	n/a	wordpools/wordpool_EN.txt	SMOKE	13	10	n/a	n/a	pyFR	7	TJ041
1206.431	2.454	1262396	WORD	n/a	wordpools/wordpool_EN.txt	CHIEF	14	10	n/a	n/a	pyFR	7	TJ041
1208.885	1.621	1264850	WORD	n/a	wordpools/wordpool_EN.txt	MUD	15	10	n/a	n/a	pyFR	7	TJ041
1210.506	0.917	1266471	START	n/a	n/a	n/a	n/a	10	[-999 -999 -999]	-999	pyFR	7	TJ041
1211.423	5.325	1267388	PROB	5.298	n/a	n/a	n/a	10	[1 3 9]	13	pyFR	7	TJ041
1216.748	3.94	1272713	PROB	3.909	n/a	n/a	n/a	10	[3 9 4]	16	pyFR	7	TJ041
1220.688	3.205	1276653	PROB	3.169	n/a	n/a	n/a	10	[9 9 9]	27	pyFR	7	TJ041
1223.893	2.805	1279858	PROB	2.78	n/a	n/a	n/a	10	[3 6 2]	11	pyFR	7	TJ041
1226.698	3.206	1282663	PROB	3.174	n/a	n/a	n/a	10	[6 5 9]	20	pyFR	7	TJ041
1229.904	2.697	1285868	PROB	2.697	n/a	n/a	n/a	10	[1 7 4]	12	pyFR	7	TJ041
1232.601	1.21	1288565	STOP	n/a	n/a	n/a	n/a	10	[-999 -999 -999]	-999	pyFR	7	TJ041
1233.811	2.916	1289775	REC_START	n/a	n/a	n/a	-999	10	n/a	n/a	pyFR	7	TJ041
1236.727	2.393	1292691	REC_WORD	2.916	n/a	SNAKE	-999	10	n/a	n/a	pyFR	7	TJ041
1239.12	1.206	1295084	REC_WORD	5.309	n/a	MILK	-999	10	n/a	n/a	pyFR	7	TJ041
1240.326	4.043	1296290	REC_WORD	6.515	n/a	MAT	-999	10	n/a	n/a	pyFR	7	TJ041
1244.369	6.84	1300333	REC_WORD	10.558	n/a	STAIR	-999	10	n/a	n/a	pyFR	7	TJ041
1251.209	1.232	1307173	REC_WORD	17.398	n/a	SMOKE	-999	10	n/a	n/a	pyFR	7	TJ041
1252.441	33.391	1308405	REC_WORD	18.63	n/a	CHIEF	-999	10	n/a	n/a	pyFR	7	TJ041
1285.832	0.016	1341795	TRIAL	n/a	n/a	n/a	-999	11	n/a	n/a	pyFR	7	TJ041
1285.848	2.654	1341811	ORIENT	n/a	n/a	n/a	-999	11	n/a	n/a	pyFR	7	TJ041
1288.502	2.57	1344465	WORD	n/a	wordpools/wordpool_EN.txt	VINE	1	11	n/a	n/a	pyFR	7	TJ041
1291.072	2.706	1347035	WORD	n/a	wordpools/wordpool_EN.txt	NOSE	2	11	n/a	n/a	pyFR	7	TJ041
1293.778	2.537	1349741	WORD	n/a	wordpools/wordpool_EN.txt	HORN	3	11	n/a	n/a	pyFR	7	TJ041
1296.315	2.505	1352277	WORD	n/a	wordpools/wordpool_EN.txt	GRASS	4	11	n/a	n/a	pyFR	7	TJ041
1298.82	2.654	1354782	WORD	n/a	wordpools/wordpool_EN.txt	WING	5	11	n/a	n/a	pyFR	7	TJ041
1301.474	2.488	1357436	WORD	n/a	wordpools/wordpool_EN.txt	FOX	6	11	n/a	n/a	pyFR	7	TJ041
1303.962	2.721	1359924	WORD	n/a	wordpools/wordpool_EN.txt	SWORD	7	11	n/a	n/a	pyFR	7	TJ041
1306.683	2.838	1362645	WORD	n/a	wordpools/wordpool_EN.txt	FORT	8	11	n/a	n/a	pyFR	7	TJ041
1309.521	2.52	1365483	WORD	n/a	wordpools/wordpool_EN.txt	SPEAR	9	11	n/a	n/a	pyFR	7	TJ041
1312.041	2.539	1368003	WORD	n/a	wordpools/wordpool_EN.txt	COW	10	11	n/a	n/a	pyFR	7	TJ041
1314.58	2.436	1370542	WORD	n/a	wordpools/wordpool_EN.txt	STONE	11	11	n/a	n/a	pyFR	7	TJ041
1317.016	2.505	1372978	WORD	n/a	wordpools/wordpool_EN.txt	SIGN	12	11	n/a	n/a	pyFR	7	TJ041
1319.521	2.654	1375483	WORD	n/a	wordpools/wordpool_EN.txt	CARD	13	11	n/a	n/a	pyFR	7	TJ041
1322.175	2.672	1378137	WORD	n/a	wordpools/wordpool_EN.txt	TOOTH	14	11	n/a	n/a	pyFR	7	TJ041
1324.847	1.621	1380809	WORD	n/a	wordpools/wordpool_EN.txt	TRASH	15	11	n/a	n/a	pyFR	7	TJ041
1326.468	0.9	1382430	START	n/a	n/a	n/a	n/a	11	[-999 -999 -999]	-999	pyFR	7	TJ041
1327.368	4.157	1383329	PROB	4.131	n/a	n/a	n/a	11	[9 3 2]	14	pyFR	7	TJ041
1331.525	2.703	1387486	PROB	2.669	n/a	n/a	n/a	11	[6 6 1]	13	pyFR	7	TJ041
1334.228	3.207	1390189	PROB	3.175	n/a	n/a	n/a	11	[7 8 9]	24	pyFR	7	TJ041
1337.435	3.805	1393396	PROB	3.767	n/a	n/a	n/a	11	[2 7 9]	18	pyFR	7	TJ041
1341.24	5.459	1397201	PROB	5.459	n/a	n/a	n/a	11	[7 2 5]	14	pyFR	7	TJ041
1346.699	1.204	1402660	STOP	n/a	n/a	n/a	n/a	11	[-999 -999 -999]	-999	pyFR	7	TJ041
1347.903	1.396	1403864	REC_START	n/a	n/a	n/a	-999	11	n/a	n/a	pyFR	7	TJ041
1349.299	1.126	1405260	REC_WORD	1.396	n/a	VINE	-999	11	n/a	n/a	pyFR	7	TJ041
1350.425	1.332	1406386	REC_WORD	2.522	n/a	GRAPE	-999	11	n/a	n/a	pyFR	7	TJ041
1351.757	2.633	1407718	REC_WORD	3.854	n/a	NOSE	-999	11	n/a	n/a	pyFR	7	TJ041
1354.39	1.797	1410351	REC_WORD	6.487	n/a	COW	-999	11	n/a	n/a	pyFR	7	TJ041
1356.187	39.078	1412148	REC_WORD	8.284	n/a	TRASH	-999	11	n/a	n/a	pyFR	7	TJ041
1395.265	0.016	1451224	TRIAL	n/a	n/a	n/a	-999	12	n/a	n/a	pyFR	7	TJ041
1395.281	2.838	1451240	ORIENT	n/a	n/a	n/a	-999	12	n/a	n/a	pyFR	7	TJ041
1398.119	2.723	1454078	WORD	n/a	wordpools/wordpool_EN.txt	LAKE	1	12	n/a	n/a	pyFR	7	TJ041
1400.842	2.671	1456801	WORD	n/a	wordpools/wordpool_EN.txt	STAR	2	12	n/a	n/a	pyFR	7	TJ041
1403.513	2.637	1459472	WORD	n/a	wordpools/wordpool_EN.txt	STEAM	3	12	n/a	n/a	pyFR	7	TJ041
1406.15	2.705	1462109	WORD	n/a	wordpools/wordpool_EN.txt	TOAD	4	12	n/a	n/a	pyFR	7	TJ041
1408.855	2.453	1464814	WORD	n/a	wordpools/wordpool_EN.txt	ROPE	5	12	n/a	n/a	pyFR	7	TJ041
1411.308	2.705	1467267	WORD	n/a	wordpools/wordpool_EN.txt	ANT	6	12	n/a	n/a	pyFR	7	TJ041
1414.013	2.488	1469972	WORD	n/a	wordpools/wordpool_EN.txt	FILM	7	12	n/a	n/a	pyFR	7	TJ041
1416.501	2.554	1472460	WORD	n/a	wordpools/wordpool_EN.txt	FARM	8	12	n/a	n/a	pyFR	7	TJ041
1419.055	2.822	1475014	WORD	n/a	wordpools/wordpool_EN.txt	PET	9	12	n/a	n/a	pyFR	7	TJ041
1421.877	2.521	1477836	WORD	n/a	wordpools/wordpool_EN.txt	EEL	10	12	n/a	n/a	pyFR	7	TJ041
1424.398	2.454	1480356	WORD	n/a	wordpools/wordpool_EN.txt	CLOCK	11	12	n/a	n/a	pyFR	7	TJ041
1426.852	2.521	1482810	WORD	n/a	wordpools/wordpool_EN.txt	MOUSE	12	12	n/a	n/a	pyFR	7	TJ041
1429.373	2.471	1485331	WORD	n/a	wordpools/wordpool_EN.txt	PIPE	13	12	n/a	n/a	pyFR	7	TJ041
1431.844	2.804	1487802	WORD	n/a	wordpools/wordpool_EN.txt	SKUNK	14	12	n/a	n/a	pyFR	7	TJ041
1434.648	1.62	1490606	WORD	n/a	wordpools/wordpool_EN.txt	HEN	15	12	n/a	n/a	pyFR	7	TJ041
1436.268	1.152	1492226	START	n/a	n/a	n/a	n/a	12	[-999 -999 -999]	-999	pyFR	7	TJ041
1437.42	5.442	1493378	PROB	5.413	n/a	n/a	n/a	12	[8 1 8]	17	pyFR	7	TJ041
1442.862	2.905	1498820	PROB	2.883	n/a	n/a	n/a	12	[1 6 6]	13	pyFR	7	TJ041
1445.767	3.906	1501725	PROB	3.874	n/a	n/a	n/a	12	[6 4 5]	15	pyFR	7	TJ041
1449.673	3.072	1505631	PROB	3.04	n/a	n/a	n/a	12	[3 9 7]	19	pyFR	7	TJ041
1452.745	3.089	1508703	PROB	3.056	n/a	n/a	n/a	12	[6 3 7]	16	pyFR	7	TJ041
1455.834	4.087	1511792	PROB	4.087	n/a	n/a	n/a	12	[3 3 9]	15	pyFR	7	TJ041
1459.921	1.222	1515878	STOP	n/a	n/a	n/a	n/a	12	[-999 -999 -999]	-999	pyFR	7	TJ041
1461.143	4.341	1517100	REC_START	n/a	n/a	n/a	-999	12	n/a	n/a	pyFR	7	TJ041
1465.484	1.326	1521441	REC_WORD	4.341	n/a	FARM	-999	12	n/a	n/a	pyFR	7	TJ041
1466.81	3.502	1522767	REC_WORD	5.667	n/a	FILM	-999	12	n/a	n/a	pyFR	7	TJ041
1470.312	1.281	1526269	REC_WORD	9.169	n/a	TOAD	-999	12	n/a	n/a	pyFR	7	TJ041
1471.593	1.465	1527550	REC_WORD	10.45	n/a	LAKE	-999	12	n/a	n/a	pyFR	7	TJ041
1473.058	1.651	1529015	REC_WORD	11.915	n/a	ANT	-999	12	n/a	n/a	pyFR	7	TJ041
1474.709	2.643	1530666	REC_WORD	13.566	n/a	EEL	-999	12	n/a	n/a	pyFR	7	TJ041
1477.352	33.008	1533309	REC_WORD	16.209	n/a	MOUSE	-999	12	n/a	n/a	pyFR	7	TJ041
1510.36	0.016	1566316	TRIAL	n/a	n/a	n/a	-999	13	n/a	n/a	pyFR	7	TJ041
1510.376	2.62	1566332	ORIENT	n/a	n/a	n/a	-999	13	n/a	n/a	pyFR	7	TJ041
1512.996	2.539	1568952	WORD	n/a	wordpools/wordpool_EN.txt	COIN	1	13	n/a	n/a	pyFR	7	TJ041
1515.535	2.586	1571491	WORD	n/a	wordpools/wordpool_EN.txt	HEART	2	13	n/a	n/a	pyFR	7	TJ041
1518.121	2.689	1574077	WORD	n/a	wordpools/wordpool_EN.txt	YARD	3	13	n/a	n/a	pyFR	7	TJ041
1520.81	2.538	1576766	WORD	n/a	wordpools/wordpool_EN.txt	TAPE	4	13	n/a	n/a	pyFR	7	TJ041
1523.348	2.504	1579303	WORD	n/a	wordpools/wordpool_EN.txt	CASH	5	13	n/a	n/a	pyFR	7	TJ041
1525.852	2.521	1581807	WORD	n/a	wordpools/wordpool_EN.txt	CALF	6	13	n/a	n/a	pyFR	7	TJ041
1528.373	2.82	1584328	WORD	n/a	wordpools/wordpool_EN.txt	NEST	7	13	n/a	n/a	pyFR	7	TJ041
1531.193	2.656	1587148	WORD	n/a	wordpools/wordpool_EN.txt	WOLF	8	13	n/a	n/a	pyFR	7	TJ041
1533.849	2.638	1589804	WORD	n/a	wordpools/wordpool_EN.txt	RAIN	9	13	n/a	n/a	pyFR	7	TJ041
1536.487	2.603	1592442	WORD	n/a	wordpools/wordpool_EN.txt	ROSE	10	13	n/a	n/a	pyFR	7	TJ041
1539.09	2.689	1595045	WORD	n/a	wordpools/wordpool_EN.txt	CORN	11	13	n/a	n/a	pyFR	7	TJ041
1541.779	2.571	1597734	WORD	n/a	wordpools/wordpool_EN.txt	FLOOR	12	13	n/a	n/a	pyFR	7	TJ041
1544.35	2.703	1600305	WORD	n/a	wordpools/wordpool_EN.txt	SHIELD	13	13	n/a	n/a	pyFR	7	TJ041
1547.053	2.489	1603008	WORD	n/a	wordpools/wordpool_EN.txt	THUMB	14	13	n/a	n/a	pyFR	7	TJ041
1549.542	1.619	1605497	WORD	n/a	wordpools/wordpool_EN.txt	CHEEK	15	13	n/a	n/a	pyFR	7	TJ041
1551.161	0.851	1607116	START	n/a	n/a	n/a	n/a	13	[-999 -999 -999]	-999	pyFR	7	TJ041
1552.012	3.657	1607967	PROB	3.629	n/a	n/a	n/a	13	[5 1 1]	7	pyFR	7	TJ041
1555.669	2.453	1611623	PROB	2.419	n/a	n/a	n/a	13	[4 7 1]	12	pyFR	7	TJ041
1558.122	3.038	1614076	PROB	3.014	n/a	n/a	n/a	13	[8 5 9]	22	pyFR	7	TJ041
1561.16	3.122	1617114	PROB	3.096	n/a	n/a	n/a	13	[1 9 9]	19	pyFR	7	TJ041
1564.282	2.589	1620236	PROB	2.559	n/a	n/a	n/a	13	[8 6 8]	22	pyFR	7	TJ041
1566.871	3.907	1622825	PROB	3.882	n/a	n/a	n/a	13	[6 7 8]	21	pyFR	7	TJ041
1570.778	3.087	1626732	PROB	3.087	n/a	n/a	n/a	13	[5 1 4]	10	pyFR	7	TJ041
1573.865	1.169	1629819	STOP	n/a	n/a	n/a	n/a	13	[-999 -999 -999]	-999	pyFR	7	TJ041
1575.034	4.771	1630988	REC_START	n/a	n/a	n/a	-999	13	n/a	n/a	pyFR	7	TJ041
1579.805	3.191	1635759	REC_WORD	4.771	n/a	COIN	-999	13	n/a	n/a	pyFR	7	TJ041
1582.996	2.613	1638950	REC_WORD	7.962	n/a	HEART	-999	13	n/a	n/a	pyFR	7	TJ041
1585.609	38.359	1641563	REC_WORD	10.575	n/a	CALF	-999	13	n/a	n/a	pyFR	7	TJ041
1623.968	0.015	1679920	TRIAL	n/a	n/a	n/a	-999	14	n/a	n/a	pyFR	7	TJ041
1623.983	2.889	1679935	ORIENT	n/a	n/a	n/a	-999	14	n/a	n/a	pyFR	7	TJ041
1626.872	2.453	1682824	WORD	n/a	wordpools/wordpool_EN.txt	MUG	1	14	n/a	n/a	pyFR	7	TJ041
1629.325	2.49	1685277	WORD	n/a	wordpools/wordpool_EN.txt	SKI	2	14	n/a	n/a	pyFR	7	TJ041
1631.815	2.485	1687767	WORD	n/a	wordpools/wordpool_EN.txt	PLANT	3	14	n/a	n/a	pyFR	7	TJ041
1634.3	2.522	1690252	WORD	n/a	wordpools/wordpool_EN.txt	ROOM	4	14	n/a	n/a	pyFR	7	TJ041
1636.822	2.605	1692774	WORD	n/a	wordpools/wordpool_EN.txt	COUCH	5	14	n/a	n/a	pyFR	7	TJ041
1639.427	2.47	1695379	WORD	n/a	wordpools/wordpool_EN.txt	BLUSH	6	14	n/a	n/a	pyFR	7	TJ041
1641.897	2.688	1697849	WORD	n/a	wordpools/wordpool_EN.txt	FENCE	7	14	n/a	n/a	pyFR	7	TJ041
1644.585	2.553	1700537	WORD	n/a	wordpools/wordpool_EN.txt	CORD	8	14	n/a	n/a	pyFR	7	TJ041
1647.138	2.806	1703090	WORD	n/a	wordpools/wordpool_EN.txt	FAN	9	14	n/a	n/a	pyFR	7	TJ041
1649.944	2.488	1705896	WORD	n/a	wordpools/wordpool_EN.txt	ZOO	10	14	n/a	n/a	pyFR	7	TJ041
1652.432	2.653	1708383	WORD	n/a	wordpools/wordpool_EN.txt	APE	11	14	n/a	n/a	pyFR	7	TJ041
1655.085	2.756	1711036	WORD	n/a	wordpools/wordpool_EN.txt	PALM	12	14	n/a	n/a	pyFR	7	TJ041
1657.841	2.587	1713792	WORD	n/a	wordpools/wordpool_EN.txt	LAMP	13	14	n/a	n/a	pyFR	7	TJ041
1660.428	2.604	1716379	WORD	n/a	wordpools/wordpool_EN.txt	BUSH	14	14	n/a	n/a	pyFR	7	TJ041
1663.032	1.621	1718983	WORD	n/a	wordpools/wordpool_EN.txt	CAT	15	14	n/a	n/a	pyFR	7	TJ041
1664.653	1.201	1720604	START	n/a	n/a	n/a	n/a	14	[-999 -999 -999]	-999	pyFR	7	TJ041
1665.854	4.239	1721805	PROB	4.209	n/a	n/a	n/a	14	[5 8 7]	20	pyFR	7	TJ041
1670.093	3.758	1726044	PROB	3.731	n/a	n/a	n/a	14	[3 9 9]	21	pyFR	7	TJ041
1673.851	3.873	1729802	PROB	3.845	n/a	n/a	n/a	14	[1 3 5]	9	pyFR	7	TJ041
1677.724	3.69	1733675	PROB	3.652	n/a	n/a	n/a	14	[5 7 1]	13	pyFR	7	TJ041
1681.414	3.53	1737365	PROB	3.53	n/a	n/a	n/a	14	[6 7 6]	19	pyFR	7	TJ041
1684.944	1.227	1740894	STOP	n/a	n/a	n/a	n/a	14	[-999 -999 -999]	-999	pyFR	7	TJ041
1686.171	2.931	1742121	REC_START	n/a	n/a	n/a	-999	14	n/a	n/a	pyFR	7	TJ041
1689.102	2.125	1745052	REC_WORD	2.931	n/a	SKI	-999	14	n/a	n/a	pyFR	7	TJ041
1691.227	16.792	1747177	REC_WORD	5.056	n/a	BLUSH	-999	14	n/a	n/a	pyFR	7	TJ041
1708.019	21.207	1763969	REC_WORD	21.848	n/a	BUSH	-999	14	n/a	n/a	pyFR	7	TJ041
1729.226	3.908	1785175	REC_WORD	43.055	n/a	LAMP	-999	14	n/a	n/a	pyFR	7	TJ041
1733.134	0.016	1789083	TRIAL	n/a	n/a	n/a	-999	15	n/a	n/a	pyFR	7	TJ041
1733.15	2.905	1789099	ORIENT	n/a	n/a	n/a	-999	15	n/a	n/a	pyFR	7	TJ041
1736.055	2.538	1792004	WORD	n/a	wordpools/wordpool_EN.txt	DRUM	1	15	n/a	n/a	pyFR	7	TJ041
1738.593	2.537	1794542	WORD	n/a	wordpools/wordpool_EN.txt	DUCK	2	15	n/a	n/a	pyFR	7	TJ041
1741.13	2.756	1797079	WORD	n/a	wordpools/wordpool_EN.txt	STORE	3	15	n/a	n/a	pyFR	7	TJ041
1743.886	2.537	1799835	WORD	n/a	wordpools/wordpool_EN.txt	COAT	4	15	n/a	n/a	pyFR	7	TJ041
1746.423	2.521	1802372	WORD	n/a	wordpools/wordpool_EN.txt	BANK	5	15	n/a	n/a	pyFR	7	TJ041
1748.944	2.605	1804893	WORD	n/a	wordpools/wordpool_EN.txt	SQUARE	6	15	n/a	n/a	pyFR	7	TJ041
1751.549	2.804	1807497	WORD	n/a	wordpools/wordpool_EN.txt	SOCK	7	15	n/a	n/a	pyFR	7	TJ041
1754.353	2.588	1810301	WORD	n/a	wordpools/wordpool_EN.txt	JUDGE	8	15	n/a	n/a	pyFR	7	TJ041
1756.941	2.805	1812889	WORD	n/a	wordpools/wordpool_EN.txt	BEAN	9	15	n/a	n/a	pyFR	7	TJ041
1759.746	2.721	1815694	WORD	n/a	wordpools/wordpool_EN.txt	TOE	10	15	n/a	n/a	pyFR	7	TJ041
1762.467	2.504	1818415	WORD	n/a	wordpools/wordpool_EN.txt	CLOWN	11	15	n/a	n/a	pyFR	7	TJ041
1764.971	2.721	1820919	WORD	n/a	wordpools/wordpool_EN.txt	POOL	12	15	n/a	n/a	pyFR	7	TJ041
1767.692	2.57	1823640	WORD	n/a	wordpools/wordpool_EN.txt	MOUTH	13	15	n/a	n/a	pyFR	7	TJ041
1770.262	2.755	1826210	WORD	n/a	wordpools/wordpool_EN.txt	FACE	14	15	n/a	n/a	pyFR	7	TJ041
1773.017	1.605	1828965	WORD	n/a	wordpools/wordpool_EN.txt	ROOF	15	15	n/a	n/a	pyFR	7	TJ041
1774.622	0.834	1830570	START	n/a	n/a	n/a	n/a	15	[-999 -999 -999]	-999	pyFR	7	TJ041
1775.456	4.891	1831404	PROB	4.854	n/a	n/a	n/a	15	[5 7 6]	18	pyFR	7	TJ041
1780.347	3.623	1836295	PROB	3.596	n/a	n/a	n/a	15	[8 7 2]	17	pyFR	7	TJ041
1783.97	3.154	1839917	PROB	3.131	n/a	n/a	n/a	15	[6 9 9]	24	pyFR	7	TJ041
1787.124	2.153	1843071	PROB	2.122	n/a	n/a	n/a	15	[7 6 1]	14	pyFR	7	TJ041
1789.277	2.905	1845224	PROB	2.873	n/a	n/a	n/a	15	[3 5 8]	16	pyFR	7	TJ041
1792.182	1.92	1848129	PROB	1.888	n/a	n/a	n/a	15	[7 9 5]	21	pyFR	7	TJ041
1794.102	1.96	1850049	PROB	1.96	n/a	n/a	n/a	15	[9 4 9]	22	pyFR	7	TJ041
1796.062	1.18	1852009	STOP	n/a	n/a	n/a	n/a	15	[-999 -999 -999]	-999	pyFR	7	TJ041
1797.242	45.0	1853189	REC_START	n/a	n/a	n/a	-999	15	n/a	n/a	pyFR	7	TJ041
1842.242	2.33	1898188	REC_WORD_VV	45.0	n/a	<>	-999	15	n/a	n/a	pyFR	7	TJ041
1844.572	0.016	1900518	TRIAL	n/a	n/a	n/a	-999	16	n/a	n/a	pyFR	7	TJ041
1844.588	2.772	1900534	ORIENT	n/a	n/a	n/a	-999	16	n/a	n/a	pyFR	7	TJ041
1847.36	2.471	1903305	WORD	n/a	wordpools/wordpool_EN.txt	JAR	1	16	n/a	n/a	pyFR	7	TJ041
1849.831	2.821	1905776	WORD	n/a	wordpools/wordpool_EN.txt	BROOM	2	16	n/a	n/a	pyFR	7	TJ041
1852.652	2.653	1908597	WORD	n/a	wordpools/wordpool_EN.txt	PRINCE	3	16	n/a	n/a	pyFR	7	TJ041
1855.305	2.672	1911250	WORD	n/a	wordpools/wordpool_EN.txt	GATE	4	16	n/a	n/a	pyFR	7	TJ041
1857.977	2.438	1913922	WORD	n/a	wordpools/wordpool_EN.txt	SKY	5	16	n/a	n/a	pyFR	7	TJ041
1860.415	2.57	1916360	WORD	n/a	wordpools/wordpool_EN.txt	TRAY	6	16	n/a	n/a	pyFR	7	TJ041
1862.985	2.755	1918930	WORD	n/a	wordpools/wordpool_EN.txt	FOOD	7	16	n/a	n/a	pyFR	7	TJ041
1865.74	2.689	1921685	WORD	n/a	wordpools/wordpool_EN.txt	CUBE	8	16	n/a	n/a	pyFR	7	TJ041
1868.429	2.686	1924374	WORD	n/a	wordpools/wordpool_EN.txt	HOOK	9	16	n/a	n/a	pyFR	7	TJ041
1871.115	2.739	1927060	WORD	n/a	wordpools/wordpool_EN.txt	ROOT	10	16	n/a	n/a	pyFR	7	TJ041
1873.854	2.605	1929799	WORD	n/a	wordpools/wordpool_EN.txt	MAP	11	16	n/a	n/a	pyFR	7	TJ041
1876.459	2.62	1932404	WORD	n/a	wordpools/wordpool_EN.txt	PANTS	12	16	n/a	n/a	pyFR	7	TJ041
1879.079	2.756	1935023	WORD	n/a	wordpools/wordpool_EN.txt	STRAW	13	16	n/a	n/a	pyFR	7	TJ041
1881.835	2.788	1937779	WORD	n/a	wordpools/wordpool_EN.txt	FROG	14	16	n/a	n/a	pyFR	7	TJ041
1884.623	1.619	1940567	WORD	n/a	wordpools/wordpool_EN.txt	CAGE	15	16	n/a	n/a	pyFR	7	TJ041
1886.242	1.135	1942186	START	n/a	n/a	n/a	n/a	16	[-999 -999 -999]	-999	pyFR	7	TJ041
1887.377	3.572	1943321	PROB	3.542	n/a	n/a	n/a	16	[1 2 5]	8	pyFR	7	TJ041
1890.949	2.605	1946893	PROB	2.578	n/a	n/a	n/a	16	[4 6 4]	14	pyFR	7	TJ041
1893.554	2.921	1949498	PROB	2.885	n/a	n/a	n/a	16	[8 9 3]	20	pyFR	7	TJ041
1896.475	2.471	1952419	PROB	2.436	n/a	n/a	n/a	16	[4 6 4]	14	pyFR	7	TJ041
1898.946	2.471	1954890	PROB	2.445	n/a	n/a	n/a	16	[1 6 3]	10	pyFR	7	TJ041
1901.417	2.538	1957361	PROB	2.502	n/a	n/a	n/a	16	[2 3 1]	6	pyFR	7	TJ041
1903.955	4.004	1959899	PROB	4.004	n/a	n/a	n/a	16	[5 1 4]	10	pyFR	7	TJ041
1907.959	1.071	1963903	STOP	n/a	n/a	n/a	n/a	16	[-999 -999 -999]	-999	pyFR	7	TJ041
1909.03	3.486	1964974	REC_START	n/a	n/a	n/a	-999	16	n/a	n/a	pyFR	7	TJ041
1912.516	1.613	1968459	REC_WORD	3.486	n/a	STRAW	-999	16	n/a	n/a	pyFR	7	TJ041
1914.129	5.984	1970072	REC_WORD	5.099	n/a	TRAY	-999	16	n/a	n/a	pyFR	7	TJ041
1920.113	1.25	1976056	REC_WORD	11.083	n/a	GATE	-999	16	n/a	n/a	pyFR	7	TJ041
1921.363	1.552	1977306	REC_WORD	12.333	n/a	CAGE	-999	16	n/a	n/a	pyFR	7	TJ041
1922.915	1.956	1978858	REC_WORD	13.885	n/a	PRINCE	-999	16	n/a	n/a	pyFR	7	TJ041
1924.871	560.395	1980814	REC_WORD	15.841	n/a	CUBE	-999	16	n/a	n/a	pyFR	7	TJ041
2485.266	0.072	2541192	SESS_END	n/a	n/a	n/a	-999	16	n/a	n/a	pyFR	7	TJ041
2485.338	0.0	2541264	E	n/a	n/a	n/a	-999	16	n/a	n/a	pyFR	7	TJ041
