onset	duration	sample	trial_type	response_time	stim_file	item_name	serialpos	list	test	answer	experiment	session	subject
0.0	0.0	460939	SESS_START	n/a	n/a	n/a	-999	-999	n/a	n/a	pyFR	0	TJ036
0.0	73.473	460939	B	n/a	n/a	n/a	-999	-999	n/a	n/a	pyFR	0	TJ036
73.473	0.01	n/a	START	n/a	n/a	n/a	n/a	0	[-999 -999 -999]	-999	pyFR	0	TJ036
73.483	7.831	n/a	PROB	n/a	n/a	n/a	n/a	0	[3 9 1]	13	pyFR	0	TJ036
81.314	5.241	n/a	PROB	n/a	n/a	n/a	n/a	0	[6 3 6]	15	pyFR	0	TJ036
86.555	2.605	n/a	PROB	n/a	n/a	n/a	n/a	0	[3 7 1]	11	pyFR	0	TJ036
89.16	3.288	n/a	PROB	n/a	n/a	n/a	n/a	0	[9 5 1]	15	pyFR	0	TJ036
92.448	3.591	n/a	PROB	n/a	n/a	n/a	n/a	0	[8 4 8]	20	pyFR	0	TJ036
96.039	8.318	n/a	PROB	n/a	n/a	n/a	n/a	0	[8 1 7]	16	pyFR	0	TJ036
104.357	110.148	n/a	STOP	n/a	n/a	n/a	n/a	0	[-999 -999 -999]	-999	pyFR	0	TJ036
214.505	0.016	675436	TRIAL	n/a	n/a	n/a	-999	1	n/a	n/a	pyFR	0	TJ036
214.521	2.822	675452	ORIENT	n/a	n/a	n/a	-999	1	n/a	n/a	pyFR	0	TJ036
217.343	2.588	678274	WORD	n/a	wordpools/wordpool_EN.txt	SHEET	1	1	n/a	n/a	pyFR	0	TJ036
219.931	2.737	680862	WORD	n/a	wordpools/wordpool_EN.txt	CUBE	2	1	n/a	n/a	pyFR	0	TJ036
222.668	2.488	683598	WORD	n/a	wordpools/wordpool_EN.txt	HOUSE	3	1	n/a	n/a	pyFR	0	TJ036
225.156	2.537	686086	WORD	n/a	wordpools/wordpool_EN.txt	LAMB	4	1	n/a	n/a	pyFR	0	TJ036
227.693	2.755	688623	WORD	n/a	wordpools/wordpool_EN.txt	MILK	5	1	n/a	n/a	pyFR	0	TJ036
230.448	2.571	691378	WORD	n/a	wordpools/wordpool_EN.txt	TRAY	6	1	n/a	n/a	pyFR	0	TJ036
233.019	2.804	693949	WORD	n/a	wordpools/wordpool_EN.txt	SHARK	7	1	n/a	n/a	pyFR	0	TJ036
235.823	2.655	696753	WORD	n/a	wordpools/wordpool_EN.txt	RUG	8	1	n/a	n/a	pyFR	0	TJ036
238.478	2.622	699408	WORD	n/a	wordpools/wordpool_EN.txt	OAK	9	1	n/a	n/a	pyFR	0	TJ036
241.1	2.787	702030	WORD	n/a	wordpools/wordpool_EN.txt	FLEA	10	1	n/a	n/a	pyFR	0	TJ036
243.887	2.704	704817	WORD	n/a	wordpools/wordpool_EN.txt	TRUCK	11	1	n/a	n/a	pyFR	0	TJ036
246.591	2.706	707521	WORD	n/a	wordpools/wordpool_EN.txt	PIE	12	1	n/a	n/a	pyFR	0	TJ036
249.297	2.586	710226	WORD	n/a	wordpools/wordpool_EN.txt	ROCK	13	1	n/a	n/a	pyFR	0	TJ036
251.883	2.489	712812	WORD	n/a	wordpools/wordpool_EN.txt	FLUTE	14	1	n/a	n/a	pyFR	0	TJ036
254.372	1.621	715301	WORD	n/a	wordpools/wordpool_EN.txt	NET	15	1	n/a	n/a	pyFR	0	TJ036
255.993	0.866	n/a	START	n/a	n/a	n/a	n/a	1	[-999 -999 -999]	-999	pyFR	0	TJ036
256.859	5.142	n/a	PROB	n/a	n/a	n/a	n/a	1	[2 1 1]	4	pyFR	0	TJ036
262.001	13.606	n/a	PROB	n/a	n/a	n/a	n/a	1	[8 7 7]	22	pyFR	0	TJ036
275.607	4.734	n/a	PROB	n/a	n/a	n/a	n/a	1	[4 1 3]	8	pyFR	0	TJ036
280.341	1.227	n/a	STOP	n/a	n/a	n/a	n/a	1	[-999 -999 -999]	-999	pyFR	0	TJ036
281.568	1.07	742496	REC_START	n/a	n/a	n/a	-999	1	n/a	n/a	pyFR	0	TJ036
282.638	0.78	743566	REC_WORD	0.78	n/a	<>	-999	1	n/a	n/a	pyFR	0	TJ036
283.418	1.0	744346	REC_WORD	1.0	n/a	FLUTE	-999	1	n/a	n/a	pyFR	0	TJ036
284.418	0.804	745346	REC_WORD	0.804	n/a	<>	-999	1	n/a	n/a	pyFR	0	TJ036
285.222	1.0	746150	REC_WORD	1.0	n/a	SHEET	-999	1	n/a	n/a	pyFR	0	TJ036
286.222	0.267	747150	REC_WORD	0.267	n/a	<>	-999	1	n/a	n/a	pyFR	0	TJ036
286.489	2.863	747417	REC_WORD	2.863	n/a	FLEA	-999	1	n/a	n/a	pyFR	0	TJ036
289.352	5.652	750280	REC_WORD	5.652	n/a	CUBE	-999	1	n/a	n/a	pyFR	0	TJ036
295.004	19.073	755932	REC_WORD	19.073	n/a	RUG	-999	1	n/a	n/a	pyFR	0	TJ036
314.077	1.0	775004	REC_WORD	1.0	n/a	<>	-999	1	n/a	n/a	pyFR	0	TJ036
315.077	2.014	776004	REC_WORD	2.014	n/a	<>	-999	1	n/a	n/a	pyFR	0	TJ036
317.091	1.0	778018	REC_WORD	1.0	n/a	<>	-999	1	n/a	n/a	pyFR	0	TJ036
318.091	1.0	779018	REC_WORD	1.0	n/a	<>	-999	1	n/a	n/a	pyFR	0	TJ036
319.091	1.0	780018	REC_WORD	1.0	n/a	<>	-999	1	n/a	n/a	pyFR	0	TJ036
320.091	1.0	781018	REC_WORD	1.0	n/a	<>	-999	1	n/a	n/a	pyFR	0	TJ036
321.091	1.0	782018	REC_WORD	1.0	n/a	<>	-999	1	n/a	n/a	pyFR	0	TJ036
322.091	1.0	783018	REC_WORD	1.0	n/a	<>	-999	1	n/a	n/a	pyFR	0	TJ036
323.091	1.0	784018	REC_WORD	1.0	n/a	<>	-999	1	n/a	n/a	pyFR	0	TJ036
324.091	1.0	785018	REC_WORD	1.0	n/a	<>	-999	1	n/a	n/a	pyFR	0	TJ036
325.091	1.0	786017	REC_WORD	1.0	n/a	<>	-999	1	n/a	n/a	pyFR	0	TJ036
326.091	9.302	787017	REC_WORD	9.302	n/a	<>	-999	1	n/a	n/a	pyFR	0	TJ036
335.393	0.015	796319	TRIAL	n/a	n/a	n/a	-999	2	n/a	n/a	pyFR	0	TJ036
335.408	2.621	796334	ORIENT	n/a	n/a	n/a	-999	2	n/a	n/a	pyFR	0	TJ036
338.029	2.771	798955	WORD	n/a	wordpools/wordpool_EN.txt	JUICE	1	2	n/a	n/a	pyFR	0	TJ036
340.8	2.671	801726	WORD	n/a	wordpools/wordpool_EN.txt	PEARL	2	2	n/a	n/a	pyFR	0	TJ036
343.471	2.556	804397	WORD	n/a	wordpools/wordpool_EN.txt	ROOF	3	2	n/a	n/a	pyFR	0	TJ036
346.027	2.52	806953	WORD	n/a	wordpools/wordpool_EN.txt	TAIL	4	2	n/a	n/a	pyFR	0	TJ036
348.547	2.638	809473	WORD	n/a	wordpools/wordpool_EN.txt	SNAKE	5	2	n/a	n/a	pyFR	0	TJ036
351.185	2.637	812110	WORD	n/a	wordpools/wordpool_EN.txt	CLAY	6	2	n/a	n/a	pyFR	0	TJ036
353.822	2.788	814747	WORD	n/a	wordpools/wordpool_EN.txt	HORN	7	2	n/a	n/a	pyFR	0	TJ036
356.61	2.772	817535	WORD	n/a	wordpools/wordpool_EN.txt	GATE	8	2	n/a	n/a	pyFR	0	TJ036
359.382	2.822	820307	WORD	n/a	wordpools/wordpool_EN.txt	CLOUD	9	2	n/a	n/a	pyFR	0	TJ036
362.204	2.822	823129	WORD	n/a	wordpools/wordpool_EN.txt	LEG	10	2	n/a	n/a	pyFR	0	TJ036
365.026	2.452	825951	WORD	n/a	wordpools/wordpool_EN.txt	PURSE	11	2	n/a	n/a	pyFR	0	TJ036
367.478	2.806	828403	WORD	n/a	wordpools/wordpool_EN.txt	POOL	12	2	n/a	n/a	pyFR	0	TJ036
370.284	2.688	831209	WORD	n/a	wordpools/wordpool_EN.txt	WEED	13	2	n/a	n/a	pyFR	0	TJ036
372.972	2.67	833897	WORD	n/a	wordpools/wordpool_EN.txt	PLANT	14	2	n/a	n/a	pyFR	0	TJ036
375.642	1.622	836567	WORD	n/a	wordpools/wordpool_EN.txt	FORK	15	2	n/a	n/a	pyFR	0	TJ036
377.264	1.1	n/a	START	n/a	n/a	n/a	n/a	2	[-999 -999 -999]	-999	pyFR	0	TJ036
378.364	5.042	n/a	PROB	n/a	n/a	n/a	n/a	2	[4 3 5]	12	pyFR	0	TJ036
383.406	2.988	n/a	PROB	n/a	n/a	n/a	n/a	2	[4 6 1]	11	pyFR	0	TJ036
386.394	2.655	n/a	PROB	n/a	n/a	n/a	n/a	2	[2 2 3]	7	pyFR	0	TJ036
389.049	4.54	n/a	PROB	n/a	n/a	n/a	n/a	2	[8 9 9]	26	pyFR	0	TJ036
393.589	3.071	n/a	PROB	n/a	n/a	n/a	n/a	2	[1 1 3]	5	pyFR	0	TJ036
396.66	4.816	n/a	PROB	n/a	n/a	n/a	n/a	2	[9 4 1]	11	pyFR	0	TJ036
401.476	1.162	n/a	STOP	n/a	n/a	n/a	n/a	2	[-999 -999 -999]	-999	pyFR	0	TJ036
402.638	4.589	863561	REC_START	n/a	n/a	n/a	-999	2	n/a	n/a	pyFR	0	TJ036
407.227	0.977	868150	REC_WORD	0.977	n/a	JUICE	-999	2	n/a	n/a	pyFR	0	TJ036
408.204	0.623	869127	REC_WORD	0.623	n/a	CLAY	-999	2	n/a	n/a	pyFR	0	TJ036
408.827	26.745	869750	REC_WORD	26.745	n/a	RAKE	-999	2	n/a	n/a	pyFR	0	TJ036
435.572	1.0	896494	REC_WORD	1.0	n/a	<>	-999	2	n/a	n/a	pyFR	0	TJ036
436.572	1.0	897494	REC_WORD	1.0	n/a	<>	-999	2	n/a	n/a	pyFR	0	TJ036
437.572	1.0	898494	REC_WORD	1.0	n/a	<>	-999	2	n/a	n/a	pyFR	0	TJ036
438.572	1.0	899494	REC_WORD	1.0	n/a	<>	-999	2	n/a	n/a	pyFR	0	TJ036
439.572	1.0	900494	REC_WORD	1.0	n/a	<>	-999	2	n/a	n/a	pyFR	0	TJ036
440.572	1.0	901494	REC_WORD	1.0	n/a	<>	-999	2	n/a	n/a	pyFR	0	TJ036
441.572	1.0	902494	REC_WORD	1.0	n/a	<>	-999	2	n/a	n/a	pyFR	0	TJ036
442.572	1.0	903494	REC_WORD	1.0	n/a	<>	-999	2	n/a	n/a	pyFR	0	TJ036
443.572	5.995	904494	REC_WORD	5.995	n/a	<>	-999	2	n/a	n/a	pyFR	0	TJ036
449.567	0.016	910489	TRIAL	n/a	n/a	n/a	-999	3	n/a	n/a	pyFR	0	TJ036
449.583	2.939	910505	ORIENT	n/a	n/a	n/a	-999	3	n/a	n/a	pyFR	0	TJ036
452.522	2.505	913443	WORD	n/a	wordpools/wordpool_EN.txt	FROG	1	3	n/a	n/a	pyFR	0	TJ036
455.027	2.486	915948	WORD	n/a	wordpools/wordpool_EN.txt	CLOTH	2	3	n/a	n/a	pyFR	0	TJ036
457.513	2.522	918434	WORD	n/a	wordpools/wordpool_EN.txt	SINK	3	3	n/a	n/a	pyFR	0	TJ036
460.035	2.754	920956	WORD	n/a	wordpools/wordpool_EN.txt	STONE	4	3	n/a	n/a	pyFR	0	TJ036
462.789	2.671	923710	WORD	n/a	wordpools/wordpool_EN.txt	JET	5	3	n/a	n/a	pyFR	0	TJ036
465.46	2.689	926381	WORD	n/a	wordpools/wordpool_EN.txt	VEST	6	3	n/a	n/a	pyFR	0	TJ036
468.149	2.536	929070	WORD	n/a	wordpools/wordpool_EN.txt	TOAD	7	3	n/a	n/a	pyFR	0	TJ036
470.685	2.556	931606	WORD	n/a	wordpools/wordpool_EN.txt	HOOK	8	3	n/a	n/a	pyFR	0	TJ036
473.241	2.454	934162	WORD	n/a	wordpools/wordpool_EN.txt	WOOD	9	3	n/a	n/a	pyFR	0	TJ036
475.695	2.554	936616	WORD	n/a	wordpools/wordpool_EN.txt	CORN	10	3	n/a	n/a	pyFR	0	TJ036
478.249	2.671	939169	WORD	n/a	wordpools/wordpool_EN.txt	LEAF	11	3	n/a	n/a	pyFR	0	TJ036
480.92	2.821	941840	WORD	n/a	wordpools/wordpool_EN.txt	PEAR	12	3	n/a	n/a	pyFR	0	TJ036
483.741	2.689	944661	WORD	n/a	wordpools/wordpool_EN.txt	FLAME	13	3	n/a	n/a	pyFR	0	TJ036
486.43	2.704	947350	WORD	n/a	wordpools/wordpool_EN.txt	BANK	14	3	n/a	n/a	pyFR	0	TJ036
489.134	1.62	950054	WORD	n/a	wordpools/wordpool_EN.txt	RAKE	15	3	n/a	n/a	pyFR	0	TJ036
490.754	1.084	n/a	START	n/a	n/a	n/a	n/a	3	[-999 -999 -999]	-999	pyFR	0	TJ036
491.838	7.779	n/a	PROB	n/a	n/a	n/a	n/a	3	[9 4 7]	20	pyFR	0	TJ036
499.617	10.268	n/a	PROB	n/a	n/a	n/a	n/a	3	[6 2 8]	16	pyFR	0	TJ036
509.885	4.032	n/a	PROB	n/a	n/a	n/a	n/a	3	[3 6 4]	13	pyFR	0	TJ036
513.917	1.195	n/a	STOP	n/a	n/a	n/a	n/a	3	[-999 -999 -999]	-999	pyFR	0	TJ036
515.112	1.669	976031	REC_START	n/a	n/a	n/a	-999	3	n/a	n/a	pyFR	0	TJ036
516.781	0.743	977700	REC_WORD	0.743	n/a	FROG	-999	3	n/a	n/a	pyFR	0	TJ036
517.524	0.717	978443	REC_WORD	0.717	n/a	TOAD	-999	3	n/a	n/a	pyFR	0	TJ036
518.241	1.355	979160	REC_WORD	1.355	n/a	VEST	-999	3	n/a	n/a	pyFR	0	TJ036
519.596	2.387	980515	REC_WORD	2.387	n/a	PEAR	-999	3	n/a	n/a	pyFR	0	TJ036
521.983	1.48	982902	REC_WORD	1.48	n/a	HOOK	-999	3	n/a	n/a	pyFR	0	TJ036
523.463	28.419	984382	REC_WORD	28.419	n/a	JET	-999	3	n/a	n/a	pyFR	0	TJ036
551.882	10.109	1012800	REC_WORD	10.109	n/a	<>	-999	3	n/a	n/a	pyFR	0	TJ036
561.991	0.016	1022908	TRIAL	n/a	n/a	n/a	-999	4	n/a	n/a	pyFR	0	TJ036
562.007	2.72	1022924	ORIENT	n/a	n/a	n/a	-999	4	n/a	n/a	pyFR	0	TJ036
564.727	2.455	1025644	WORD	n/a	wordpools/wordpool_EN.txt	LOCK	1	4	n/a	n/a	pyFR	0	TJ036
567.182	2.47	1028099	WORD	n/a	wordpools/wordpool_EN.txt	COUCH	2	4	n/a	n/a	pyFR	0	TJ036
569.652	2.722	1030569	WORD	n/a	wordpools/wordpool_EN.txt	DRUM	3	4	n/a	n/a	pyFR	0	TJ036
572.374	2.638	1033291	WORD	n/a	wordpools/wordpool_EN.txt	SLUSH	4	4	n/a	n/a	pyFR	0	TJ036
575.012	2.637	1035929	WORD	n/a	wordpools/wordpool_EN.txt	SOUP	5	4	n/a	n/a	pyFR	0	TJ036
577.649	2.438	1038566	WORD	n/a	wordpools/wordpool_EN.txt	DESK	6	4	n/a	n/a	pyFR	0	TJ036
580.087	2.804	1041004	WORD	n/a	wordpools/wordpool_EN.txt	BAG	7	4	n/a	n/a	pyFR	0	TJ036
582.891	2.721	1043807	WORD	n/a	wordpools/wordpool_EN.txt	WEB	8	4	n/a	n/a	pyFR	0	TJ036
585.612	2.606	1046528	WORD	n/a	wordpools/wordpool_EN.txt	FACE	9	4	n/a	n/a	pyFR	0	TJ036
588.218	2.469	1049134	WORD	n/a	wordpools/wordpool_EN.txt	FARM	10	4	n/a	n/a	pyFR	0	TJ036
590.687	2.539	1051603	WORD	n/a	wordpools/wordpool_EN.txt	VASE	11	4	n/a	n/a	pyFR	0	TJ036
593.226	2.788	1054142	WORD	n/a	wordpools/wordpool_EN.txt	FILM	12	4	n/a	n/a	pyFR	0	TJ036
596.014	2.637	1056930	WORD	n/a	wordpools/wordpool_EN.txt	HOOF	13	4	n/a	n/a	pyFR	0	TJ036
598.651	2.672	1059567	WORD	n/a	wordpools/wordpool_EN.txt	HEN	14	4	n/a	n/a	pyFR	0	TJ036
601.323	1.621	1062239	WORD	n/a	wordpools/wordpool_EN.txt	CLOCK	15	4	n/a	n/a	pyFR	0	TJ036
602.944	0.832	n/a	START	n/a	n/a	n/a	n/a	4	[-999 -999 -999]	-999	pyFR	0	TJ036
603.776	4.175	n/a	PROB	n/a	n/a	n/a	n/a	4	[4 3 2]	9	pyFR	0	TJ036
607.951	2.937	n/a	PROB	n/a	n/a	n/a	n/a	4	[2 4 1]	7	pyFR	0	TJ036
610.888	5.126	n/a	PROB	n/a	n/a	n/a	n/a	4	[1 5 9]	15	pyFR	0	TJ036
616.014	2.787	n/a	PROB	n/a	n/a	n/a	n/a	4	[2 1 5]	8	pyFR	0	TJ036
618.801	3.34	n/a	PROB	n/a	n/a	n/a	n/a	4	[8 3 2]	13	pyFR	0	TJ036
622.141	2.92	n/a	PROB	n/a	n/a	n/a	n/a	4	[6 2 1]	9	pyFR	0	TJ036
625.061	1.238	n/a	STOP	n/a	n/a	n/a	n/a	4	[-999 -999 -999]	-999	pyFR	0	TJ036
626.299	2.492	1087214	REC_START	n/a	n/a	n/a	-999	4	n/a	n/a	pyFR	0	TJ036
628.791	2.713	1089706	REC_WORD	2.713	n/a	WEB	-999	4	n/a	n/a	pyFR	0	TJ036
631.504	3.359	1092418	REC_WORD	3.359	n/a	DRUM	-999	4	n/a	n/a	pyFR	0	TJ036
634.863	1.0	1095777	REC_WORD	1.0	n/a	COUCH	-999	4	n/a	n/a	pyFR	0	TJ036
635.863	2.802	1096777	REC_WORD	2.802	n/a	<>	-999	4	n/a	n/a	pyFR	0	TJ036
638.665	1.0	1099579	REC_WORD	1.0	n/a	FACE	-999	4	n/a	n/a	pyFR	0	TJ036
639.665	2.369	1100579	REC_WORD	2.369	n/a	<>	-999	4	n/a	n/a	pyFR	0	TJ036
642.034	8.533	1102948	REC_WORD	8.533	n/a	FARM	-999	4	n/a	n/a	pyFR	0	TJ036
650.567	22.36	1111481	REC_WORD	22.36	n/a	LOCK	-999	4	n/a	n/a	pyFR	0	TJ036
672.927	0.017	1133840	TRIAL	n/a	n/a	n/a	-999	5	n/a	n/a	pyFR	0	TJ036
672.944	2.938	1133857	ORIENT	n/a	n/a	n/a	-999	5	n/a	n/a	pyFR	0	TJ036
675.882	2.554	1136795	WORD	n/a	wordpools/wordpool_EN.txt	FENCE	1	5	n/a	n/a	pyFR	0	TJ036
678.436	2.655	1139349	WORD	n/a	wordpools/wordpool_EN.txt	BLUSH	2	5	n/a	n/a	pyFR	0	TJ036
681.091	2.503	1142004	WORD	n/a	wordpools/wordpool_EN.txt	BROOM	3	5	n/a	n/a	pyFR	0	TJ036
683.594	2.806	1144506	WORD	n/a	wordpools/wordpool_EN.txt	BEAK	4	5	n/a	n/a	pyFR	0	TJ036
686.4	2.687	1147312	WORD	n/a	wordpools/wordpool_EN.txt	WORM	5	5	n/a	n/a	pyFR	0	TJ036
689.087	2.788	1149999	WORD	n/a	wordpools/wordpool_EN.txt	BLOOM	6	5	n/a	n/a	pyFR	0	TJ036
691.875	2.555	1152787	WORD	n/a	wordpools/wordpool_EN.txt	PIT	7	5	n/a	n/a	pyFR	0	TJ036
694.43	2.587	1155342	WORD	n/a	wordpools/wordpool_EN.txt	OWL	8	5	n/a	n/a	pyFR	0	TJ036
697.017	2.671	1157929	WORD	n/a	wordpools/wordpool_EN.txt	VINE	9	5	n/a	n/a	pyFR	0	TJ036
699.688	2.638	1160600	WORD	n/a	wordpools/wordpool_EN.txt	STREET	10	5	n/a	n/a	pyFR	0	TJ036
702.326	2.605	1163238	WORD	n/a	wordpools/wordpool_EN.txt	ARK	11	5	n/a	n/a	pyFR	0	TJ036
704.931	2.637	1165843	WORD	n/a	wordpools/wordpool_EN.txt	WAVE	12	5	n/a	n/a	pyFR	0	TJ036
707.568	2.822	1168480	WORD	n/a	wordpools/wordpool_EN.txt	FOOD	13	5	n/a	n/a	pyFR	0	TJ036
710.39	2.637	1171301	WORD	n/a	wordpools/wordpool_EN.txt	ROOT	14	5	n/a	n/a	pyFR	0	TJ036
713.027	1.62	1173938	WORD	n/a	wordpools/wordpool_EN.txt	BOMB	15	5	n/a	n/a	pyFR	0	TJ036
714.647	1.051	n/a	START	n/a	n/a	n/a	n/a	5	[-999 -999 -999]	-999	pyFR	0	TJ036
715.698	4.325	n/a	PROB	n/a	n/a	n/a	n/a	5	[3 3 4]	10	pyFR	0	TJ036
720.023	4.323	n/a	PROB	n/a	n/a	n/a	n/a	5	[8 1 5]	14	pyFR	0	TJ036
724.346	7.362	n/a	PROB	n/a	n/a	n/a	n/a	5	[9 5 7]	21	pyFR	0	TJ036
731.708	5.92	n/a	PROB	n/a	n/a	n/a	n/a	5	[1 3 6]	10	pyFR	0	TJ036
737.628	1.159	n/a	STOP	n/a	n/a	n/a	n/a	5	[-999 -999 -999]	-999	pyFR	0	TJ036
738.787	5.971	1199697	REC_START	n/a	n/a	n/a	-999	5	n/a	n/a	pyFR	0	TJ036
744.758	1.691	1205668	REC_WORD	1.691	n/a	WORM	-999	5	n/a	n/a	pyFR	0	TJ036
746.449	1.82	1207359	REC_WORD	1.82	n/a	PIT	-999	5	n/a	n/a	pyFR	0	TJ036
748.269	1.648	1209179	REC_WORD	1.648	n/a	ARK	-999	5	n/a	n/a	pyFR	0	TJ036
749.917	4.339	1210827	REC_WORD	4.339	n/a	BOMB	-999	5	n/a	n/a	pyFR	0	TJ036
754.256	3.475	1215166	REC_WORD	3.475	n/a	COCK	-999	5	n/a	n/a	pyFR	0	TJ036
757.731	1.0	1218641	REC_WORD	1.0	n/a	<>	-999	5	n/a	n/a	pyFR	0	TJ036
758.731	3.366	1219641	REC_WORD	3.366	n/a	<>	-999	5	n/a	n/a	pyFR	0	TJ036
762.097	1.0	1223006	REC_WORD	1.0	n/a	BLOSSOM	-999	5	n/a	n/a	pyFR	0	TJ036
763.097	3.732	1224006	REC_WORD	3.732	n/a	<>	-999	5	n/a	n/a	pyFR	0	TJ036
766.829	4.48	1227738	REC_WORD	4.48	n/a	BROOM	-999	5	n/a	n/a	pyFR	0	TJ036
771.309	21.904	1232218	REC_WORD	21.904	n/a	FENCE	-999	5	n/a	n/a	pyFR	0	TJ036
793.213	0.016	1254121	TRIAL	n/a	n/a	n/a	-999	6	n/a	n/a	pyFR	0	TJ036
793.229	2.738	1254137	ORIENT	n/a	n/a	n/a	-999	6	n/a	n/a	pyFR	0	TJ036
795.967	2.737	1256875	WORD	n/a	wordpools/wordpool_EN.txt	GRASS	1	6	n/a	n/a	pyFR	0	TJ036
798.704	2.689	1259612	WORD	n/a	wordpools/wordpool_EN.txt	NAIL	2	6	n/a	n/a	pyFR	0	TJ036
801.393	2.571	1262301	WORD	n/a	wordpools/wordpool_EN.txt	TOY	3	6	n/a	n/a	pyFR	0	TJ036
803.964	2.654	1264872	WORD	n/a	wordpools/wordpool_EN.txt	INK	4	6	n/a	n/a	pyFR	0	TJ036
806.618	2.555	1267526	WORD	n/a	wordpools/wordpool_EN.txt	CUP	5	6	n/a	n/a	pyFR	0	TJ036
809.173	2.453	1270081	WORD	n/a	wordpools/wordpool_EN.txt	SNOW	6	6	n/a	n/a	pyFR	0	TJ036
811.626	2.789	1272533	WORD	n/a	wordpools/wordpool_EN.txt	EEL	7	6	n/a	n/a	pyFR	0	TJ036
814.415	2.754	1275322	WORD	n/a	wordpools/wordpool_EN.txt	SMILE	8	6	n/a	n/a	pyFR	0	TJ036
817.169	2.537	1278076	WORD	n/a	wordpools/wordpool_EN.txt	BRUSH	9	6	n/a	n/a	pyFR	0	TJ036
819.706	2.589	1280613	WORD	n/a	wordpools/wordpool_EN.txt	SPARK	10	6	n/a	n/a	pyFR	0	TJ036
822.295	2.755	1283202	WORD	n/a	wordpools/wordpool_EN.txt	BATH	11	6	n/a	n/a	pyFR	0	TJ036
825.05	2.82	1285957	WORD	n/a	wordpools/wordpool_EN.txt	GLOVE	12	6	n/a	n/a	pyFR	0	TJ036
827.87	2.505	1288777	WORD	n/a	wordpools/wordpool_EN.txt	BELL	13	6	n/a	n/a	pyFR	0	TJ036
830.375	2.555	1291282	WORD	n/a	wordpools/wordpool_EN.txt	STORM	14	6	n/a	n/a	pyFR	0	TJ036
832.93	1.619	1293837	WORD	n/a	wordpools/wordpool_EN.txt	CARD	15	6	n/a	n/a	pyFR	0	TJ036
834.549	0.967	n/a	START	n/a	n/a	n/a	n/a	6	[-999 -999 -999]	-999	pyFR	0	TJ036
835.516	5.192	n/a	PROB	n/a	n/a	n/a	n/a	6	[8 1 5]	14	pyFR	0	TJ036
840.708	5.594	n/a	PROB	n/a	n/a	n/a	n/a	6	[6 1 6]	13	pyFR	0	TJ036
846.302	4.724	n/a	PROB	n/a	n/a	n/a	n/a	6	[7 9 7]	23	pyFR	0	TJ036
851.026	6.187	n/a	PROB	n/a	n/a	n/a	n/a	6	[4 8 3]	15	pyFR	0	TJ036
857.213	1.177	n/a	STOP	n/a	n/a	n/a	n/a	6	[-999 -999 -999]	-999	pyFR	0	TJ036
858.39	4.547	1319296	REC_START	n/a	n/a	n/a	-999	6	n/a	n/a	pyFR	0	TJ036
862.937	1.248	1323842	REC_WORD	1.248	n/a	INK	-999	6	n/a	n/a	pyFR	0	TJ036
864.185	1.0	1325090	REC_WORD	1.0	n/a	GRASS	-999	6	n/a	n/a	pyFR	0	TJ036
865.185	1.754	1326090	REC_WORD	1.754	n/a	<>	-999	6	n/a	n/a	pyFR	0	TJ036
866.939	38.446	1327844	REC_WORD	38.446	n/a	TOY	-999	6	n/a	n/a	pyFR	0	TJ036
905.385	0.016	1366289	TRIAL	n/a	n/a	n/a	-999	7	n/a	n/a	pyFR	0	TJ036
905.401	2.638	1366305	ORIENT	n/a	n/a	n/a	-999	7	n/a	n/a	pyFR	0	TJ036
908.039	2.57	1368943	WORD	n/a	wordpools/wordpool_EN.txt	QUEEN	1	7	n/a	n/a	pyFR	0	TJ036
910.609	2.756	1371513	WORD	n/a	wordpools/wordpool_EN.txt	BIRD	2	7	n/a	n/a	pyFR	0	TJ036
913.365	2.486	1374268	WORD	n/a	wordpools/wordpool_EN.txt	HORSE	3	7	n/a	n/a	pyFR	0	TJ036
915.851	2.539	1376754	WORD	n/a	wordpools/wordpool_EN.txt	PEN	4	7	n/a	n/a	pyFR	0	TJ036
918.39	2.453	1379293	WORD	n/a	wordpools/wordpool_EN.txt	MOTH	5	7	n/a	n/a	pyFR	0	TJ036
920.843	2.822	1381746	WORD	n/a	wordpools/wordpool_EN.txt	JAIL	6	7	n/a	n/a	pyFR	0	TJ036
923.665	2.505	1384568	WORD	n/a	wordpools/wordpool_EN.txt	BEE	7	7	n/a	n/a	pyFR	0	TJ036
926.17	2.788	1387073	WORD	n/a	wordpools/wordpool_EN.txt	THREAD	8	7	n/a	n/a	pyFR	0	TJ036
928.958	2.62	1389861	WORD	n/a	wordpools/wordpool_EN.txt	CROWN	9	7	n/a	n/a	pyFR	0	TJ036
931.578	2.522	1392481	WORD	n/a	wordpools/wordpool_EN.txt	BOAT	10	7	n/a	n/a	pyFR	0	TJ036
934.1	2.653	1395003	WORD	n/a	wordpools/wordpool_EN.txt	ROAD	11	7	n/a	n/a	pyFR	0	TJ036
936.753	2.639	1397656	WORD	n/a	wordpools/wordpool_EN.txt	STEM	12	7	n/a	n/a	pyFR	0	TJ036
939.392	2.437	1400294	WORD	n/a	wordpools/wordpool_EN.txt	LIP	13	7	n/a	n/a	pyFR	0	TJ036
941.829	2.538	1402731	WORD	n/a	wordpools/wordpool_EN.txt	SEAT	14	7	n/a	n/a	pyFR	0	TJ036
944.367	1.621	1405269	WORD	n/a	wordpools/wordpool_EN.txt	SHIP	15	7	n/a	n/a	pyFR	0	TJ036
945.988	1.084	n/a	START	n/a	n/a	n/a	n/a	7	[-999 -999 -999]	-999	pyFR	0	TJ036
947.072	6.61	n/a	PROB	n/a	n/a	n/a	n/a	7	[3 2 8]	13	pyFR	0	TJ036
953.682	4.774	n/a	PROB	n/a	n/a	n/a	n/a	7	[3 1 5]	9	pyFR	0	TJ036
958.456	10.948	n/a	PROB	n/a	n/a	n/a	n/a	7	[4 7 9]	20	pyFR	0	TJ036
969.404	1.24	n/a	STOP	n/a	n/a	n/a	n/a	7	[-999 -999 -999]	-999	pyFR	0	TJ036
970.644	3.706	1431545	REC_START	n/a	n/a	n/a	-999	7	n/a	n/a	pyFR	0	TJ036
974.35	3.187	1435251	REC_WORD	3.187	n/a	QUEEN	-999	7	n/a	n/a	pyFR	0	TJ036
977.537	1.0	1438438	REC_WORD	1.0	n/a	HORSE	-999	7	n/a	n/a	pyFR	0	TJ036
978.537	0.789	1439438	REC_WORD	0.789	n/a	<>	-999	7	n/a	n/a	pyFR	0	TJ036
979.326	1.419	1440227	REC_WORD	1.419	n/a	BEE	-999	7	n/a	n/a	pyFR	0	TJ036
980.745	11.161	1441646	REC_WORD	11.161	n/a	THREAD	-999	7	n/a	n/a	pyFR	0	TJ036
991.906	5.335	1452806	REC_WORD	5.335	n/a	ROAD	-999	7	n/a	n/a	pyFR	0	TJ036
997.241	20.449	1458141	REC_WORD	20.449	n/a	SHIP	-999	7	n/a	n/a	pyFR	0	TJ036
1017.69	0.016	1478589	TRIAL	n/a	n/a	n/a	-999	8	n/a	n/a	pyFR	0	TJ036
1017.706	2.64	1478605	ORIENT	n/a	n/a	n/a	-999	8	n/a	n/a	pyFR	0	TJ036
1020.346	2.787	1481245	WORD	n/a	wordpools/wordpool_EN.txt	JAR	1	8	n/a	n/a	pyFR	0	TJ036
1023.133	2.771	1484032	WORD	n/a	wordpools/wordpool_EN.txt	PLATE	2	8	n/a	n/a	pyFR	0	TJ036
1025.904	2.471	1486803	WORD	n/a	wordpools/wordpool_EN.txt	RIB	3	8	n/a	n/a	pyFR	0	TJ036
1028.375	2.788	1489274	WORD	n/a	wordpools/wordpool_EN.txt	DOLL	4	8	n/a	n/a	pyFR	0	TJ036
1031.163	2.604	1492062	WORD	n/a	wordpools/wordpool_EN.txt	DITCH	5	8	n/a	n/a	pyFR	0	TJ036
1033.767	2.555	1494666	WORD	n/a	wordpools/wordpool_EN.txt	CALF	6	8	n/a	n/a	pyFR	0	TJ036
1036.322	2.704	1497221	WORD	n/a	wordpools/wordpool_EN.txt	NOSE	7	8	n/a	n/a	pyFR	0	TJ036
1039.026	2.537	1499925	WORD	n/a	wordpools/wordpool_EN.txt	CHAIR	8	8	n/a	n/a	pyFR	0	TJ036
1041.563	2.522	1502461	WORD	n/a	wordpools/wordpool_EN.txt	MAP	9	8	n/a	n/a	pyFR	0	TJ036
1044.085	2.754	1504983	WORD	n/a	wordpools/wordpool_EN.txt	SEED	10	8	n/a	n/a	pyFR	0	TJ036
1046.839	2.771	1507737	WORD	n/a	wordpools/wordpool_EN.txt	PIG	11	8	n/a	n/a	pyFR	0	TJ036
1049.61	2.756	1510508	WORD	n/a	wordpools/wordpool_EN.txt	CAPE	12	8	n/a	n/a	pyFR	0	TJ036
1052.366	2.452	1513264	WORD	n/a	wordpools/wordpool_EN.txt	DRESS	13	8	n/a	n/a	pyFR	0	TJ036
1054.818	2.806	1515716	WORD	n/a	wordpools/wordpool_EN.txt	SLEEVE	14	8	n/a	n/a	pyFR	0	TJ036
1057.624	1.621	1518522	WORD	n/a	wordpools/wordpool_EN.txt	MAZE	15	8	n/a	n/a	pyFR	0	TJ036
1059.245	0.95	n/a	START	n/a	n/a	n/a	n/a	8	[-999 -999 -999]	-999	pyFR	0	TJ036
1060.195	5.375	n/a	PROB	n/a	n/a	n/a	n/a	8	[1 8 1]	10	pyFR	0	TJ036
1065.57	4.19	n/a	PROB	n/a	n/a	n/a	n/a	8	[7 3 1]	11	pyFR	0	TJ036
1069.76	7.347	n/a	PROB	n/a	n/a	n/a	n/a	8	[8 1 7]	16	pyFR	0	TJ036
1077.107	6.416	n/a	PROB	n/a	n/a	n/a	n/a	8	[1 3 1]	5	pyFR	0	TJ036
1083.523	1.147	n/a	STOP	n/a	n/a	n/a	n/a	8	[-999 -999 -999]	-999	pyFR	0	TJ036
1084.67	2.556	1545567	REC_START	n/a	n/a	n/a	-999	8	n/a	n/a	pyFR	0	TJ036
1087.226	1.373	1548123	REC_WORD	1.373	n/a	RIB	-999	8	n/a	n/a	pyFR	0	TJ036
1088.599	0.689	1549496	REC_WORD	0.689	n/a	CAPE	-999	8	n/a	n/a	pyFR	0	TJ036
1089.288	0.737	1550185	REC_WORD	0.737	n/a	DRESS	-999	8	n/a	n/a	pyFR	0	TJ036
1090.025	0.696	1550922	REC_WORD	0.696	n/a	JAR	-999	8	n/a	n/a	pyFR	0	TJ036
1090.721	2.345	1551618	REC_WORD	2.345	n/a	PLATE	-999	8	n/a	n/a	pyFR	0	TJ036
1093.066	41.471	1553962	REC_WORD	41.471	n/a	CALF	-999	8	n/a	n/a	pyFR	0	TJ036
1134.537	0.016	1595432	TRIAL	n/a	n/a	n/a	-999	9	n/a	n/a	pyFR	0	TJ036
1134.553	2.789	1595448	ORIENT	n/a	n/a	n/a	-999	9	n/a	n/a	pyFR	0	TJ036
1137.342	2.804	1598237	WORD	n/a	wordpools/wordpool_EN.txt	GIRL	1	9	n/a	n/a	pyFR	0	TJ036
1140.146	2.688	1601041	WORD	n/a	wordpools/wordpool_EN.txt	MOLE	2	9	n/a	n/a	pyFR	0	TJ036
1142.834	2.588	1603728	WORD	n/a	wordpools/wordpool_EN.txt	BEAR	3	9	n/a	n/a	pyFR	0	TJ036
1145.422	2.605	1606316	WORD	n/a	wordpools/wordpool_EN.txt	OAR	4	9	n/a	n/a	pyFR	0	TJ036
1148.027	2.736	1608921	WORD	n/a	wordpools/wordpool_EN.txt	BEAN	5	9	n/a	n/a	pyFR	0	TJ036
1150.763	2.472	1611657	WORD	n/a	wordpools/wordpool_EN.txt	SOCK	6	9	n/a	n/a	pyFR	0	TJ036
1153.235	2.52	1614129	WORD	n/a	wordpools/wordpool_EN.txt	TOE	7	9	n/a	n/a	pyFR	0	TJ036
1155.755	2.422	1616649	WORD	n/a	wordpools/wordpool_EN.txt	PIPE	8	9	n/a	n/a	pyFR	0	TJ036
1158.177	2.737	1619071	WORD	n/a	wordpools/wordpool_EN.txt	COIN	9	9	n/a	n/a	pyFR	0	TJ036
1160.914	2.571	1621808	WORD	n/a	wordpools/wordpool_EN.txt	CROW	10	9	n/a	n/a	pyFR	0	TJ036
1163.485	2.756	1624379	WORD	n/a	wordpools/wordpool_EN.txt	SUIT	11	9	n/a	n/a	pyFR	0	TJ036
1166.241	2.636	1627135	WORD	n/a	wordpools/wordpool_EN.txt	FOG	12	9	n/a	n/a	pyFR	0	TJ036
1168.877	2.805	1629770	WORD	n/a	wordpools/wordpool_EN.txt	ICE	13	9	n/a	n/a	pyFR	0	TJ036
1171.682	2.505	1632575	WORD	n/a	wordpools/wordpool_EN.txt	PEA	14	9	n/a	n/a	pyFR	0	TJ036
1174.187	1.62	1635080	WORD	n/a	wordpools/wordpool_EN.txt	SUN	15	9	n/a	n/a	pyFR	0	TJ036
1175.807	1.118	n/a	START	n/a	n/a	n/a	n/a	9	[-999 -999 -999]	-999	pyFR	0	TJ036
1176.925	9.349	n/a	PROB	n/a	n/a	n/a	n/a	9	[3 2 8]	13	pyFR	0	TJ036
1186.274	13.099	n/a	PROB	n/a	n/a	n/a	n/a	9	[9 5 8]	22	pyFR	0	TJ036
1199.373	1.175	n/a	STOP	n/a	n/a	n/a	n/a	9	[-999 -999 -999]	-999	pyFR	0	TJ036
1200.548	6.183	1661440	REC_START	n/a	n/a	n/a	-999	9	n/a	n/a	pyFR	0	TJ036
1206.731	2.042	1667623	REC_WORD	2.042	n/a	SOCK	-999	9	n/a	n/a	pyFR	0	TJ036
1208.773	3.249	1669665	REC_WORD	3.249	n/a	BEAN	-999	9	n/a	n/a	pyFR	0	TJ036
1212.022	2.504	1672914	REC_WORD	2.504	n/a	TOE	-999	9	n/a	n/a	pyFR	0	TJ036
1214.526	1.013	1675418	REC_WORD	1.013	n/a	PIPE	-999	9	n/a	n/a	pyFR	0	TJ036
1215.539	3.139	1676431	REC_WORD	3.139	n/a	COIN	-999	9	n/a	n/a	pyFR	0	TJ036
1218.678	30.117	1679570	REC_WORD	30.117	n/a	SUN	-999	9	n/a	n/a	pyFR	0	TJ036
1248.795	0.017	1709685	TRIAL	n/a	n/a	n/a	-999	10	n/a	n/a	pyFR	0	TJ036
1248.812	2.922	1709702	ORIENT	n/a	n/a	n/a	-999	10	n/a	n/a	pyFR	0	TJ036
1251.734	2.455	1712624	WORD	n/a	wordpools/wordpool_EN.txt	TANK	1	10	n/a	n/a	pyFR	0	TJ036
1254.189	2.821	1715079	WORD	n/a	wordpools/wordpool_EN.txt	BENCH	2	10	n/a	n/a	pyFR	0	TJ036
1257.01	2.604	1717900	WORD	n/a	wordpools/wordpool_EN.txt	SHOE	3	10	n/a	n/a	pyFR	0	TJ036
1259.614	2.505	1720504	WORD	n/a	wordpools/wordpool_EN.txt	PLANE	4	10	n/a	n/a	pyFR	0	TJ036
1262.119	2.72	1723009	WORD	n/a	wordpools/wordpool_EN.txt	TEA	5	10	n/a	n/a	pyFR	0	TJ036
1264.839	2.539	1725729	WORD	n/a	wordpools/wordpool_EN.txt	GEESE	6	10	n/a	n/a	pyFR	0	TJ036
1267.378	2.721	1728268	WORD	n/a	wordpools/wordpool_EN.txt	CAT	7	10	n/a	n/a	pyFR	0	TJ036
1270.099	2.754	1730989	WORD	n/a	wordpools/wordpool_EN.txt	CAKE	8	10	n/a	n/a	pyFR	0	TJ036
1272.853	2.488	1733742	WORD	n/a	wordpools/wordpool_EN.txt	SPRING	9	10	n/a	n/a	pyFR	0	TJ036
1275.341	2.453	1736230	WORD	n/a	wordpools/wordpool_EN.txt	ARM	10	10	n/a	n/a	pyFR	0	TJ036
1277.794	2.671	1738683	WORD	n/a	wordpools/wordpool_EN.txt	COAT	11	10	n/a	n/a	pyFR	0	TJ036
1280.465	2.622	1741354	WORD	n/a	wordpools/wordpool_EN.txt	HAND	12	10	n/a	n/a	pyFR	0	TJ036
1283.087	2.437	1743976	WORD	n/a	wordpools/wordpool_EN.txt	ROOM	13	10	n/a	n/a	pyFR	0	TJ036
1285.524	2.672	1746413	WORD	n/a	wordpools/wordpool_EN.txt	FOX	14	10	n/a	n/a	pyFR	0	TJ036
1288.196	1.619	1749085	WORD	n/a	wordpools/wordpool_EN.txt	VAN	15	10	n/a	n/a	pyFR	0	TJ036
1289.815	1.084	n/a	START	n/a	n/a	n/a	n/a	10	[-999 -999 -999]	-999	pyFR	0	TJ036
1290.899	7.447	n/a	PROB	n/a	n/a	n/a	n/a	10	[1 4 9]	14	pyFR	0	TJ036
1298.346	6.36	n/a	PROB	n/a	n/a	n/a	n/a	10	[2 7 8]	17	pyFR	0	TJ036
1304.706	5.738	n/a	PROB	n/a	n/a	n/a	n/a	10	[9 3 7]	16	pyFR	0	TJ036
1310.444	1.157	n/a	STOP	n/a	n/a	n/a	n/a	10	[-999 -999 -999]	-999	pyFR	0	TJ036
1311.601	5.163	1772489	REC_START	n/a	n/a	n/a	-999	10	n/a	n/a	pyFR	0	TJ036
1316.764	3.761	1777652	REC_WORD	3.761	n/a	ROOM	-999	10	n/a	n/a	pyFR	0	TJ036
1320.525	2.578	1781413	REC_WORD	2.578	n/a	TANK	-999	10	n/a	n/a	pyFR	0	TJ036
1323.103	0.756	1783990	REC_WORD	0.756	n/a	PLANE	-999	10	n/a	n/a	pyFR	0	TJ036
1323.859	1.0	1784746	REC_WORD	1.0	n/a	SPRING	-999	10	n/a	n/a	pyFR	0	TJ036
1324.859	1.527	1785746	REC_WORD	1.527	n/a	<>	-999	10	n/a	n/a	pyFR	0	TJ036
1326.386	4.233	1787273	REC_WORD	4.233	n/a	TEA	-999	10	n/a	n/a	pyFR	0	TJ036
1330.619	1.0	1791506	REC_WORD	1.0	n/a	GEESE	-999	10	n/a	n/a	pyFR	0	TJ036
1331.619	2.797	1792506	REC_WORD	2.797	n/a	<>	-999	10	n/a	n/a	pyFR	0	TJ036
1334.416	3.247	1795303	REC_WORD	3.247	n/a	VAN	-999	10	n/a	n/a	pyFR	0	TJ036
1337.663	1.205	1798550	REC_WORD	1.205	n/a	ARM	-999	10	n/a	n/a	pyFR	0	TJ036
1338.868	2.28	1799755	REC_WORD	2.28	n/a	HAND	-999	10	n/a	n/a	pyFR	0	TJ036
1341.148	16.414	1802035	REC_WORD	16.414	n/a	JACKET	-999	10	n/a	n/a	pyFR	0	TJ036
1357.562	0.016	1818448	TRIAL	n/a	n/a	n/a	-999	11	n/a	n/a	pyFR	0	TJ036
1357.578	2.756	1818464	ORIENT	n/a	n/a	n/a	-999	11	n/a	n/a	pyFR	0	TJ036
1360.334	2.771	1821220	WORD	n/a	wordpools/wordpool_EN.txt	DUCK	1	11	n/a	n/a	pyFR	0	TJ036
1363.105	2.687	1823991	WORD	n/a	wordpools/wordpool_EN.txt	BOWL	2	11	n/a	n/a	pyFR	0	TJ036
1365.792	2.688	1826678	WORD	n/a	wordpools/wordpool_EN.txt	ZOO	3	11	n/a	n/a	pyFR	0	TJ036
1368.48	2.505	1829366	WORD	n/a	wordpools/wordpool_EN.txt	ROSE	4	11	n/a	n/a	pyFR	0	TJ036
1370.985	2.487	1831871	WORD	n/a	wordpools/wordpool_EN.txt	EAR	5	11	n/a	n/a	pyFR	0	TJ036
1373.472	2.455	1834357	WORD	n/a	wordpools/wordpool_EN.txt	SHELL	6	11	n/a	n/a	pyFR	0	TJ036
1375.927	2.488	1836812	WORD	n/a	wordpools/wordpool_EN.txt	JEEP	7	11	n/a	n/a	pyFR	0	TJ036
1378.415	2.637	1839300	WORD	n/a	wordpools/wordpool_EN.txt	SEA	8	11	n/a	n/a	pyFR	0	TJ036
1381.052	2.437	1841937	WORD	n/a	wordpools/wordpool_EN.txt	TREE	9	11	n/a	n/a	pyFR	0	TJ036
1383.489	2.572	1844374	WORD	n/a	wordpools/wordpool_EN.txt	SALT	10	11	n/a	n/a	pyFR	0	TJ036
1386.061	2.436	1846946	WORD	n/a	wordpools/wordpool_EN.txt	PALM	11	11	n/a	n/a	pyFR	0	TJ036
1388.497	2.739	1849382	WORD	n/a	wordpools/wordpool_EN.txt	GLASS	12	11	n/a	n/a	pyFR	0	TJ036
1391.236	2.755	1852121	WORD	n/a	wordpools/wordpool_EN.txt	TAPE	13	11	n/a	n/a	pyFR	0	TJ036
1393.991	2.57	1854876	WORD	n/a	wordpools/wordpool_EN.txt	POND	14	11	n/a	n/a	pyFR	0	TJ036
1396.561	1.621	1857446	WORD	n/a	wordpools/wordpool_EN.txt	STOVE	15	11	n/a	n/a	pyFR	0	TJ036
1398.182	0.984	n/a	START	n/a	n/a	n/a	n/a	11	[-999 -999 -999]	-999	pyFR	0	TJ036
1399.166	3.956	n/a	PROB	n/a	n/a	n/a	n/a	11	[1 6 2]	9	pyFR	0	TJ036
1403.122	3.389	n/a	PROB	n/a	n/a	n/a	n/a	11	[9 3 9]	21	pyFR	0	TJ036
1406.511	7.546	n/a	PROB	n/a	n/a	n/a	n/a	11	[7 2 4]	13	pyFR	0	TJ036
1414.057	11.092	n/a	PROB	n/a	n/a	n/a	n/a	11	[5 3 7]	15	pyFR	0	TJ036
1425.149	1.213	n/a	STOP	n/a	n/a	n/a	n/a	11	[-999 -999 -999]	-999	pyFR	0	TJ036
1426.362	1.993	1887245	REC_START	n/a	n/a	n/a	-999	11	n/a	n/a	pyFR	0	TJ036
1428.355	1.42	1889238	REC_WORD	1.42	n/a	DUCK	-999	11	n/a	n/a	pyFR	0	TJ036
1429.775	1.962	1890658	REC_WORD	1.962	n/a	EAR	-999	11	n/a	n/a	pyFR	0	TJ036
1431.737	1.0	1892620	REC_WORD	1.0	n/a	SALT	-999	11	n/a	n/a	pyFR	0	TJ036
1432.737	1.463	1893620	REC_WORD	1.463	n/a	<>	-999	11	n/a	n/a	pyFR	0	TJ036
1434.2	1.0	1895083	REC_WORD	1.0	n/a	BOWL	-999	11	n/a	n/a	pyFR	0	TJ036
1435.2	15.031	1896083	REC_WORD	15.031	n/a	<>	-999	11	n/a	n/a	pyFR	0	TJ036
1450.231	23.043	1911113	REC_WORD	23.043	n/a	CORN	-999	11	n/a	n/a	pyFR	0	TJ036
1473.274	0.017	1934156	TRIAL	n/a	n/a	n/a	-999	12	n/a	n/a	pyFR	0	TJ036
1473.291	2.955	1934173	ORIENT	n/a	n/a	n/a	-999	12	n/a	n/a	pyFR	0	TJ036
1476.246	2.436	1937127	WORD	n/a	wordpools/wordpool_EN.txt	MAT	1	12	n/a	n/a	pyFR	0	TJ036
1478.682	2.572	1939563	WORD	n/a	wordpools/wordpool_EN.txt	WING	2	12	n/a	n/a	pyFR	0	TJ036
1481.254	2.772	1942135	WORD	n/a	wordpools/wordpool_EN.txt	TOOL	3	12	n/a	n/a	pyFR	0	TJ036
1484.026	2.47	1944907	WORD	n/a	wordpools/wordpool_EN.txt	STICK	4	12	n/a	n/a	pyFR	0	TJ036
1486.496	2.638	1947377	WORD	n/a	wordpools/wordpool_EN.txt	SAIL	5	12	n/a	n/a	pyFR	0	TJ036
1489.134	2.453	1950015	WORD	n/a	wordpools/wordpool_EN.txt	MOOSE	6	12	n/a	n/a	pyFR	0	TJ036
1491.587	2.706	1952468	WORD	n/a	wordpools/wordpool_EN.txt	BOX	7	12	n/a	n/a	pyFR	0	TJ036
1494.293	2.537	1955174	WORD	n/a	wordpools/wordpool_EN.txt	SPONGE	8	12	n/a	n/a	pyFR	0	TJ036
1496.83	2.488	1957711	WORD	n/a	wordpools/wordpool_EN.txt	DAD	9	12	n/a	n/a	pyFR	0	TJ036
1499.318	2.47	1960199	WORD	n/a	wordpools/wordpool_EN.txt	FUR	10	12	n/a	n/a	pyFR	0	TJ036
1501.788	2.638	1962668	WORD	n/a	wordpools/wordpool_EN.txt	CRANE	11	12	n/a	n/a	pyFR	0	TJ036
1504.426	2.572	1965306	WORD	n/a	wordpools/wordpool_EN.txt	FOOT	12	12	n/a	n/a	pyFR	0	TJ036
1506.998	2.753	1967878	WORD	n/a	wordpools/wordpool_EN.txt	MUG	13	12	n/a	n/a	pyFR	0	TJ036
1509.751	2.771	1970631	WORD	n/a	wordpools/wordpool_EN.txt	CHIEF	14	12	n/a	n/a	pyFR	0	TJ036
1512.522	1.605	1973402	WORD	n/a	wordpools/wordpool_EN.txt	BEACH	15	12	n/a	n/a	pyFR	0	TJ036
1514.127	1.201	n/a	START	n/a	n/a	n/a	n/a	12	[-999 -999 -999]	-999	pyFR	0	TJ036
1515.328	4.742	n/a	PROB	n/a	n/a	n/a	n/a	12	[9 1 6]	16	pyFR	0	TJ036
1520.07	3.838	n/a	PROB	n/a	n/a	n/a	n/a	12	[4 1 2]	7	pyFR	0	TJ036
1523.908	4.775	n/a	PROB	n/a	n/a	n/a	n/a	12	[1 9 7]	17	pyFR	0	TJ036
1528.683	5.293	n/a	PROB	n/a	n/a	n/a	n/a	12	[1 6 3]	10	pyFR	0	TJ036
1533.976	4.492	n/a	PROB	n/a	n/a	n/a	n/a	12	[1 3 4]	8	pyFR	0	TJ036
1538.468	1.101	n/a	STOP	n/a	n/a	n/a	n/a	12	[-999 -999 -999]	-999	pyFR	0	TJ036
1539.569	2.259	2000448	REC_START	n/a	n/a	n/a	-999	12	n/a	n/a	pyFR	0	TJ036
1541.828	2.202	2002707	REC_WORD	2.202	n/a	MOOSE	-999	12	n/a	n/a	pyFR	0	TJ036
1544.03	15.144	2004909	REC_WORD	15.144	n/a	FUR	-999	12	n/a	n/a	pyFR	0	TJ036
1559.174	2.702	2020052	REC_WORD	2.702	n/a	MAT	-999	12	n/a	n/a	pyFR	0	TJ036
1561.876	0.688	2022754	REC_WORD	0.688	n/a	WING	-999	12	n/a	n/a	pyFR	0	TJ036
1562.564	3.346	2023442	REC_WORD	3.346	n/a	TOOL	-999	12	n/a	n/a	pyFR	0	TJ036
1565.91	4.034	2026788	REC_WORD	4.034	n/a	STICK	-999	12	n/a	n/a	pyFR	0	TJ036
1569.944	5.955	2030822	REC_WORD	5.955	n/a	BOX	-999	12	n/a	n/a	pyFR	0	TJ036
1575.899	6.175	2036777	REC_WORD	6.175	n/a	GROW	-999	12	n/a	n/a	pyFR	0	TJ036
1582.074	1.0	2042951	REC_WORD	1.0	n/a	MOOSE	-999	12	n/a	n/a	pyFR	0	TJ036
1583.074	5.144	2043951	REC_WORD	5.144	n/a	<>	-999	12	n/a	n/a	pyFR	0	TJ036
1588.218	0.016	2049095	TRIAL	n/a	n/a	n/a	-999	13	n/a	n/a	pyFR	0	TJ036
1588.234	2.805	2049111	ORIENT	n/a	n/a	n/a	-999	13	n/a	n/a	pyFR	0	TJ036
1591.039	2.637	2051916	WORD	n/a	wordpools/wordpool_EN.txt	SKY	1	13	n/a	n/a	pyFR	0	TJ036
1593.676	2.672	2054553	WORD	n/a	wordpools/wordpool_EN.txt	WALL	2	13	n/a	n/a	pyFR	0	TJ036
1596.348	2.503	2057225	WORD	n/a	wordpools/wordpool_EN.txt	ROPE	3	13	n/a	n/a	pyFR	0	TJ036
1598.851	2.788	2059728	WORD	n/a	wordpools/wordpool_EN.txt	FORT	4	13	n/a	n/a	pyFR	0	TJ036
1601.639	2.672	2062516	WORD	n/a	wordpools/wordpool_EN.txt	PARK	5	13	n/a	n/a	pyFR	0	TJ036
1604.311	2.688	2065187	WORD	n/a	wordpools/wordpool_EN.txt	WAND	6	13	n/a	n/a	pyFR	0	TJ036
1606.999	2.537	2067875	WORD	n/a	wordpools/wordpool_EN.txt	CAR	7	13	n/a	n/a	pyFR	0	TJ036
1609.536	2.739	2070412	WORD	n/a	wordpools/wordpool_EN.txt	SHRIMP	8	13	n/a	n/a	pyFR	0	TJ036
1612.275	2.503	2073151	WORD	n/a	wordpools/wordpool_EN.txt	SMOKE	9	13	n/a	n/a	pyFR	0	TJ036
1614.778	2.771	2075654	WORD	n/a	wordpools/wordpool_EN.txt	SIGN	10	13	n/a	n/a	pyFR	0	TJ036
1617.549	2.455	2078425	WORD	n/a	wordpools/wordpool_EN.txt	YARD	11	13	n/a	n/a	pyFR	0	TJ036
1620.004	2.47	2080880	WORD	n/a	wordpools/wordpool_EN.txt	RICE	12	13	n/a	n/a	pyFR	0	TJ036
1622.474	2.472	2083350	WORD	n/a	wordpools/wordpool_EN.txt	STORE	13	13	n/a	n/a	pyFR	0	TJ036
1624.946	2.704	2085822	WORD	n/a	wordpools/wordpool_EN.txt	SWAMP	14	13	n/a	n/a	pyFR	0	TJ036
1627.65	1.621	2088526	WORD	n/a	wordpools/wordpool_EN.txt	BALL	15	13	n/a	n/a	pyFR	0	TJ036
1629.271	0.984	n/a	START	n/a	n/a	n/a	n/a	13	[-999 -999 -999]	-999	pyFR	0	TJ036
1630.255	4.573	n/a	PROB	n/a	n/a	n/a	n/a	13	[1 2 3]	6	pyFR	0	TJ036
1634.828	3.106	n/a	PROB	n/a	n/a	n/a	n/a	13	[4 3 4]	11	pyFR	0	TJ036
1637.934	4.724	n/a	PROB	n/a	n/a	n/a	n/a	13	[4 9 5]	18	pyFR	0	TJ036
1642.658	2.722	n/a	PROB	n/a	n/a	n/a	n/a	13	[2 9 1]	12	pyFR	0	TJ036
1645.38	3.54	n/a	PROB	n/a	n/a	n/a	n/a	13	[2 4 4]	10	pyFR	0	TJ036
1648.92	3.029	n/a	PROB	n/a	n/a	n/a	n/a	13	[4 6 2]	12	pyFR	0	TJ036
1651.949	1.195	n/a	STOP	n/a	n/a	n/a	n/a	13	[-999 -999 -999]	-999	pyFR	0	TJ036
1653.144	1.53	2114019	REC_START	n/a	n/a	n/a	-999	13	n/a	n/a	pyFR	0	TJ036
1654.674	1.404	2115548	REC_WORD	1.404	n/a	FORT	-999	13	n/a	n/a	pyFR	0	TJ036
1656.078	1.236	2116952	REC_WORD	1.236	n/a	ROPE	-999	13	n/a	n/a	pyFR	0	TJ036
1657.314	2.374	2118188	REC_WORD	2.374	n/a	PARK	-999	13	n/a	n/a	pyFR	0	TJ036
1659.688	1.0	2120562	REC_WORD	1.0	n/a	WAND	-999	13	n/a	n/a	pyFR	0	TJ036
1660.688	2.975	2121562	REC_WORD	2.975	n/a	<>	-999	13	n/a	n/a	pyFR	0	TJ036
1663.663	1.489	2124537	REC_WORD	1.489	n/a	RICE	-999	13	n/a	n/a	pyFR	0	TJ036
1665.152	34.436	2126026	REC_WORD	34.436	n/a	STORE	-999	13	n/a	n/a	pyFR	0	TJ036
1699.588	0.016	2160461	TRIAL	n/a	n/a	n/a	-999	14	n/a	n/a	pyFR	0	TJ036
1699.604	2.739	2160477	ORIENT	n/a	n/a	n/a	-999	14	n/a	n/a	pyFR	0	TJ036
1702.343	2.57	2163216	WORD	n/a	wordpools/wordpool_EN.txt	KING	1	14	n/a	n/a	pyFR	0	TJ036
1704.913	2.771	2165786	WORD	n/a	wordpools/wordpool_EN.txt	SKI	2	14	n/a	n/a	pyFR	0	TJ036
1707.684	2.622	2168556	WORD	n/a	wordpools/wordpool_EN.txt	WHEEL	3	14	n/a	n/a	pyFR	0	TJ036
1710.306	2.437	2171178	WORD	n/a	wordpools/wordpool_EN.txt	STOOL	4	14	n/a	n/a	pyFR	0	TJ036
1712.743	2.771	2173615	WORD	n/a	wordpools/wordpool_EN.txt	PRINCE	5	14	n/a	n/a	pyFR	0	TJ036
1715.514	2.505	2176386	WORD	n/a	wordpools/wordpool_EN.txt	FLAG	6	14	n/a	n/a	pyFR	0	TJ036
1718.019	2.47	2178891	WORD	n/a	wordpools/wordpool_EN.txt	POLE	7	14	n/a	n/a	pyFR	0	TJ036
1720.489	2.756	2181361	WORD	n/a	wordpools/wordpool_EN.txt	CASH	8	14	n/a	n/a	pyFR	0	TJ036
1723.245	2.553	2184117	WORD	n/a	wordpools/wordpool_EN.txt	TOAST	9	14	n/a	n/a	pyFR	0	TJ036
1725.798	2.755	2186670	WORD	n/a	wordpools/wordpool_EN.txt	SPOON	10	14	n/a	n/a	pyFR	0	TJ036
1728.553	2.589	2189425	WORD	n/a	wordpools/wordpool_EN.txt	GRAPE	11	14	n/a	n/a	pyFR	0	TJ036
1731.142	2.503	2192013	WORD	n/a	wordpools/wordpool_EN.txt	TIE	12	14	n/a	n/a	pyFR	0	TJ036
1733.645	2.821	2194516	WORD	n/a	wordpools/wordpool_EN.txt	CHIN	13	14	n/a	n/a	pyFR	0	TJ036
1736.466	2.689	2197337	WORD	n/a	wordpools/wordpool_EN.txt	SWORD	14	14	n/a	n/a	pyFR	0	TJ036
1739.155	1.62	2200026	WORD	n/a	wordpools/wordpool_EN.txt	SKUNK	15	14	n/a	n/a	pyFR	0	TJ036
1740.775	1.0	n/a	START	n/a	n/a	n/a	n/a	14	[-999 -999 -999]	-999	pyFR	0	TJ036
1741.775	3.873	n/a	PROB	n/a	n/a	n/a	n/a	14	[3 3 6]	12	pyFR	0	TJ036
1745.648	5.225	n/a	PROB	n/a	n/a	n/a	n/a	14	[4 5 7]	16	pyFR	0	TJ036
1750.873	6.279	n/a	PROB	n/a	n/a	n/a	n/a	14	[9 5 9]	23	pyFR	0	TJ036
1757.152	2.653	n/a	PROB	n/a	n/a	n/a	n/a	14	[5 3 5]	13	pyFR	0	TJ036
1759.805	5.424	n/a	PROB	n/a	n/a	n/a	n/a	14	[3 8 9]	20	pyFR	0	TJ036
1765.229	1.238	n/a	STOP	n/a	n/a	n/a	n/a	14	[-999 -999 -999]	-999	pyFR	0	TJ036
1766.467	1.116	2227337	REC_START	n/a	n/a	n/a	-999	14	n/a	n/a	pyFR	0	TJ036
1767.583	0.543	2228453	REC_WORD	0.543	n/a	KING	-999	14	n/a	n/a	pyFR	0	TJ036
1768.126	2.491	2228996	REC_WORD	2.491	n/a	SKI	-999	14	n/a	n/a	pyFR	0	TJ036
1770.617	1.062	2231487	REC_WORD	1.062	n/a	SPOON	-999	14	n/a	n/a	pyFR	0	TJ036
1771.679	4.011	2232549	REC_WORD	4.011	n/a	CASH	-999	14	n/a	n/a	pyFR	0	TJ036
1775.69	39.927	2236560	REC_WORD	39.927	n/a	POLE	-999	14	n/a	n/a	pyFR	0	TJ036
1815.617	0.015	2276485	TRIAL	n/a	n/a	n/a	-999	15	n/a	n/a	pyFR	0	TJ036
1815.632	2.956	2276500	ORIENT	n/a	n/a	n/a	-999	15	n/a	n/a	pyFR	0	TJ036
1818.588	2.689	2279456	WORD	n/a	wordpools/wordpool_EN.txt	AXE	1	15	n/a	n/a	pyFR	0	TJ036
1821.277	2.52	2282145	WORD	n/a	wordpools/wordpool_EN.txt	WHALE	2	15	n/a	n/a	pyFR	0	TJ036
1823.797	2.588	2284665	WORD	n/a	wordpools/wordpool_EN.txt	CHALK	3	15	n/a	n/a	pyFR	0	TJ036
1826.385	2.555	2287253	WORD	n/a	wordpools/wordpool_EN.txt	DEER	4	15	n/a	n/a	pyFR	0	TJ036
1828.94	2.603	2289808	WORD	n/a	wordpools/wordpool_EN.txt	MOON	5	15	n/a	n/a	pyFR	0	TJ036
1831.543	2.789	2292411	WORD	n/a	wordpools/wordpool_EN.txt	CLOWN	6	15	n/a	n/a	pyFR	0	TJ036
1834.332	2.604	2295199	WORD	n/a	wordpools/wordpool_EN.txt	FUDGE	7	15	n/a	n/a	pyFR	0	TJ036
1836.936	2.57	2297803	WORD	n/a	wordpools/wordpool_EN.txt	BADGE	8	15	n/a	n/a	pyFR	0	TJ036
1839.506	2.506	2300373	WORD	n/a	wordpools/wordpool_EN.txt	GUARD	9	15	n/a	n/a	pyFR	0	TJ036
1842.012	2.821	2302879	WORD	n/a	wordpools/wordpool_EN.txt	MUD	10	15	n/a	n/a	pyFR	0	TJ036
1844.833	2.687	2305700	WORD	n/a	wordpools/wordpool_EN.txt	MOUSE	11	15	n/a	n/a	pyFR	0	TJ036
1847.52	2.772	2308387	WORD	n/a	wordpools/wordpool_EN.txt	SHEEP	12	15	n/a	n/a	pyFR	0	TJ036
1850.292	2.755	2311159	WORD	n/a	wordpools/wordpool_EN.txt	LAKE	13	15	n/a	n/a	pyFR	0	TJ036
1853.047	2.57	2313914	WORD	n/a	wordpools/wordpool_EN.txt	MOUTH	14	15	n/a	n/a	pyFR	0	TJ036
1855.617	1.621	2316484	WORD	n/a	wordpools/wordpool_EN.txt	MAIL	15	15	n/a	n/a	pyFR	0	TJ036
1857.238	1.018	n/a	START	n/a	n/a	n/a	n/a	15	[-999 -999 -999]	-999	pyFR	0	TJ036
1858.256	8.263	n/a	PROB	n/a	n/a	n/a	n/a	15	[4 3 8]	15	pyFR	0	TJ036
1866.519	5.443	n/a	PROB	n/a	n/a	n/a	n/a	15	[5 2 8]	15	pyFR	0	TJ036
1871.962	5.258	n/a	PROB	n/a	n/a	n/a	n/a	15	[2 9 6]	17	pyFR	0	TJ036
1877.22	3.464	n/a	PROB	n/a	n/a	n/a	n/a	15	[6 1 2]	9	pyFR	0	TJ036
1880.684	1.177	n/a	STOP	n/a	n/a	n/a	n/a	15	[-999 -999 -999]	-999	pyFR	0	TJ036
1881.861	1.318	2342727	REC_START	n/a	n/a	n/a	-999	15	n/a	n/a	pyFR	0	TJ036
1883.179	1.079	2344045	REC_WORD	1.079	n/a	MUD	-999	15	n/a	n/a	pyFR	0	TJ036
1884.258	1.204	2345123	REC_WORD	1.204	n/a	MOOSE	-999	15	n/a	n/a	pyFR	0	TJ036
1885.462	1.731	2346327	REC_WORD	1.731	n/a	SHEEP	-999	15	n/a	n/a	pyFR	0	TJ036
1887.193	1.146	2348058	REC_WORD	1.146	n/a	DEER	-999	15	n/a	n/a	pyFR	0	TJ036
1888.339	3.326	2349204	REC_WORD	3.326	n/a	LAKE	-999	15	n/a	n/a	pyFR	0	TJ036
1891.665	4.905	2352530	REC_WORD	4.905	n/a	MOON	-999	15	n/a	n/a	pyFR	0	TJ036
1896.57	1.0	2357435	REC_WORD	1.0	n/a	AXE	-999	15	n/a	n/a	pyFR	0	TJ036
1897.57	0.472	2358435	REC_WORD	0.472	n/a	<>	-999	15	n/a	n/a	pyFR	0	TJ036
1898.042	5.58	2358907	REC_WORD	5.58	n/a	WHALE	-999	15	n/a	n/a	pyFR	0	TJ036
1903.622	22.939	2364487	REC_WORD	22.939	n/a	CHALK	-999	15	n/a	n/a	pyFR	0	TJ036
1926.561	2.914	2387425	REC_WORD	2.914	n/a	<>	-999	15	n/a	n/a	pyFR	0	TJ036
1929.475	0.016	2390339	TRIAL	n/a	n/a	n/a	-999	16	n/a	n/a	pyFR	0	TJ036
1929.491	2.622	2390355	ORIENT	n/a	n/a	n/a	-999	16	n/a	n/a	pyFR	0	TJ036
1932.113	2.604	2392977	WORD	n/a	wordpools/wordpool_EN.txt	STEAK	1	16	n/a	n/a	pyFR	0	TJ036
1934.717	2.471	2395581	WORD	n/a	wordpools/wordpool_EN.txt	LAMP	2	16	n/a	n/a	pyFR	0	TJ036
1937.188	2.554	2398051	WORD	n/a	wordpools/wordpool_EN.txt	NEST	3	16	n/a	n/a	pyFR	0	TJ036
1939.742	2.488	2400605	WORD	n/a	wordpools/wordpool_EN.txt	HEART	4	16	n/a	n/a	pyFR	0	TJ036
1942.23	2.704	2403093	WORD	n/a	wordpools/wordpool_EN.txt	PHONE	5	16	n/a	n/a	pyFR	0	TJ036
1944.934	2.738	2405797	WORD	n/a	wordpools/wordpool_EN.txt	ELF	6	16	n/a	n/a	pyFR	0	TJ036
1947.672	2.438	2408535	WORD	n/a	wordpools/wordpool_EN.txt	GOAT	7	16	n/a	n/a	pyFR	0	TJ036
1950.11	2.603	2410973	WORD	n/a	wordpools/wordpool_EN.txt	WORLD	8	16	n/a	n/a	pyFR	0	TJ036
1952.713	2.623	2413576	WORD	n/a	wordpools/wordpool_EN.txt	TRAIN	9	16	n/a	n/a	pyFR	0	TJ036
1955.336	2.486	2416199	WORD	n/a	wordpools/wordpool_EN.txt	SLIME	10	16	n/a	n/a	pyFR	0	TJ036
1957.822	2.721	2418685	WORD	n/a	wordpools/wordpool_EN.txt	CAVE	11	16	n/a	n/a	pyFR	0	TJ036
1960.543	2.806	2421406	WORD	n/a	wordpools/wordpool_EN.txt	GOLD	12	16	n/a	n/a	pyFR	0	TJ036
1963.349	2.771	2424211	WORD	n/a	wordpools/wordpool_EN.txt	BOY	13	16	n/a	n/a	pyFR	0	TJ036
1966.12	2.62	2426982	WORD	n/a	wordpools/wordpool_EN.txt	WOLF	14	16	n/a	n/a	pyFR	0	TJ036
1968.74	1.605	2429602	WORD	n/a	wordpools/wordpool_EN.txt	PEACH	15	16	n/a	n/a	pyFR	0	TJ036
1970.345	1.1	n/a	START	n/a	n/a	n/a	n/a	16	[-999 -999 -999]	-999	pyFR	0	TJ036
1971.445	6.21	n/a	PROB	n/a	n/a	n/a	n/a	16	[6 7 4]	17	pyFR	0	TJ036
1977.655	5.41	n/a	PROB	n/a	n/a	n/a	n/a	16	[5 5 8]	18	pyFR	0	TJ036
1983.065	2.888	n/a	PROB	n/a	n/a	n/a	n/a	16	[8 1 8]	17	pyFR	0	TJ036
1985.953	9.34	n/a	PROB	n/a	n/a	n/a	n/a	16	[7 9 8]	24	pyFR	0	TJ036
1995.293	1.045	n/a	STOP	n/a	n/a	n/a	n/a	16	[-999 -999 -999]	-999	pyFR	0	TJ036
1996.338	1.415	2457199	REC_START	n/a	n/a	n/a	-999	16	n/a	n/a	pyFR	0	TJ036
1997.753	1.055	2458614	REC_WORD	1.055	n/a	GOLD	-999	16	n/a	n/a	pyFR	0	TJ036
1998.808	1.293	2459669	REC_WORD	1.293	n/a	BOY	-999	16	n/a	n/a	pyFR	0	TJ036
2000.101	13.199	2460962	REC_WORD	13.199	n/a	PEACH	-999	16	n/a	n/a	pyFR	0	TJ036
2013.3	1.727	2474160	REC_WORD	1.727	n/a	STEAK	-999	16	n/a	n/a	pyFR	0	TJ036
2015.027	587.215	2475887	REC_WORD	587.215	n/a	LAMP	-999	16	n/a	n/a	pyFR	0	TJ036
2602.242	0.072	3063079	SESS_END	n/a	n/a	n/a	-999	-999	n/a	n/a	pyFR	0	TJ036
2602.314	0.0	3063151	E	n/a	n/a	n/a	-999	-999	n/a	n/a	pyFR	0	TJ036
