onset	duration	sample	trial_type	response_time	stim_file	item_name	serialpos	list	test	answer	experiment	session	subject
0.0	0.0	1036158	SESS_START	n/a	n/a	n/a	-999	-999	n/a	n/a	pyFR	0	UP028
0.0	37.729	1036158	B	n/a	n/a	n/a	-999	-999	n/a	n/a	pyFR	0	UP028
37.729	0.01	1055476	START	n/a	n/a	n/a	n/a	0	[-999 -999 -999]	-999	pyFR	0	UP028
37.739	14.342	1055481	PROB	14.303	n/a	n/a	n/a	0	[3 5 8]	16	pyFR	0	UP028
52.081	22.256	1062825	PROB	22.256	n/a	n/a	n/a	0	[5 9 7]	21	pyFR	0	UP028
74.337	219.585	1074220	STOP	n/a	n/a	n/a	n/a	0	[-999 -999 -999]	-999	pyFR	0	UP028
293.922	0.016	1186654	TRIAL	n/a	n/a	n/a	-999	1	n/a	n/a	pyFR	0	UP028
293.938	2.703	1186662	ORIENT	n/a	n/a	n/a	-999	1	n/a	n/a	pyFR	0	UP028
296.641	2.539	1188046	WORD	n/a	wordpools/wordpool_EN.txt	DRESS	1	1	n/a	n/a	pyFR	0	UP028
299.18	2.655	1189346	WORD	n/a	wordpools/wordpool_EN.txt	HEART	2	1	n/a	n/a	pyFR	0	UP028
301.835	2.67	1190706	WORD	n/a	wordpools/wordpool_EN.txt	CLOWN	3	1	n/a	n/a	pyFR	0	UP028
304.505	2.804	1192073	WORD	n/a	wordpools/wordpool_EN.txt	OAR	4	1	n/a	n/a	pyFR	0	UP028
307.309	2.789	1193509	WORD	n/a	wordpools/wordpool_EN.txt	ELF	5	1	n/a	n/a	pyFR	0	UP028
310.098	2.604	1194937	WORD	n/a	wordpools/wordpool_EN.txt	WORM	6	1	n/a	n/a	pyFR	0	UP028
312.702	2.488	1196270	WORD	n/a	wordpools/wordpool_EN.txt	SEA	7	1	n/a	n/a	pyFR	0	UP028
315.19	2.454	1197544	WORD	n/a	wordpools/wordpool_EN.txt	WHALE	8	1	n/a	n/a	pyFR	0	UP028
317.644	2.505	1198801	WORD	n/a	wordpools/wordpool_EN.txt	CONE	9	1	n/a	n/a	pyFR	0	UP028
320.149	2.536	1200083	WORD	n/a	wordpools/wordpool_EN.txt	BENCH	10	1	n/a	n/a	pyFR	0	UP028
322.685	2.522	1201382	WORD	n/a	wordpools/wordpool_EN.txt	CLOCK	11	1	n/a	n/a	pyFR	0	UP028
325.207	2.705	1202673	WORD	n/a	wordpools/wordpool_EN.txt	SHELL	12	1	n/a	n/a	pyFR	0	UP028
327.912	2.82	1204058	WORD	n/a	wordpools/wordpool_EN.txt	POND	13	1	n/a	n/a	pyFR	0	UP028
330.732	2.504	1205502	WORD	n/a	wordpools/wordpool_EN.txt	CUP	14	1	n/a	n/a	pyFR	0	UP028
333.236	1.605	1206784	WORD	n/a	wordpools/wordpool_EN.txt	SEAL	15	1	n/a	n/a	pyFR	0	UP028
334.841	1.001	1207606	START	n/a	n/a	n/a	n/a	1	[-999 -999 -999]	-999	pyFR	0	UP028
335.842	6.827	1208118	PROB	6.799	n/a	n/a	n/a	1	[2 3 2]	7	pyFR	0	UP028
342.669	9.749	1211614	PROB	9.717	n/a	n/a	n/a	1	[7 3 2]	12	pyFR	0	UP028
352.418	6.617	1216606	PROB	6.617	n/a	n/a	n/a	1	[3 4 8]	15	pyFR	0	UP028
359.035	1.231	1219994	STOP	n/a	n/a	n/a	n/a	1	[-999 -999 -999]	-999	pyFR	0	UP028
360.266	15.406	1220624	REC_START	n/a	n/a	n/a	-999	1	n/a	n/a	pyFR	0	UP028
375.672	1.0	1228513	REC_WORD_VV	15.406	n/a	<>	-999	1	n/a	n/a	pyFR	0	UP028
376.672	1.0	1229025	REC_WORD_VV	16.406	n/a	<>	-999	1	n/a	n/a	pyFR	0	UP028
377.672	1.0	1229537	REC_WORD_VV	17.406	n/a	<>	-999	1	n/a	n/a	pyFR	0	UP028
378.672	1.0	1230049	REC_WORD_VV	18.406	n/a	<>	-999	1	n/a	n/a	pyFR	0	UP028
379.672	0.278	1230561	REC_WORD_VV	19.406	n/a	<>	-999	1	n/a	n/a	pyFR	0	UP028
379.95	1.425	1230703	REC_WORD_VV	19.684	n/a	<>	-999	1	n/a	n/a	pyFR	0	UP028
381.375	1.237	1231433	REC_WORD	21.109	n/a	WORLD	-999	1	n/a	n/a	pyFR	0	UP028
382.612	1.305	1232066	REC_WORD	22.346	n/a	DRESS	-999	1	n/a	n/a	pyFR	0	UP028
383.917	1.188	1232734	REC_WORD	23.651	n/a	BALL	-999	1	n/a	n/a	pyFR	0	UP028
385.105	2.15	1233343	REC_WORD	24.839	n/a	SOCK	-999	1	n/a	n/a	pyFR	0	UP028
387.255	10.795	1234443	REC_WORD	26.989	n/a	WORM	-999	1	n/a	n/a	pyFR	0	UP028
398.05	19.713	1239971	REC_WORD	37.784	n/a	SHELF	-999	1	n/a	n/a	pyFR	0	UP028
417.763	0.016	1250064	TRIAL	n/a	n/a	n/a	-999	2	n/a	n/a	pyFR	0	UP028
417.779	2.955	1250073	ORIENT	n/a	n/a	n/a	-999	2	n/a	n/a	pyFR	0	UP028
420.734	2.455	1251586	WORD	n/a	wordpools/wordpool_EN.txt	BIRD	1	2	n/a	n/a	pyFR	0	UP028
423.189	2.469	1252843	WORD	n/a	wordpools/wordpool_EN.txt	CLIFF	2	2	n/a	n/a	pyFR	0	UP028
425.658	2.605	1254107	WORD	n/a	wordpools/wordpool_EN.txt	WEB	3	2	n/a	n/a	pyFR	0	UP028
428.263	2.471	1255441	WORD	n/a	wordpools/wordpool_EN.txt	THREAD	4	2	n/a	n/a	pyFR	0	UP028
430.734	2.571	1256706	WORD	n/a	wordpools/wordpool_EN.txt	BEAN	5	2	n/a	n/a	pyFR	0	UP028
433.305	2.555	1258022	WORD	n/a	wordpools/wordpool_EN.txt	PEA	6	2	n/a	n/a	pyFR	0	UP028
435.86	2.754	1259331	WORD	n/a	wordpools/wordpool_EN.txt	CARD	7	2	n/a	n/a	pyFR	0	UP028
438.614	2.671	1260741	WORD	n/a	wordpools/wordpool_EN.txt	SNAIL	8	2	n/a	n/a	pyFR	0	UP028
441.285	2.756	1262108	WORD	n/a	wordpools/wordpool_EN.txt	SMOKE	9	2	n/a	n/a	pyFR	0	UP028
444.041	2.787	1263520	WORD	n/a	wordpools/wordpool_EN.txt	CRANE	10	2	n/a	n/a	pyFR	0	UP028
446.828	2.737	1264947	WORD	n/a	wordpools/wordpool_EN.txt	HOUSE	11	2	n/a	n/a	pyFR	0	UP028
449.565	2.606	1266348	WORD	n/a	wordpools/wordpool_EN.txt	WHEEL	12	2	n/a	n/a	pyFR	0	UP028
452.171	2.688	1267682	WORD	n/a	wordpools/wordpool_EN.txt	DOG	13	2	n/a	n/a	pyFR	0	UP028
454.859	2.554	1269059	WORD	n/a	wordpools/wordpool_EN.txt	BELL	14	2	n/a	n/a	pyFR	0	UP028
457.413	1.62	1270366	WORD	n/a	wordpools/wordpool_EN.txt	BALL	15	2	n/a	n/a	pyFR	0	UP028
459.033	1.051	1271196	START	n/a	n/a	n/a	n/a	2	[-999 -999 -999]	-999	pyFR	0	UP028
460.084	6.61	1271734	PROB	6.574	n/a	n/a	n/a	2	[8 9 3]	20	pyFR	0	UP028
466.694	10.485	1275119	PROB	10.452	n/a	n/a	n/a	2	[8 3 7]	18	pyFR	0	UP028
477.179	5.583	1280487	PROB	5.583	n/a	n/a	n/a	2	[7 4 4]	15	pyFR	0	UP028
482.762	1.096	1283346	STOP	n/a	n/a	n/a	n/a	2	[-999 -999 -999]	-999	pyFR	0	UP028
483.858	5.823	1283907	REC_START	n/a	n/a	n/a	-999	2	n/a	n/a	pyFR	0	UP028
489.681	1.395	1286889	REC_WORD	5.823	n/a	CRANE	-999	2	n/a	n/a	pyFR	0	UP028
491.076	1.98	1287603	REC_WORD	7.218	n/a	BALL	-999	2	n/a	n/a	pyFR	0	UP028
493.056	8.148	1288617	REC_WORD	9.198	n/a	WORM	-999	2	n/a	n/a	pyFR	0	UP028
501.204	6.618	1292789	REC_WORD	17.346	n/a	SOCK	-999	2	n/a	n/a	pyFR	0	UP028
507.822	1.0	1296177	REC_WORD_VV	23.964	n/a	<>	-999	2	n/a	n/a	pyFR	0	UP028
508.822	5.408	1296689	REC_WORD_VV	24.964	n/a	<>	-999	2	n/a	n/a	pyFR	0	UP028
514.23	0.465	1299458	REC_WORD_VV	30.372	n/a	<>	-999	2	n/a	n/a	pyFR	0	UP028
514.695	1.0	1299696	REC_WORD	30.837	n/a	WORM	-999	2	n/a	n/a	pyFR	0	UP028
515.695	3.953	1300209	REC_WORD_VV	31.837	n/a	<>	-999	2	n/a	n/a	pyFR	0	UP028
519.648	1.0	1302233	REC_WORD_VV	35.79	n/a	<>	-999	2	n/a	n/a	pyFR	0	UP028
520.648	1.0	1302745	REC_WORD_VV	36.79	n/a	<>	-999	2	n/a	n/a	pyFR	0	UP028
521.648	1.0	1303257	REC_WORD_VV	37.79	n/a	<>	-999	2	n/a	n/a	pyFR	0	UP028
522.648	1.0	1303769	REC_WORD_VV	38.79	n/a	<>	-999	2	n/a	n/a	pyFR	0	UP028
523.648	1.0	1304281	REC_WORD_VV	39.79	n/a	<>	-999	2	n/a	n/a	pyFR	0	UP028
524.648	2.158	1304793	REC_WORD_VV	40.79	n/a	<>	-999	2	n/a	n/a	pyFR	0	UP028
526.806	1.0	1305898	REC_WORD_VV	42.948	n/a	<>	-999	2	n/a	n/a	pyFR	0	UP028
527.806	6.186	1306410	REC_WORD_VV	43.948	n/a	<>	-999	2	n/a	n/a	pyFR	0	UP028
533.992	0.016	1309577	TRIAL	n/a	n/a	n/a	-999	3	n/a	n/a	pyFR	0	UP028
534.008	2.637	1309585	ORIENT	n/a	n/a	n/a	-999	3	n/a	n/a	pyFR	0	UP028
536.645	2.638	1310936	WORD	n/a	wordpools/wordpool_EN.txt	GOLD	1	3	n/a	n/a	pyFR	0	UP028
539.283	2.606	1312286	WORD	n/a	wordpools/wordpool_EN.txt	CALF	2	3	n/a	n/a	pyFR	0	UP028
541.889	2.603	1313621	WORD	n/a	wordpools/wordpool_EN.txt	SPEAR	3	3	n/a	n/a	pyFR	0	UP028
544.492	2.705	1314953	WORD	n/a	wordpools/wordpool_EN.txt	DOCK	4	3	n/a	n/a	pyFR	0	UP028
547.197	2.755	1316338	WORD	n/a	wordpools/wordpool_EN.txt	CAT	5	3	n/a	n/a	pyFR	0	UP028
549.952	2.52	1317749	WORD	n/a	wordpools/wordpool_EN.txt	FLUTE	6	3	n/a	n/a	pyFR	0	UP028
552.472	2.756	1319039	WORD	n/a	wordpools/wordpool_EN.txt	GOAT	7	3	n/a	n/a	pyFR	0	UP028
555.228	2.469	1320451	WORD	n/a	wordpools/wordpool_EN.txt	GEESE	8	3	n/a	n/a	pyFR	0	UP028
557.697	2.555	1321715	WORD	n/a	wordpools/wordpool_EN.txt	CAGE	9	3	n/a	n/a	pyFR	0	UP028
560.252	2.454	1323023	WORD	n/a	wordpools/wordpool_EN.txt	OWL	10	3	n/a	n/a	pyFR	0	UP028
562.706	2.654	1324280	WORD	n/a	wordpools/wordpool_EN.txt	MOUSE	11	3	n/a	n/a	pyFR	0	UP028
565.36	2.689	1325638	WORD	n/a	wordpools/wordpool_EN.txt	CHEEK	12	3	n/a	n/a	pyFR	0	UP028
568.049	2.838	1327015	WORD	n/a	wordpools/wordpool_EN.txt	COW	13	3	n/a	n/a	pyFR	0	UP028
570.887	2.487	1328468	WORD	n/a	wordpools/wordpool_EN.txt	BEACH	14	3	n/a	n/a	pyFR	0	UP028
573.374	1.621	1329742	WORD	n/a	wordpools/wordpool_EN.txt	LIP	15	3	n/a	n/a	pyFR	0	UP028
574.995	0.951	1330572	START	n/a	n/a	n/a	n/a	3	[-999 -999 -999]	-999	pyFR	0	UP028
575.946	7.511	1331059	PROB	7.488	n/a	n/a	n/a	3	[7 5 4]	16	pyFR	0	UP028
583.457	5.561	1334905	PROB	5.537	n/a	n/a	n/a	3	[6 9 6]	21	pyFR	0	UP028
589.018	4.858	1337752	PROB	4.825	n/a	n/a	n/a	3	[8 2 5]	15	pyFR	0	UP028
593.876	12.879	1340239	PROB	12.879	n/a	n/a	n/a	3	[8 7 4]	19	pyFR	0	UP028
606.755	1.128	1346834	STOP	n/a	n/a	n/a	n/a	3	[-999 -999 -999]	-999	pyFR	0	UP028
607.883	4.931	1347411	REC_START	n/a	n/a	n/a	-999	3	n/a	n/a	pyFR	0	UP028
612.814	1.966	1349936	REC_WORD	4.931	n/a	POLE	-999	3	n/a	n/a	pyFR	0	UP028
614.78	1.308	1350943	REC_WORD_VV	6.897	n/a	<>	-999	3	n/a	n/a	pyFR	0	UP028
616.088	1.797	1351613	REC_WORD	8.205	n/a	GOAT	-999	3	n/a	n/a	pyFR	0	UP028
617.885	2.26	1352533	REC_WORD	10.002	n/a	CAT	-999	3	n/a	n/a	pyFR	0	UP028
620.145	3.479	1353690	REC_WORD	12.262	n/a	OWL	-999	3	n/a	n/a	pyFR	0	UP028
623.624	1.711	1355471	REC_WORD	15.741	n/a	CLIFF	-999	3	n/a	n/a	pyFR	0	UP028
625.335	3.139	1356347	REC_WORD	17.452	n/a	BIRD	-999	3	n/a	n/a	pyFR	0	UP028
628.474	0.896	1357955	REC_WORD_VV	20.591	n/a	<>	-999	3	n/a	n/a	pyFR	0	UP028
629.37	2.617	1358413	REC_WORD	21.487	n/a	WEB	-999	3	n/a	n/a	pyFR	0	UP028
631.987	0.734	1359753	REC_WORD_VV	24.104	n/a	<>	-999	3	n/a	n/a	pyFR	0	UP028
632.721	1.0	1360129	REC_WORD	24.838	n/a	SPIDER	-999	3	n/a	n/a	pyFR	0	UP028
633.721	1.0	1360641	REC_WORD_VV	25.838	n/a	<>	-999	3	n/a	n/a	pyFR	0	UP028
634.721	1.572	1361153	REC_WORD_VV	26.838	n/a	<>	-999	3	n/a	n/a	pyFR	0	UP028
636.293	1.903	1361958	REC_WORD_VV	28.41	n/a	<>	-999	3	n/a	n/a	pyFR	0	UP028
638.196	3.428	1362933	REC_WORD	30.313	n/a	COAT	-999	3	n/a	n/a	pyFR	0	UP028
641.624	47.629	1364688	REC_WORD	33.741	n/a	GOAT	-999	3	n/a	n/a	pyFR	0	UP028
689.253	0.016	1389075	TRIAL	n/a	n/a	n/a	-999	4	n/a	n/a	pyFR	0	UP028
689.269	2.622	1389084	ORIENT	n/a	n/a	n/a	-999	4	n/a	n/a	pyFR	0	UP028
691.891	2.486	1390426	WORD	n/a	wordpools/wordpool_EN.txt	NAIL	1	4	n/a	n/a	pyFR	0	UP028
694.377	2.522	1391699	WORD	n/a	wordpools/wordpool_EN.txt	SHEEP	2	4	n/a	n/a	pyFR	0	UP028
696.899	2.52	1392990	WORD	n/a	wordpools/wordpool_EN.txt	LEAF	3	4	n/a	n/a	pyFR	0	UP028
699.419	2.789	1394281	WORD	n/a	wordpools/wordpool_EN.txt	CANE	4	4	n/a	n/a	pyFR	0	UP028
702.208	2.47	1395709	WORD	n/a	wordpools/wordpool_EN.txt	MOTH	5	4	n/a	n/a	pyFR	0	UP028
704.678	2.638	1396973	WORD	n/a	wordpools/wordpool_EN.txt	GRASS	6	4	n/a	n/a	pyFR	0	UP028
707.316	2.639	1398324	WORD	n/a	wordpools/wordpool_EN.txt	MULE	7	4	n/a	n/a	pyFR	0	UP028
709.955	2.804	1399675	WORD	n/a	wordpools/wordpool_EN.txt	POOL	8	4	n/a	n/a	pyFR	0	UP028
712.759	2.737	1401111	WORD	n/a	wordpools/wordpool_EN.txt	LAMP	9	4	n/a	n/a	pyFR	0	UP028
715.496	2.523	1402512	WORD	n/a	wordpools/wordpool_EN.txt	SHRIMP	10	4	n/a	n/a	pyFR	0	UP028
718.019	2.553	1403804	WORD	n/a	wordpools/wordpool_EN.txt	HORN	11	4	n/a	n/a	pyFR	0	UP028
720.572	2.671	1405112	WORD	n/a	wordpools/wordpool_EN.txt	STAIR	12	4	n/a	n/a	pyFR	0	UP028
723.243	2.805	1406479	WORD	n/a	wordpools/wordpool_EN.txt	FARM	13	4	n/a	n/a	pyFR	0	UP028
726.048	2.62	1407915	WORD	n/a	wordpools/wordpool_EN.txt	BAT	14	4	n/a	n/a	pyFR	0	UP028
728.668	1.621	1409257	WORD	n/a	wordpools/wordpool_EN.txt	FUR	15	4	n/a	n/a	pyFR	0	UP028
730.289	1.051	1410087	START	n/a	n/a	n/a	n/a	4	[-999 -999 -999]	-999	pyFR	0	UP028
731.34	4.408	1410625	PROB	4.381	n/a	n/a	n/a	4	[1 5 2]	8	pyFR	0	UP028
735.748	4.79	1412882	PROB	4.757	n/a	n/a	n/a	4	[2 7 3]	12	pyFR	0	UP028
740.538	4.375	1415335	PROB	4.345	n/a	n/a	n/a	4	[1 8 9]	18	pyFR	0	UP028
744.913	16.736	1417575	PROB	16.736	n/a	n/a	n/a	4	[7 8 9]	24	pyFR	0	UP028
761.649	1.094	1426144	STOP	n/a	n/a	n/a	n/a	4	[-999 -999 -999]	-999	pyFR	0	UP028
762.743	9.702	1426704	REC_START	n/a	n/a	n/a	-999	4	n/a	n/a	pyFR	0	UP028
772.445	0.085	1431672	REC_WORD_VV	9.702	n/a	<>	-999	4	n/a	n/a	pyFR	0	UP028
772.53	3.235	1431716	REC_WORD	9.787	n/a	FARM	-999	4	n/a	n/a	pyFR	0	UP028
775.765	1.623	1433372	REC_WORD	13.022	n/a	BAT	-999	4	n/a	n/a	pyFR	0	UP028
777.388	0.888	1434203	REC_WORD	14.645	n/a	MOTH	-999	4	n/a	n/a	pyFR	0	UP028
778.276	11.901	1434658	REC_WORD	15.533	n/a	GRASS	-999	4	n/a	n/a	pyFR	0	UP028
790.177	4.746	1440751	REC_WORD_VV	27.434	n/a	<>	-999	4	n/a	n/a	pyFR	0	UP028
794.923	1.0	1443181	REC_WORD_VV	32.18	n/a	<>	-999	4	n/a	n/a	pyFR	0	UP028
795.923	0.202	1443693	REC_WORD_VV	33.18	n/a	<>	-999	4	n/a	n/a	pyFR	0	UP028
796.125	1.909	1443797	REC_WORD	33.382	n/a	LOCUST	-999	4	n/a	n/a	pyFR	0	UP028
798.034	1.611	1444774	REC_WORD_VV	35.291	n/a	<>	-999	4	n/a	n/a	pyFR	0	UP028
799.645	4.518	1445599	REC_WORD	36.902	n/a	COW	-999	4	n/a	n/a	pyFR	0	UP028
804.163	6.21	1447913	REC_WORD	41.42	n/a	BAT	-999	4	n/a	n/a	pyFR	0	UP028
810.373	0.016	1451092	TRIAL	n/a	n/a	n/a	-999	5	n/a	n/a	pyFR	0	UP028
810.389	2.789	1451101	ORIENT	n/a	n/a	n/a	-999	5	n/a	n/a	pyFR	0	UP028
813.178	2.721	1452529	WORD	n/a	wordpools/wordpool_EN.txt	BOMB	1	5	n/a	n/a	pyFR	0	UP028
815.899	2.487	1453922	WORD	n/a	wordpools/wordpool_EN.txt	SHOE	2	5	n/a	n/a	pyFR	0	UP028
818.386	2.589	1455195	WORD	n/a	wordpools/wordpool_EN.txt	JEEP	3	5	n/a	n/a	pyFR	0	UP028
820.975	2.453	1456521	WORD	n/a	wordpools/wordpool_EN.txt	LAWN	4	5	n/a	n/a	pyFR	0	UP028
823.428	2.672	1457777	WORD	n/a	wordpools/wordpool_EN.txt	SHIP	5	5	n/a	n/a	pyFR	0	UP028
826.1	2.437	1459145	WORD	n/a	wordpools/wordpool_EN.txt	VINE	6	5	n/a	n/a	pyFR	0	UP028
828.537	2.754	1460393	WORD	n/a	wordpools/wordpool_EN.txt	HAT	7	5	n/a	n/a	pyFR	0	UP028
831.291	2.773	1461803	WORD	n/a	wordpools/wordpool_EN.txt	CROWN	8	5	n/a	n/a	pyFR	0	UP028
834.064	2.503	1463223	WORD	n/a	wordpools/wordpool_EN.txt	BOOK	9	5	n/a	n/a	pyFR	0	UP028
836.567	2.704	1464504	WORD	n/a	wordpools/wordpool_EN.txt	FLAME	10	5	n/a	n/a	pyFR	0	UP028
839.271	2.489	1465889	WORD	n/a	wordpools/wordpool_EN.txt	BRUSH	11	5	n/a	n/a	pyFR	0	UP028
841.76	2.57	1467163	WORD	n/a	wordpools/wordpool_EN.txt	SLEEVE	12	5	n/a	n/a	pyFR	0	UP028
844.33	2.555	1468479	WORD	n/a	wordpools/wordpool_EN.txt	KEY	13	5	n/a	n/a	pyFR	0	UP028
846.885	2.587	1469788	WORD	n/a	wordpools/wordpool_EN.txt	TAPE	14	5	n/a	n/a	pyFR	0	UP028
849.472	1.621	1471112	WORD	n/a	wordpools/wordpool_EN.txt	CAVE	15	5	n/a	n/a	pyFR	0	UP028
851.093	0.917	1471942	START	n/a	n/a	n/a	n/a	5	[-999 -999 -999]	-999	pyFR	0	UP028
852.01	7.196	1472412	PROB	7.168	n/a	n/a	n/a	5	[7 9 7]	2	pyFR	0	UP028
859.206	12.468	1476096	PROB	12.468	n/a	n/a	n/a	5	[8 7 5]	20	pyFR	0	UP028
871.674	1.071	1482480	STOP	n/a	n/a	n/a	n/a	5	[-999 -999 -999]	-999	pyFR	0	UP028
872.745	8.168	1483029	REC_START	n/a	n/a	n/a	-999	5	n/a	n/a	pyFR	0	UP028
880.913	2.489	1487211	REC_WORD_VV	8.168	n/a	<>	-999	5	n/a	n/a	pyFR	0	UP028
883.402	1.866	1488485	REC_WORD	10.657	n/a	CAT	-999	5	n/a	n/a	pyFR	0	UP028
885.268	1.438	1489441	REC_WORD	12.523	n/a	GOAT	-999	5	n/a	n/a	pyFR	0	UP028
886.706	5.445	1490177	REC_WORD	13.961	n/a	LAWN	-999	5	n/a	n/a	pyFR	0	UP028
892.151	8.952	1492965	REC_WORD	19.406	n/a	GRASS	-999	5	n/a	n/a	pyFR	0	UP028
901.103	14.549	1497549	REC_WORD	28.358	n/a	BALL	-999	5	n/a	n/a	pyFR	0	UP028
915.652	22.87	1504998	REC_WORD	42.907	n/a	SHEEP	-999	5	n/a	n/a	pyFR	0	UP028
938.522	0.016	1516708	TRIAL	n/a	n/a	n/a	-999	6	n/a	n/a	pyFR	0	UP028
938.538	2.672	1516717	ORIENT	n/a	n/a	n/a	-999	6	n/a	n/a	pyFR	0	UP028
941.21	2.789	1518085	WORD	n/a	wordpools/wordpool_EN.txt	DITCH	1	6	n/a	n/a	pyFR	0	UP028
943.999	2.486	1519513	WORD	n/a	wordpools/wordpool_EN.txt	GIRL	2	6	n/a	n/a	pyFR	0	UP028
946.485	2.788	1520786	WORD	n/a	wordpools/wordpool_EN.txt	BAND	3	6	n/a	n/a	pyFR	0	UP028
949.273	2.757	1522213	WORD	n/a	wordpools/wordpool_EN.txt	ZOO	4	6	n/a	n/a	pyFR	0	UP028
952.03	2.519	1523625	WORD	n/a	wordpools/wordpool_EN.txt	CHIEF	5	6	n/a	n/a	pyFR	0	UP028
954.549	2.655	1524915	WORD	n/a	wordpools/wordpool_EN.txt	MUG	6	6	n/a	n/a	pyFR	0	UP028
957.204	2.571	1526274	WORD	n/a	wordpools/wordpool_EN.txt	GRAPE	7	6	n/a	n/a	pyFR	0	UP028
959.775	2.821	1527591	WORD	n/a	wordpools/wordpool_EN.txt	PHONE	8	6	n/a	n/a	pyFR	0	UP028
962.596	2.737	1529035	WORD	n/a	wordpools/wordpool_EN.txt	WEED	9	6	n/a	n/a	pyFR	0	UP028
965.333	2.689	1530436	WORD	n/a	wordpools/wordpool_EN.txt	PURSE	10	6	n/a	n/a	pyFR	0	UP028
968.022	2.587	1531813	WORD	n/a	wordpools/wordpool_EN.txt	CAPE	11	6	n/a	n/a	pyFR	0	UP028
970.609	2.539	1533138	WORD	n/a	wordpools/wordpool_EN.txt	LAKE	12	6	n/a	n/a	pyFR	0	UP028
973.148	2.452	1534438	WORD	n/a	wordpools/wordpool_EN.txt	FENCE	13	6	n/a	n/a	pyFR	0	UP028
975.6	2.572	1535693	WORD	n/a	wordpools/wordpool_EN.txt	FRUIT	14	6	n/a	n/a	pyFR	0	UP028
978.172	1.621	1537010	WORD	n/a	wordpools/wordpool_EN.txt	HOOK	15	6	n/a	n/a	pyFR	0	UP028
979.793	0.833	1537840	START	n/a	n/a	n/a	n/a	6	[-999 -999 -999]	-999	pyFR	0	UP028
980.626	9.266	1538267	PROB	9.232	n/a	n/a	n/a	6	[3 8 8]	19	pyFR	0	UP028
989.892	5.409	1543011	PROB	5.382	n/a	n/a	n/a	6	[6 5 6]	17	pyFR	0	UP028
995.301	6.902	1545781	PROB	6.902	n/a	n/a	n/a	6	[4 2 4]	10	pyFR	0	UP028
1002.203	1.112	1549315	STOP	n/a	n/a	n/a	n/a	6	[-999 -999 -999]	-999	pyFR	0	UP028
1003.315	12.181	1549884	REC_START	n/a	n/a	n/a	-999	6	n/a	n/a	pyFR	0	UP028
1015.496	0.9	1556121	REC_WORD	12.181	n/a	GIRL	-999	6	n/a	n/a	pyFR	0	UP028
1016.396	6.963	1556582	REC_WORD	13.081	n/a	PURSE	-999	6	n/a	n/a	pyFR	0	UP028
1023.359	4.591	1560147	REC_WORD	20.044	n/a	GOAT	-999	6	n/a	n/a	pyFR	0	UP028
1027.95	1.455	1562498	REC_WORD	24.635	n/a	WEED	-999	6	n/a	n/a	pyFR	0	UP028
1029.405	13.685	1563243	REC_WORD	26.09	n/a	SHOE	-999	6	n/a	n/a	pyFR	0	UP028
1043.09	7.723	1570250	REC_WORD	39.775	n/a	BOMB	-999	6	n/a	n/a	pyFR	0	UP028
1050.813	0.015	1574205	TRIAL	n/a	n/a	n/a	-999	7	n/a	n/a	pyFR	0	UP028
1050.828	2.854	1574212	ORIENT	n/a	n/a	n/a	-999	7	n/a	n/a	pyFR	0	UP028
1053.682	2.505	1575674	WORD	n/a	wordpools/wordpool_EN.txt	TOE	1	7	n/a	n/a	pyFR	0	UP028
1056.187	2.772	1576956	WORD	n/a	wordpools/wordpool_EN.txt	ROOT	2	7	n/a	n/a	pyFR	0	UP028
1058.959	2.553	1578376	WORD	n/a	wordpools/wordpool_EN.txt	HORSE	3	7	n/a	n/a	pyFR	0	UP028
1061.512	2.605	1579683	WORD	n/a	wordpools/wordpool_EN.txt	STICK	4	7	n/a	n/a	pyFR	0	UP028
1064.117	2.57	1581017	WORD	n/a	wordpools/wordpool_EN.txt	RIB	5	7	n/a	n/a	pyFR	0	UP028
1066.687	2.506	1582333	WORD	n/a	wordpools/wordpool_EN.txt	SEED	6	7	n/a	n/a	pyFR	0	UP028
1069.193	2.704	1583616	WORD	n/a	wordpools/wordpool_EN.txt	SHARK	7	7	n/a	n/a	pyFR	0	UP028
1071.897	2.72	1585000	WORD	n/a	wordpools/wordpool_EN.txt	LEG	8	7	n/a	n/a	pyFR	0	UP028
1074.617	2.722	1586393	WORD	n/a	wordpools/wordpool_EN.txt	EGG	9	7	n/a	n/a	pyFR	0	UP028
1077.339	2.755	1587787	WORD	n/a	wordpools/wordpool_EN.txt	MOUTH	10	7	n/a	n/a	pyFR	0	UP028
1080.094	2.47	1589197	WORD	n/a	wordpools/wordpool_EN.txt	BRANCH	11	7	n/a	n/a	pyFR	0	UP028
1082.564	2.605	1590462	WORD	n/a	wordpools/wordpool_EN.txt	COAT	12	7	n/a	n/a	pyFR	0	UP028
1085.169	2.47	1591796	WORD	n/a	wordpools/wordpool_EN.txt	STOOL	13	7	n/a	n/a	pyFR	0	UP028
1087.639	2.523	1593061	WORD	n/a	wordpools/wordpool_EN.txt	SHEET	14	7	n/a	n/a	pyFR	0	UP028
1090.162	1.62	1594353	WORD	n/a	wordpools/wordpool_EN.txt	CAKE	15	7	n/a	n/a	pyFR	0	UP028
1091.782	1.151	1595182	START	n/a	n/a	n/a	n/a	7	[-999 -999 -999]	-999	pyFR	0	UP028
1092.933	5.341	1595771	PROB	5.317	n/a	n/a	n/a	7	[8 8 8]	24	pyFR	0	UP028
1098.274	5.627	1598506	PROB	5.601	n/a	n/a	n/a	7	[1 4 3]	8	pyFR	0	UP028
1103.901	6.359	1601387	PROB	6.333	n/a	n/a	n/a	7	[7 5 8]	20	pyFR	0	UP028
1110.26	4.574	1604643	PROB	4.574	n/a	n/a	n/a	7	[1 7 6]	14	pyFR	0	UP028
1114.834	1.205	1606985	STOP	n/a	n/a	n/a	n/a	7	[-999 -999 -999]	-999	pyFR	0	UP028
1116.039	34.822	1607602	REC_START	n/a	n/a	n/a	-999	7	n/a	n/a	pyFR	0	UP028
1150.861	4.729	1625432	REC_WORD	34.822	n/a	EGG	-999	7	n/a	n/a	pyFR	0	UP028
1155.59	111.553	1627854	REC_WORD	39.551	n/a	FARM	-999	7	n/a	n/a	pyFR	0	UP028
1267.143	0.016	1684972	TRIAL	n/a	n/a	n/a	-999	8	n/a	n/a	pyFR	0	UP028
1267.159	2.972	1684980	ORIENT	n/a	n/a	n/a	-999	8	n/a	n/a	pyFR	0	UP028
1270.131	2.536	1686502	WORD	n/a	wordpools/wordpool_EN.txt	DUCK	1	8	n/a	n/a	pyFR	0	UP028
1272.667	2.772	1687800	WORD	n/a	wordpools/wordpool_EN.txt	FILM	2	8	n/a	n/a	pyFR	0	UP028
1275.439	2.471	1689220	WORD	n/a	wordpools/wordpool_EN.txt	FISH	3	8	n/a	n/a	pyFR	0	UP028
1277.91	2.737	1690485	WORD	n/a	wordpools/wordpool_EN.txt	PASTE	4	8	n/a	n/a	pyFR	0	UP028
1280.647	2.456	1691886	WORD	n/a	wordpools/wordpool_EN.txt	MOOSE	5	8	n/a	n/a	pyFR	0	UP028
1283.103	2.654	1693144	WORD	n/a	wordpools/wordpool_EN.txt	SWORD	6	8	n/a	n/a	pyFR	0	UP028
1285.757	2.503	1694503	WORD	n/a	wordpools/wordpool_EN.txt	SNAKE	7	8	n/a	n/a	pyFR	0	UP028
1288.26	2.454	1695785	WORD	n/a	wordpools/wordpool_EN.txt	RUG	8	8	n/a	n/a	pyFR	0	UP028
1290.714	2.555	1697041	WORD	n/a	wordpools/wordpool_EN.txt	BEE	9	8	n/a	n/a	pyFR	0	UP028
1293.269	2.505	1698349	WORD	n/a	wordpools/wordpool_EN.txt	BOOT	10	8	n/a	n/a	pyFR	0	UP028
1295.774	2.67	1699632	WORD	n/a	wordpools/wordpool_EN.txt	KING	11	8	n/a	n/a	pyFR	0	UP028
1298.444	2.422	1700999	WORD	n/a	wordpools/wordpool_EN.txt	ROAD	12	8	n/a	n/a	pyFR	0	UP028
1300.866	2.77	1702239	WORD	n/a	wordpools/wordpool_EN.txt	NEST	13	8	n/a	n/a	pyFR	0	UP028
1303.636	2.438	1703657	WORD	n/a	wordpools/wordpool_EN.txt	PIG	14	8	n/a	n/a	pyFR	0	UP028
1306.074	1.62	1704906	WORD	n/a	wordpools/wordpool_EN.txt	STRAW	15	8	n/a	n/a	pyFR	0	UP028
1307.694	1.168	1705735	START	n/a	n/a	n/a	n/a	8	[-999 -999 -999]	-999	pyFR	0	UP028
1308.862	5.009	1706333	PROB	4.972	n/a	n/a	n/a	8	[1 2 3]	6	pyFR	0	UP028
1313.871	6.878	1708898	PROB	6.851	n/a	n/a	n/a	8	[5 9 3]	17	pyFR	0	UP028
1320.749	4.874	1712420	PROB	4.845	n/a	n/a	n/a	8	[9 6 4]	19	pyFR	0	UP028
1325.623	3.842	1714915	PROB	3.842	n/a	n/a	n/a	8	[8 1 8]	17	pyFR	0	UP028
1329.465	1.167	1716883	STOP	n/a	n/a	n/a	n/a	8	[-999 -999 -999]	-999	pyFR	0	UP028
1330.632	2.164	1717480	REC_START	n/a	n/a	n/a	-999	8	n/a	n/a	pyFR	0	UP028
1332.796	0.655	1718588	REC_WORD	2.164	n/a	BOOT	-999	8	n/a	n/a	pyFR	0	UP028
1333.451	1.62	1718924	REC_WORD	2.819	n/a	KING	-999	8	n/a	n/a	pyFR	0	UP028
1335.071	10.663	1719753	REC_WORD	4.439	n/a	HORSE	-999	8	n/a	n/a	pyFR	0	UP028
1345.734	3.283	1725213	REC_WORD	15.102	n/a	SNAKE	-999	8	n/a	n/a	pyFR	0	UP028
1349.017	7.664	1726894	REC_WORD	18.385	n/a	EGG	-999	8	n/a	n/a	pyFR	0	UP028
1356.681	15.721	1730818	REC_WORD	26.049	n/a	BOOK	-999	8	n/a	n/a	pyFR	0	UP028
1372.402	1.0	1738868	REC_WORD	41.77	n/a	CROWN	-999	8	n/a	n/a	pyFR	0	UP028
1373.402	5.127	1739380	REC_WORD_VV	42.77	n/a	<>	-999	8	n/a	n/a	pyFR	0	UP028
1378.529	0.016	1742005	TRIAL	n/a	n/a	n/a	-999	9	n/a	n/a	pyFR	0	UP028
1378.545	2.672	1742013	ORIENT	n/a	n/a	n/a	-999	9	n/a	n/a	pyFR	0	UP028
1381.217	2.722	1743381	WORD	n/a	wordpools/wordpool_EN.txt	MOON	1	9	n/a	n/a	pyFR	0	UP028
1383.939	2.77	1744775	WORD	n/a	wordpools/wordpool_EN.txt	JAIL	2	9	n/a	n/a	pyFR	0	UP028
1386.709	2.472	1746193	WORD	n/a	wordpools/wordpool_EN.txt	CASH	3	9	n/a	n/a	pyFR	0	UP028
1389.181	2.805	1747459	WORD	n/a	wordpools/wordpool_EN.txt	TIE	4	9	n/a	n/a	pyFR	0	UP028
1391.986	2.821	1748895	WORD	n/a	wordpools/wordpool_EN.txt	SKI	5	9	n/a	n/a	pyFR	0	UP028
1394.807	2.553	1750340	WORD	n/a	wordpools/wordpool_EN.txt	PARK	6	9	n/a	n/a	pyFR	0	UP028
1397.36	2.756	1751647	WORD	n/a	wordpools/wordpool_EN.txt	SEAT	7	9	n/a	n/a	pyFR	0	UP028
1400.116	2.688	1753058	WORD	n/a	wordpools/wordpool_EN.txt	GUARD	8	9	n/a	n/a	pyFR	0	UP028
1402.804	2.587	1754434	WORD	n/a	wordpools/wordpool_EN.txt	PANTS	9	9	n/a	n/a	pyFR	0	UP028
1405.391	2.505	1755759	WORD	n/a	wordpools/wordpool_EN.txt	CUBE	10	9	n/a	n/a	pyFR	0	UP028
1407.896	2.803	1757042	WORD	n/a	wordpools/wordpool_EN.txt	DOOR	11	9	n/a	n/a	pyFR	0	UP028
1410.699	2.755	1758477	WORD	n/a	wordpools/wordpool_EN.txt	TENT	12	9	n/a	n/a	pyFR	0	UP028
1413.454	2.672	1759888	WORD	n/a	wordpools/wordpool_EN.txt	FORT	13	9	n/a	n/a	pyFR	0	UP028
1416.126	2.822	1761256	WORD	n/a	wordpools/wordpool_EN.txt	BANK	14	9	n/a	n/a	pyFR	0	UP028
1418.948	1.619	1762701	WORD	n/a	wordpools/wordpool_EN.txt	ARK	15	9	n/a	n/a	pyFR	0	UP028
1420.567	0.885	1763530	START	n/a	n/a	n/a	n/a	9	[-999 -999 -999]	-999	pyFR	0	UP028
1421.452	5.626	1763983	PROB	5.591	n/a	n/a	n/a	9	[3 5 9]	17	pyFR	0	UP028
1427.078	3.605	1766863	PROB	3.571	n/a	n/a	n/a	9	[3 3 3]	9	pyFR	0	UP028
1430.683	3.39	1768709	PROB	3.36	n/a	n/a	n/a	9	[4 2 2]	8	pyFR	0	UP028
1434.073	5.375	1770445	PROB	5.345	n/a	n/a	n/a	9	[8 6 4]	18	pyFR	0	UP028
1439.448	4.346	1773197	PROB	4.346	n/a	n/a	n/a	9	[1 8 3]	12	pyFR	0	UP028
1443.794	1.081	1775422	STOP	n/a	n/a	n/a	n/a	9	[-999 -999 -999]	-999	pyFR	0	UP028
1444.875	15.533	1775976	REC_START	n/a	n/a	n/a	-999	9	n/a	n/a	pyFR	0	UP028
1460.408	3.638	1783929	REC_WORD	15.533	n/a	POOL	-999	9	n/a	n/a	pyFR	0	UP028
1464.046	8.459	1785792	REC_WORD	19.171	n/a	DINER	-999	9	n/a	n/a	pyFR	0	UP028
1472.505	13.328	1790123	REC_WORD	27.63	n/a	BOOK	-999	9	n/a	n/a	pyFR	0	UP028
1485.833	6.621	1796948	REC_WORD	40.958	n/a	EGG	-999	9	n/a	n/a	pyFR	0	UP028
1492.454	0.016	1800338	TRIAL	n/a	n/a	n/a	-999	10	n/a	n/a	pyFR	0	UP028
1492.47	2.889	1800346	ORIENT	n/a	n/a	n/a	-999	10	n/a	n/a	pyFR	0	UP028
1495.359	2.772	1801825	WORD	n/a	wordpools/wordpool_EN.txt	STEM	1	10	n/a	n/a	pyFR	0	UP028
1498.131	2.621	1803245	WORD	n/a	wordpools/wordpool_EN.txt	COUCH	2	10	n/a	n/a	pyFR	0	UP028
1500.752	2.471	1804587	WORD	n/a	wordpools/wordpool_EN.txt	PIE	3	10	n/a	n/a	pyFR	0	UP028
1503.223	2.771	1805852	WORD	n/a	wordpools/wordpool_EN.txt	PLANT	4	10	n/a	n/a	pyFR	0	UP028
1505.994	2.553	1807271	WORD	n/a	wordpools/wordpool_EN.txt	KITE	5	10	n/a	n/a	pyFR	0	UP028
1508.547	2.639	1808578	WORD	n/a	wordpools/wordpool_EN.txt	SUIT	6	10	n/a	n/a	pyFR	0	UP028
1511.186	2.554	1809929	WORD	n/a	wordpools/wordpool_EN.txt	CLOTH	7	10	n/a	n/a	pyFR	0	UP028
1513.74	2.471	1811237	WORD	n/a	wordpools/wordpool_EN.txt	STORE	8	10	n/a	n/a	pyFR	0	UP028
1516.211	2.755	1812502	WORD	n/a	wordpools/wordpool_EN.txt	BLOOM	9	10	n/a	n/a	pyFR	0	UP028
1518.966	2.637	1813913	WORD	n/a	wordpools/wordpool_EN.txt	ROOF	10	10	n/a	n/a	pyFR	0	UP028
1521.603	2.622	1815263	WORD	n/a	wordpools/wordpool_EN.txt	NET	11	10	n/a	n/a	pyFR	0	UP028
1524.225	2.453	1816606	WORD	n/a	wordpools/wordpool_EN.txt	ARM	12	10	n/a	n/a	pyFR	0	UP028
1526.678	2.571	1817862	WORD	n/a	wordpools/wordpool_EN.txt	STORM	13	10	n/a	n/a	pyFR	0	UP028
1529.249	2.454	1819178	WORD	n/a	wordpools/wordpool_EN.txt	SNOW	14	10	n/a	n/a	pyFR	0	UP028
1531.703	1.621	1820434	WORD	n/a	wordpools/wordpool_EN.txt	MAT	15	10	n/a	n/a	pyFR	0	UP028
1533.324	1.134	1821264	START	n/a	n/a	n/a	n/a	10	[-999 -999 -999]	-999	pyFR	0	UP028
1534.458	5.761	1821845	PROB	5.736	n/a	n/a	n/a	10	[4 4 6]	12	pyFR	0	UP028
1540.219	5.34	1824795	PROB	5.303	n/a	n/a	n/a	10	[7 3 7]	17	pyFR	0	UP028
1545.559	5.644	1827529	PROB	5.611	n/a	n/a	n/a	10	[9 4 4]	17	pyFR	0	UP028
1551.203	7.175	1830419	PROB	7.175	n/a	n/a	n/a	10	[4 7 6]	17	pyFR	0	UP028
1558.378	1.206	1834093	STOP	n/a	n/a	n/a	n/a	10	[-999 -999 -999]	-999	pyFR	0	UP028
1559.584	5.883	1834710	REC_START	n/a	n/a	n/a	-999	10	n/a	n/a	pyFR	0	UP028
1565.467	1.046	1837723	REC_WORD	5.883	n/a	MOON	-999	10	n/a	n/a	pyFR	0	UP028
1566.513	11.534	1838258	REC_WORD	6.929	n/a	SOCK	-999	10	n/a	n/a	pyFR	0	UP028
1578.047	15.508	1844164	REC_WORD	18.463	n/a	COAT	-999	10	n/a	n/a	pyFR	0	UP028
1593.555	3.431	1852105	REC_WORD_VV	33.971	n/a	<>	-999	10	n/a	n/a	pyFR	0	UP028
1596.986	20.012	1853861	REC_WORD	37.402	n/a	BALL	-999	10	n/a	n/a	pyFR	0	UP028
1616.998	0.016	1864108	TRIAL	n/a	n/a	n/a	-999	11	n/a	n/a	pyFR	0	UP028
1617.014	2.872	1864116	ORIENT	n/a	n/a	n/a	-999	11	n/a	n/a	pyFR	0	UP028
1619.886	2.521	1865587	WORD	n/a	wordpools/wordpool_EN.txt	EEL	1	11	n/a	n/a	pyFR	0	UP028
1622.407	2.655	1866878	WORD	n/a	wordpools/wordpool_EN.txt	SPONGE	2	11	n/a	n/a	pyFR	0	UP028
1625.062	2.669	1868237	WORD	n/a	wordpools/wordpool_EN.txt	JAR	3	11	n/a	n/a	pyFR	0	UP028
1627.731	2.655	1869604	WORD	n/a	wordpools/wordpool_EN.txt	BLUSH	4	11	n/a	n/a	pyFR	0	UP028
1630.386	2.772	1870963	WORD	n/a	wordpools/wordpool_EN.txt	SPOON	5	11	n/a	n/a	pyFR	0	UP028
1633.158	2.755	1872382	WORD	n/a	wordpools/wordpool_EN.txt	TAIL	6	11	n/a	n/a	pyFR	0	UP028
1635.913	2.553	1873793	WORD	n/a	wordpools/wordpool_EN.txt	WAVE	7	11	n/a	n/a	pyFR	0	UP028
1638.466	2.805	1875100	WORD	n/a	wordpools/wordpool_EN.txt	EAR	8	11	n/a	n/a	pyFR	0	UP028
1641.271	2.471	1876537	WORD	n/a	wordpools/wordpool_EN.txt	WING	9	11	n/a	n/a	pyFR	0	UP028
1643.742	2.438	1877802	WORD	n/a	wordpools/wordpool_EN.txt	LAND	10	11	n/a	n/a	pyFR	0	UP028
1646.18	2.805	1879050	WORD	n/a	wordpools/wordpool_EN.txt	ROSE	11	11	n/a	n/a	pyFR	0	UP028
1648.985	2.503	1880486	WORD	n/a	wordpools/wordpool_EN.txt	BUSH	12	11	n/a	n/a	pyFR	0	UP028
1651.488	2.438	1881768	WORD	n/a	wordpools/wordpool_EN.txt	TRASH	13	11	n/a	n/a	pyFR	0	UP028
1653.926	2.771	1883016	WORD	n/a	wordpools/wordpool_EN.txt	HOSE	14	11	n/a	n/a	pyFR	0	UP028
1656.697	1.62	1884435	WORD	n/a	wordpools/wordpool_EN.txt	CART	15	11	n/a	n/a	pyFR	0	UP028
1658.317	1.201	1885265	START	n/a	n/a	n/a	n/a	11	[-999 -999 -999]	-999	pyFR	0	UP028
1659.518	9.5	1885880	PROB	9.468	n/a	n/a	n/a	11	[3 7 8]	18	pyFR	0	UP028
1669.018	5.275	1890744	PROB	5.247	n/a	n/a	n/a	11	[9 3 9]	21	pyFR	0	UP028
1674.293	18.044	1893445	PROB	18.044	n/a	n/a	n/a	11	[5 9 8]	22	pyFR	0	UP028
1692.337	1.122	1902684	STOP	n/a	n/a	n/a	n/a	11	[-999 -999 -999]	-999	pyFR	0	UP028
1693.459	18.569	1903258	REC_START	n/a	n/a	n/a	-999	11	n/a	n/a	pyFR	0	UP028
1712.028	8.907	1912766	REC_WORD	18.569	n/a	EEL	-999	11	n/a	n/a	pyFR	0	UP028
1720.935	0.597	1917327	REC_WORD	27.476	n/a	EEL	-999	11	n/a	n/a	pyFR	0	UP028
1721.532	16.601	1917633	REC_WORD	28.073	n/a	BOAT	-999	11	n/a	n/a	pyFR	0	UP028
1738.133	447.438	1926133	REC_WORD_VV	44.674	n/a	<>	-999	11	n/a	n/a	pyFR	0	UP028
2185.571	0.016	2155234	TRIAL	n/a	n/a	n/a	-999	12	n/a	n/a	pyFR	0	UP028
2185.587	2.721	2155242	ORIENT	n/a	n/a	n/a	-999	12	n/a	n/a	pyFR	0	UP028
2188.308	2.705	2156636	WORD	n/a	wordpools/wordpool_EN.txt	TANK	1	12	n/a	n/a	pyFR	0	UP028
2191.013	2.773	2158021	WORD	n/a	wordpools/wordpool_EN.txt	SOCK	2	12	n/a	n/a	pyFR	0	UP028
2193.786	2.67	2159440	WORD	n/a	wordpools/wordpool_EN.txt	PIN	3	12	n/a	n/a	pyFR	0	UP028
2196.456	2.688	2160808	WORD	n/a	wordpools/wordpool_EN.txt	HAND	4	12	n/a	n/a	pyFR	0	UP028
2199.144	2.47	2162184	WORD	n/a	wordpools/wordpool_EN.txt	SOAP	5	12	n/a	n/a	pyFR	0	UP028
2201.614	2.654	2163449	WORD	n/a	wordpools/wordpool_EN.txt	CORN	6	12	n/a	n/a	pyFR	0	UP028
2204.268	2.539	2164808	WORD	n/a	wordpools/wordpool_EN.txt	HOOF	7	12	n/a	n/a	pyFR	0	UP028
2206.807	2.737	2166108	WORD	n/a	wordpools/wordpool_EN.txt	FOG	8	12	n/a	n/a	pyFR	0	UP028
2209.544	2.771	2167509	WORD	n/a	wordpools/wordpool_EN.txt	FACE	9	12	n/a	n/a	pyFR	0	UP028
2212.315	2.823	2168928	WORD	n/a	wordpools/wordpool_EN.txt	MILK	10	12	n/a	n/a	pyFR	0	UP028
2215.138	2.553	2170373	WORD	n/a	wordpools/wordpool_EN.txt	BADGE	11	12	n/a	n/a	pyFR	0	UP028
2217.691	2.488	2171680	WORD	n/a	wordpools/wordpool_EN.txt	ROPE	12	12	n/a	n/a	pyFR	0	UP028
2220.179	2.805	2172954	WORD	n/a	wordpools/wordpool_EN.txt	HILL	13	12	n/a	n/a	pyFR	0	UP028
2222.984	2.637	2174391	WORD	n/a	wordpools/wordpool_EN.txt	COIN	14	12	n/a	n/a	pyFR	0	UP028
2225.621	1.604	2175741	WORD	n/a	wordpools/wordpool_EN.txt	MAIL	15	12	n/a	n/a	pyFR	0	UP028
2227.225	1.184	2176562	START	n/a	n/a	n/a	n/a	12	[-999 -999 -999]	-999	pyFR	0	UP028
2228.409	3.155	2177168	PROB	3.12	n/a	n/a	n/a	12	[1 1 2]	4	pyFR	0	UP028
2231.564	3.29	2178784	PROB	3.254	n/a	n/a	n/a	12	[3 1 5]	9	pyFR	0	UP028
2234.854	7.645	2180468	PROB	7.611	n/a	n/a	n/a	12	[6 7 2]	15	pyFR	0	UP028
2242.499	5.632	2184383	PROB	5.632	n/a	n/a	n/a	12	[1 5 4]	10	pyFR	0	UP028
2248.131	1.064	2187267	STOP	n/a	n/a	n/a	n/a	12	[-999 -999 -999]	-999	pyFR	0	UP028
2249.195	4.78	2187811	REC_START	n/a	n/a	n/a	-999	12	n/a	n/a	pyFR	0	UP028
2253.975	4.627	2190259	REC_WORD	4.78	n/a	SOCK	-999	12	n/a	n/a	pyFR	0	UP028
2258.602	2.779	2192628	REC_WORD	9.407	n/a	SPOON	-999	12	n/a	n/a	pyFR	0	UP028
2261.381	2.63	2194051	REC_WORD_VV	12.186	n/a	<>	-999	12	n/a	n/a	pyFR	0	UP028
2264.011	11.748	2195398	REC_WORD	14.816	n/a	HAIR	-999	12	n/a	n/a	pyFR	0	UP028
2275.759	16.226	2201413	REC_WORD	26.564	n/a	BOAT	-999	12	n/a	n/a	pyFR	0	UP028
2291.985	4.556	2209721	REC_WORD	42.79	n/a	CRANE	-999	12	n/a	n/a	pyFR	0	UP028
2296.541	0.016	2212054	TRIAL	n/a	n/a	n/a	-999	13	n/a	n/a	pyFR	0	UP028
2296.557	2.972	2212062	ORIENT	n/a	n/a	n/a	-999	13	n/a	n/a	pyFR	0	UP028
2299.529	2.621	2213584	WORD	n/a	wordpools/wordpool_EN.txt	TEA	1	13	n/a	n/a	pyFR	0	UP028
2302.15	2.822	2214926	WORD	n/a	wordpools/wordpool_EN.txt	PIPE	2	13	n/a	n/a	pyFR	0	UP028
2304.972	2.587	2216371	WORD	n/a	wordpools/wordpool_EN.txt	MAZE	3	13	n/a	n/a	pyFR	0	UP028
2307.559	2.555	2217696	WORD	n/a	wordpools/wordpool_EN.txt	BEAR	4	13	n/a	n/a	pyFR	0	UP028
2310.114	2.705	2219004	WORD	n/a	wordpools/wordpool_EN.txt	BOY	5	13	n/a	n/a	pyFR	0	UP028
2312.819	2.62	2220389	WORD	n/a	wordpools/wordpool_EN.txt	MUD	6	13	n/a	n/a	pyFR	0	UP028
2315.439	2.772	2221730	WORD	n/a	wordpools/wordpool_EN.txt	FAN	7	13	n/a	n/a	pyFR	0	UP028
2318.211	2.604	2223150	WORD	n/a	wordpools/wordpool_EN.txt	PEACH	8	13	n/a	n/a	pyFR	0	UP028
2320.815	2.804	2224483	WORD	n/a	wordpools/wordpool_EN.txt	WOOD	9	13	n/a	n/a	pyFR	0	UP028
2323.619	2.422	2225919	WORD	n/a	wordpools/wordpool_EN.txt	SINK	10	13	n/a	n/a	pyFR	0	UP028
2326.041	2.771	2227159	WORD	n/a	wordpools/wordpool_EN.txt	SLIME	11	13	n/a	n/a	pyFR	0	UP028
2328.812	2.537	2228578	WORD	n/a	wordpools/wordpool_EN.txt	DOLL	12	13	n/a	n/a	pyFR	0	UP028
2331.349	2.589	2229877	WORD	n/a	wordpools/wordpool_EN.txt	GATE	13	13	n/a	n/a	pyFR	0	UP028
2333.938	2.753	2231202	WORD	n/a	wordpools/wordpool_EN.txt	BARN	14	13	n/a	n/a	pyFR	0	UP028
2336.691	1.621	2232612	WORD	n/a	wordpools/wordpool_EN.txt	PIT	15	13	n/a	n/a	pyFR	0	UP028
2338.312	1.15	2233442	START	n/a	n/a	n/a	n/a	13	[-999 -999 -999]	-999	pyFR	0	UP028
2339.462	16.579	2234031	PROB	16.541	n/a	n/a	n/a	13	[4 2 6]	12	pyFR	0	UP028
2356.041	6.408	2242520	PROB	6.408	n/a	n/a	n/a	13	[5 7 7]	19	pyFR	0	UP028
2362.449	1.121	2245801	STOP	n/a	n/a	n/a	n/a	13	[-999 -999 -999]	-999	pyFR	0	UP028
2363.57	3.774	2246375	REC_START	n/a	n/a	n/a	-999	13	n/a	n/a	pyFR	0	UP028
2367.344	1.12	2248307	REC_WORD	3.774	n/a	BEAR	-999	13	n/a	n/a	pyFR	0	UP028
2368.464	0.819	2248881	REC_WORD	4.894	n/a	BOY	-999	13	n/a	n/a	pyFR	0	UP028
2369.283	28.011	2249300	REC_WORD	5.713	n/a	SINK	-999	13	n/a	n/a	pyFR	0	UP028
2397.294	14.09	2263643	REC_WORD	33.724	n/a	BOAT	-999	13	n/a	n/a	pyFR	0	UP028
2411.384	0.016	2270857	TRIAL	n/a	n/a	n/a	-999	14	n/a	n/a	pyFR	0	UP028
2411.4	2.639	2270865	ORIENT	n/a	n/a	n/a	-999	14	n/a	n/a	pyFR	0	UP028
2414.039	2.47	2272216	WORD	n/a	wordpools/wordpool_EN.txt	WOLF	1	14	n/a	n/a	pyFR	0	UP028
2416.509	2.754	2273481	WORD	n/a	wordpools/wordpool_EN.txt	PEARL	2	14	n/a	n/a	pyFR	0	UP028
2419.263	2.623	2274891	WORD	n/a	wordpools/wordpool_EN.txt	FOX	3	14	n/a	n/a	pyFR	0	UP028
2421.886	2.586	2276234	WORD	n/a	wordpools/wordpool_EN.txt	SHIRT	4	14	n/a	n/a	pyFR	0	UP028
2424.472	2.489	2277558	WORD	n/a	wordpools/wordpool_EN.txt	CHALK	5	14	n/a	n/a	pyFR	0	UP028
2426.961	2.603	2278833	WORD	n/a	wordpools/wordpool_EN.txt	ROCK	6	14	n/a	n/a	pyFR	0	UP028
2429.564	2.822	2280166	WORD	n/a	wordpools/wordpool_EN.txt	STEAM	7	14	n/a	n/a	pyFR	0	UP028
2432.386	2.622	2281611	WORD	n/a	wordpools/wordpool_EN.txt	YARD	8	14	n/a	n/a	pyFR	0	UP028
2435.008	2.453	2282953	WORD	n/a	wordpools/wordpool_EN.txt	STEAK	9	14	n/a	n/a	pyFR	0	UP028
2437.461	2.488	2284209	WORD	n/a	wordpools/wordpool_EN.txt	FLOOR	10	14	n/a	n/a	pyFR	0	UP028
2439.949	2.487	2285483	WORD	n/a	wordpools/wordpool_EN.txt	STONE	11	14	n/a	n/a	pyFR	0	UP028
2442.436	2.472	2286757	WORD	n/a	wordpools/wordpool_EN.txt	LOCK	12	14	n/a	n/a	pyFR	0	UP028
2444.908	2.52	2288022	WORD	n/a	wordpools/wordpool_EN.txt	FROG	13	14	n/a	n/a	pyFR	0	UP028
2447.428	2.438	2289313	WORD	n/a	wordpools/wordpool_EN.txt	FUDGE	14	14	n/a	n/a	pyFR	0	UP028
2449.866	1.619	2290561	WORD	n/a	wordpools/wordpool_EN.txt	VASE	15	14	n/a	n/a	pyFR	0	UP028
2451.485	1.135	2291390	START	n/a	n/a	n/a	n/a	14	[-999 -999 -999]	-999	pyFR	0	UP028
2452.62	5.159	2291971	PROB	5.126	n/a	n/a	n/a	14	[1 3 4]	8	pyFR	0	UP028
2457.779	3.855	2294613	PROB	3.823	n/a	n/a	n/a	14	[6 8 2]	16	pyFR	0	UP028
2461.634	6.162	2296586	PROB	6.136	n/a	n/a	n/a	14	[9 2 3]	14	pyFR	0	UP028
2467.796	5.55	2299742	PROB	5.55	n/a	n/a	n/a	14	[7 7 8]	23	pyFR	0	UP028
2473.346	1.178	2302583	STOP	n/a	n/a	n/a	n/a	14	[-999 -999 -999]	-999	pyFR	0	UP028
2474.524	6.405	2303187	REC_START	n/a	n/a	n/a	-999	14	n/a	n/a	pyFR	0	UP028
2480.929	0.987	2306466	REC_WORD_VV	6.405	n/a	<>	-999	14	n/a	n/a	pyFR	0	UP028
2481.916	1.585	2306971	REC_WORD	7.392	n/a	BEAR	-999	14	n/a	n/a	pyFR	0	UP028
2483.501	9.158	2307783	REC_WORD	8.977	n/a	SINK	-999	14	n/a	n/a	pyFR	0	UP028
2492.659	2.056	2312472	REC_WORD_VV	18.135	n/a	<>	-999	14	n/a	n/a	pyFR	0	UP028
2494.715	3.319	2313525	REC_WORD	20.191	n/a	FROG	-999	14	n/a	n/a	pyFR	0	UP028
2498.034	1.531	2315224	REC_WORD_VV	23.51	n/a	<>	-999	14	n/a	n/a	pyFR	0	UP028
2499.565	3.126	2316008	REC_WORD_VV	25.041	n/a	<>	-999	14	n/a	n/a	pyFR	0	UP028
2502.691	16.343	2317609	REC_WORD_VV	28.167	n/a	<>	-999	14	n/a	n/a	pyFR	0	UP028
2519.034	10.149	2325977	REC_WORD_VV	44.51	n/a	<>	-999	14	n/a	n/a	pyFR	0	UP028
2529.183	0.016	2331174	TRIAL	n/a	n/a	n/a	-999	15	n/a	n/a	pyFR	0	UP028
2529.199	2.654	2331182	ORIENT	n/a	n/a	n/a	-999	15	n/a	n/a	pyFR	0	UP028
2531.853	2.688	2332541	WORD	n/a	wordpools/wordpool_EN.txt	TOOTH	1	15	n/a	n/a	pyFR	0	UP028
2534.541	2.622	2333917	WORD	n/a	wordpools/wordpool_EN.txt	SKUNK	2	15	n/a	n/a	pyFR	0	UP028
2537.163	2.604	2335260	WORD	n/a	wordpools/wordpool_EN.txt	STRING	3	15	n/a	n/a	pyFR	0	UP028
2539.767	2.487	2336593	WORD	n/a	wordpools/wordpool_EN.txt	HAWK	4	15	n/a	n/a	pyFR	0	UP028
2542.254	2.522	2337866	WORD	n/a	wordpools/wordpool_EN.txt	PEN	5	15	n/a	n/a	pyFR	0	UP028
2544.776	2.503	2339158	WORD	n/a	wordpools/wordpool_EN.txt	CLOUD	6	15	n/a	n/a	pyFR	0	UP028
2547.279	2.688	2340439	WORD	n/a	wordpools/wordpool_EN.txt	WORLD	7	15	n/a	n/a	pyFR	0	UP028
2549.967	2.571	2341816	WORD	n/a	wordpools/wordpool_EN.txt	BOWL	8	15	n/a	n/a	pyFR	0	UP028
2552.538	2.522	2343132	WORD	n/a	wordpools/wordpool_EN.txt	BRIDGE	9	15	n/a	n/a	pyFR	0	UP028
2555.06	2.519	2344423	WORD	n/a	wordpools/wordpool_EN.txt	SCHOOL	10	15	n/a	n/a	pyFR	0	UP028
2557.579	2.805	2345713	WORD	n/a	wordpools/wordpool_EN.txt	FORK	11	15	n/a	n/a	pyFR	0	UP028
2560.384	2.488	2347149	WORD	n/a	wordpools/wordpool_EN.txt	JUDGE	12	15	n/a	n/a	pyFR	0	UP028
2562.872	2.471	2348423	WORD	n/a	wordpools/wordpool_EN.txt	CROW	13	15	n/a	n/a	pyFR	0	UP028
2565.343	2.789	2349689	WORD	n/a	wordpools/wordpool_EN.txt	BAG	14	15	n/a	n/a	pyFR	0	UP028
2568.132	1.62	2351117	WORD	n/a	wordpools/wordpool_EN.txt	BEAK	15	15	n/a	n/a	pyFR	0	UP028
2569.752	1.051	2351946	START	n/a	n/a	n/a	n/a	15	[-999 -999 -999]	-999	pyFR	0	UP028
2570.803	5.225	2352484	PROB	5.192	n/a	n/a	n/a	15	[1 5 8]	1	pyFR	0	UP028
2576.028	8.765	2355160	PROB	8.727	n/a	n/a	n/a	15	[8 7 7]	22	pyFR	0	UP028
2584.793	4.945	2359648	PROB	4.945	n/a	n/a	n/a	15	[8 5 3]	16	pyFR	0	UP028
2589.738	1.216	2362179	STOP	n/a	n/a	n/a	n/a	15	[-999 -999 -999]	-999	pyFR	0	UP028
2590.954	5.741	2362802	REC_START	n/a	n/a	n/a	-999	15	n/a	n/a	pyFR	0	UP028
2596.695	2.984	2365742	REC_WORD	5.741	n/a	SINK	-999	15	n/a	n/a	pyFR	0	UP028
2599.679	1.209	2367270	REC_WORD	8.725	n/a	BOWL	-999	15	n/a	n/a	pyFR	0	UP028
2600.888	2.708	2367889	REC_WORD	9.934	n/a	BRIDGE	-999	15	n/a	n/a	pyFR	0	UP028
2603.596	21.24	2369275	REC_WORD	12.642	n/a	CROW	-999	15	n/a	n/a	pyFR	0	UP028
2624.836	13.982	2380151	REC_WORD	33.882	n/a	PEN	-999	15	n/a	n/a	pyFR	0	UP028
2638.818	0.016	2387310	TRIAL	n/a	n/a	n/a	-999	16	n/a	n/a	pyFR	0	UP028
2638.834	2.603	2387318	ORIENT	n/a	n/a	n/a	-999	16	n/a	n/a	pyFR	0	UP028
2641.437	2.723	2388651	WORD	n/a	wordpools/wordpool_EN.txt	VEST	1	16	n/a	n/a	pyFR	0	UP028
2644.16	2.587	2390045	WORD	n/a	wordpools/wordpool_EN.txt	SPRING	2	16	n/a	n/a	pyFR	0	UP028
2646.747	2.438	2391370	WORD	n/a	wordpools/wordpool_EN.txt	CHAIR	3	16	n/a	n/a	pyFR	0	UP028
2649.185	2.453	2392618	WORD	n/a	wordpools/wordpool_EN.txt	GLOVE	4	16	n/a	n/a	pyFR	0	UP028
2651.638	2.521	2393874	WORD	n/a	wordpools/wordpool_EN.txt	STAR	5	16	n/a	n/a	pyFR	0	UP028
2654.159	2.571	2395165	WORD	n/a	wordpools/wordpool_EN.txt	PEAR	6	16	n/a	n/a	pyFR	0	UP028
2656.73	2.637	2396481	WORD	n/a	wordpools/wordpool_EN.txt	NOSE	7	16	n/a	n/a	pyFR	0	UP028
2659.367	2.773	2397832	WORD	n/a	wordpools/wordpool_EN.txt	RAKE	8	16	n/a	n/a	pyFR	0	UP028
2662.14	2.754	2399251	WORD	n/a	wordpools/wordpool_EN.txt	TREE	9	16	n/a	n/a	pyFR	0	UP028
2664.894	2.454	2400662	WORD	n/a	wordpools/wordpool_EN.txt	INK	10	16	n/a	n/a	pyFR	0	UP028
2667.348	2.672	2401918	WORD	n/a	wordpools/wordpool_EN.txt	SOUP	11	16	n/a	n/a	pyFR	0	UP028
2670.02	2.703	2403286	WORD	n/a	wordpools/wordpool_EN.txt	BREAD	12	16	n/a	n/a	pyFR	0	UP028
2672.723	2.505	2404670	WORD	n/a	wordpools/wordpool_EN.txt	SUN	13	16	n/a	n/a	pyFR	0	UP028
2675.228	2.655	2405953	WORD	n/a	wordpools/wordpool_EN.txt	TOY	14	16	n/a	n/a	pyFR	0	UP028
2677.883	1.619	2407312	WORD	n/a	wordpools/wordpool_EN.txt	GLASS	15	16	n/a	n/a	pyFR	0	UP028
2679.502	1.085	2408141	START	n/a	n/a	n/a	n/a	16	[-999 -999 -999]	-999	pyFR	0	UP028
2680.587	9.366	2408697	PROB	9.335	n/a	n/a	n/a	16	[8 6 4]	18	pyFR	0	UP028
2689.953	4.59	2413493	PROB	4.56	n/a	n/a	n/a	16	[8 6 2]	16	pyFR	0	UP028
2694.543	4.676	2415843	PROB	4.652	n/a	n/a	n/a	16	[2 9 6]	17	pyFR	0	UP028
2699.219	4.536	2418237	PROB	4.536	n/a	n/a	n/a	16	[2 5 7]	1	pyFR	0	UP028
2703.755	1.107	2420560	STOP	n/a	n/a	n/a	n/a	16	[-999 -999 -999]	-999	pyFR	0	UP028
2704.862	0.0	2421126	REC_START	n/a	n/a	n/a	-999	16	n/a	n/a	pyFR	0	UP028
2704.862	1.0	2421126	REC_WORD_VV	0.0	n/a	<>	-999	16	n/a	n/a	pyFR	0	UP028
2705.862	1.0	2421638	REC_WORD_VV	1.0	n/a	<>	-999	16	n/a	n/a	pyFR	0	UP028
2706.862	1.0	2422150	REC_WORD_VV	2.0	n/a	<>	-999	16	n/a	n/a	pyFR	0	UP028
2707.862	1.0	2422662	REC_WORD_VV	3.0	n/a	<>	-999	16	n/a	n/a	pyFR	0	UP028
2708.862	1.0	2423174	REC_WORD_VV	4.0	n/a	<>	-999	16	n/a	n/a	pyFR	0	UP028
2709.862	7.536	2423687	REC_WORD_VV	5.0	n/a	<>	-999	16	n/a	n/a	pyFR	0	UP028
2717.398	14.448	2427545	REC_WORD	12.536	n/a	BOAT	-999	16	n/a	n/a	pyFR	0	UP028
2731.846	1.808	2434943	REC_WORD	26.984	n/a	SUN	-999	16	n/a	n/a	pyFR	0	UP028
2733.654	6.272	2435869	REC_WORD	28.792	n/a	GLASS	-999	16	n/a	n/a	pyFR	0	UP028
2739.926	855.534	2439080	REC_WORD	35.064	n/a	PICNIC	-999	16	n/a	n/a	pyFR	0	UP028
3595.46	0.075	2877139	SESS_END	n/a	n/a	n/a	-999	16	n/a	n/a	pyFR	0	UP028
3595.535	0.0	2877177	E	n/a	n/a	n/a	-999	16	n/a	n/a	pyFR	0	UP028
