onset	duration	sample	trial_type	response_time	stim_file	item_name	serialpos	list	test	answer	experiment	session	subject
0.0	0.001	1953738	B	n/a	n/a	n/a	-999	-999	n/a	n/a	pyFR	1	TJ001
0.001	41.85	1953738	SESS_START	n/a	n/a	n/a	-999	-999	n/a	n/a	pyFR	1	TJ001
41.851	0.502	1970472	START	n/a	n/a	n/a	n/a	0	[-999 -999 -999]	-999	pyFR	1	TJ001
42.353	2.625	1970673	PROB	n/a	n/a	n/a	n/a	0	[1 6 1]	8	pyFR	1	TJ001
44.978	1.84	1971723	PROB	n/a	n/a	n/a	n/a	0	[2 1 8]	11	pyFR	1	TJ001
46.818	1.756	1972459	PROB	n/a	n/a	n/a	n/a	0	[4 8 1]	13	pyFR	1	TJ001
48.574	4.081	1973161	PROB	n/a	n/a	n/a	n/a	0	[9 5 6]	20	pyFR	1	TJ001
52.655	2.241	1974793	PROB	n/a	n/a	n/a	n/a	0	[7 2 6]	15	pyFR	1	TJ001
54.896	2.141	1975690	PROB	n/a	n/a	n/a	n/a	0	[2 3 8]	14	pyFR	1	TJ001
57.037	4.901	1976546	PROB	n/a	n/a	n/a	n/a	0	[4 9 6]	18	pyFR	1	TJ001
61.938	3.296	1978507	PROB	n/a	n/a	n/a	n/a	0	[6 5 7]	18	pyFR	1	TJ001
65.234	2.559	1979825	PROB	n/a	n/a	n/a	n/a	0	[3 3 9]	15	pyFR	1	TJ001
67.793	5.686	1980849	PROB	n/a	n/a	n/a	n/a	0	[7 7 7]	21	pyFR	1	TJ001
73.479	20.893	1983123	STOP	n/a	n/a	n/a	n/a	0	[-999 -999 -999]	-999	pyFR	1	TJ001
94.372	0.016	1991487	TRIAL	n/a	n/a	n/a	-999	-999	n/a	n/a	pyFR	1	TJ001
94.388	2.642	1991494	ORIENT	n/a	n/a	n/a	-999	-999	n/a	n/a	pyFR	1	TJ001
97.03	2.576	1992550	WORD	n/a	wordpools/wordpool_EN.txt	CAVE	1	1	n/a	n/a	pyFR	1	TJ001
99.606	2.425	1993581	WORD	n/a	wordpools/wordpool_EN.txt	EAR	2	1	n/a	n/a	pyFR	1	TJ001
102.031	2.543	1994551	WORD	n/a	wordpools/wordpool_EN.txt	COAT	3	1	n/a	n/a	pyFR	1	TJ001
104.574	2.693	1995568	WORD	n/a	wordpools/wordpool_EN.txt	MAIL	4	1	n/a	n/a	pyFR	1	TJ001
107.267	2.759	1996645	WORD	n/a	wordpools/wordpool_EN.txt	SPEAR	5	1	n/a	n/a	pyFR	1	TJ001
110.026	2.442	1997749	WORD	n/a	wordpools/wordpool_EN.txt	GRAPE	6	1	n/a	n/a	pyFR	1	TJ001
112.468	2.811	1998726	WORD	n/a	wordpools/wordpool_EN.txt	SKUNK	7	1	n/a	n/a	pyFR	1	TJ001
115.279	2.441	1999850	WORD	n/a	wordpools/wordpool_EN.txt	MULE	8	1	n/a	n/a	pyFR	1	TJ001
117.72	2.744	2000826	WORD	n/a	wordpools/wordpool_EN.txt	WEB	9	1	n/a	n/a	pyFR	1	TJ001
120.464	2.592	2001924	WORD	n/a	wordpools/wordpool_EN.txt	ROOM	10	1	n/a	n/a	pyFR	1	TJ001
123.056	2.592	2002961	WORD	n/a	wordpools/wordpool_EN.txt	DAD	11	1	n/a	n/a	pyFR	1	TJ001
125.648	2.493	2003998	WORD	n/a	wordpools/wordpool_EN.txt	HAND	12	1	n/a	n/a	pyFR	1	TJ001
128.141	2.525	2004995	WORD	n/a	wordpools/wordpool_EN.txt	RAIN	13	1	n/a	n/a	pyFR	1	TJ001
130.666	2.694	2006005	WORD	n/a	wordpools/wordpool_EN.txt	OAK	14	1	n/a	n/a	pyFR	1	TJ001
133.36	1.608	2007082	WORD	n/a	wordpools/wordpool_EN.txt	BELL	15	1	n/a	n/a	pyFR	1	TJ001
134.968	0.884	2007719	START	n/a	n/a	n/a	n/a	1	[-999 -999 -999]	-999	pyFR	1	TJ001
135.852	3.278	2008072	PROB	n/a	n/a	n/a	n/a	1	[8 5 3]	16	pyFR	1	TJ001
139.13	2.927	2009384	PROB	n/a	n/a	n/a	n/a	1	[4 4 1]	9	pyFR	1	TJ001
142.057	2.342	2010555	PROB	n/a	n/a	n/a	n/a	1	[1 1 7]	9	pyFR	1	TJ001
144.399	4.348	2011491	PROB	n/a	n/a	n/a	n/a	1	[2 7 1]	10	pyFR	1	TJ001
148.747	1.656	2013231	PROB	n/a	n/a	n/a	n/a	1	[1 9 6]	16	pyFR	1	TJ001
150.403	4.682	2013893	PROB	n/a	n/a	n/a	n/a	1	[9 4 7]	20	pyFR	1	TJ001
155.085	1.533	2015766	STOP	n/a	n/a	n/a	n/a	1	[-999 -999 -999]	-999	pyFR	1	TJ001
156.618	0.374	2016386	REC_START	n/a	n/a	n/a	-999	-999	n/a	n/a	pyFR	1	TJ001
156.992	1.127	2016535	REC_WORD	1.127	n/a	SPEAR	-999	1	n/a	n/a	pyFR	1	TJ001
158.119	1.239	2016986	REC_WORD	1.239	n/a	SKUNK	-999	1	n/a	n/a	pyFR	1	TJ001
159.358	1.376	2017482	REC_WORD	1.376	n/a	CAVE	-999	1	n/a	n/a	pyFR	1	TJ001
160.734	1.275	2018032	REC_WORD	1.275	n/a	DAD	-999	1	n/a	n/a	pyFR	1	TJ001
162.009	1.096	2018542	REC_WORD	1.096	n/a	COAT	-999	1	n/a	n/a	pyFR	1	TJ001
163.105	1.081	2018981	REC_WORD	1.081	n/a	ROOM	-999	1	n/a	n/a	pyFR	1	TJ001
164.186	7.341	2019413	REC_WORD	7.341	n/a	WEB	-999	1	n/a	n/a	pyFR	1	TJ001
171.527	2.492	2022349	REC_WORD	2.492	n/a	HAND	-999	1	n/a	n/a	pyFR	1	TJ001
174.019	30.126	2023346	REC_WORD	30.126	n/a	OAK	-999	1	n/a	n/a	pyFR	1	TJ001
204.145	0.017	2035397	TRIAL	n/a	n/a	n/a	-999	-999	n/a	n/a	pyFR	1	TJ001
204.162	2.659	2035403	ORIENT	n/a	n/a	n/a	-999	-999	n/a	n/a	pyFR	1	TJ001
206.821	2.56	2036467	WORD	n/a	wordpools/wordpool_EN.txt	LEAF	1	2	n/a	n/a	pyFR	1	TJ001
209.381	2.592	2037491	WORD	n/a	wordpools/wordpool_EN.txt	JAR	2	2	n/a	n/a	pyFR	1	TJ001
211.973	2.442	2038528	WORD	n/a	wordpools/wordpool_EN.txt	ROOT	3	2	n/a	n/a	pyFR	1	TJ001
214.415	2.776	2039505	WORD	n/a	wordpools/wordpool_EN.txt	HILL	4	2	n/a	n/a	pyFR	1	TJ001
217.191	2.743	2040615	WORD	n/a	wordpools/wordpool_EN.txt	BOARD	5	2	n/a	n/a	pyFR	1	TJ001
219.934	2.676	2041712	WORD	n/a	wordpools/wordpool_EN.txt	FRUIT	6	2	n/a	n/a	pyFR	1	TJ001
222.61	2.426	2042783	WORD	n/a	wordpools/wordpool_EN.txt	STONE	7	2	n/a	n/a	pyFR	1	TJ001
225.036	2.659	2043753	WORD	n/a	wordpools/wordpool_EN.txt	HOSE	8	2	n/a	n/a	pyFR	1	TJ001
227.695	2.544	2044817	WORD	n/a	wordpools/wordpool_EN.txt	CART	9	2	n/a	n/a	pyFR	1	TJ001
230.239	2.775	2045834	WORD	n/a	wordpools/wordpool_EN.txt	CASH	10	2	n/a	n/a	pyFR	1	TJ001
233.014	2.509	2046944	WORD	n/a	wordpools/wordpool_EN.txt	SHARK	11	2	n/a	n/a	pyFR	1	TJ001
235.523	2.711	2047948	WORD	n/a	wordpools/wordpool_EN.txt	CAPE	12	2	n/a	n/a	pyFR	1	TJ001
238.234	2.424	2049032	WORD	n/a	wordpools/wordpool_EN.txt	STEAK	13	2	n/a	n/a	pyFR	1	TJ001
240.658	2.777	2050002	WORD	n/a	wordpools/wordpool_EN.txt	BEAK	14	2	n/a	n/a	pyFR	1	TJ001
243.435	1.609	2051113	WORD	n/a	wordpools/wordpool_EN.txt	FOX	15	2	n/a	n/a	pyFR	1	TJ001
245.044	0.883	2051750	START	n/a	n/a	n/a	n/a	2	[-999 -999 -999]	-999	pyFR	1	TJ001
245.927	4.316	2052103	PROB	n/a	n/a	n/a	n/a	2	[9 8 9]	26	pyFR	1	TJ001
250.243	3.111	2053829	PROB	n/a	n/a	n/a	n/a	2	[4 1 8]	13	pyFR	1	TJ001
253.354	5.151	2055074	PROB	n/a	n/a	n/a	n/a	2	[7 4 2]	13	pyFR	1	TJ001
258.505	3.345	2057134	PROB	n/a	n/a	n/a	n/a	2	[6 9 3]	18	pyFR	1	TJ001
261.85	2.36	2058472	PROB	n/a	n/a	n/a	n/a	2	[1 3 5]	9	pyFR	1	TJ001
264.21	2.271	2059416	PROB	n/a	n/a	n/a	n/a	2	[5 2 6]	13	pyFR	1	TJ001
266.481	1.175	2060324	STOP	n/a	n/a	n/a	n/a	2	[-999 -999 -999]	-999	pyFR	1	TJ001
267.656	1.337	2060801	REC_START	n/a	n/a	n/a	-999	-999	n/a	n/a	pyFR	1	TJ001
268.993	0.838	2061336	REC_WORD	0.838	n/a	BEAK	-999	2	n/a	n/a	pyFR	1	TJ001
269.831	1.879	2061671	REC_WORD	1.879	n/a	FOX	-999	2	n/a	n/a	pyFR	1	TJ001
271.71	2.292	2062423	REC_WORD	2.292	n/a	CAPE	-999	2	n/a	n/a	pyFR	1	TJ001
274.002	11.446	2063340	REC_WORD	11.446	n/a	BOARD	-999	2	n/a	n/a	pyFR	1	TJ001
285.448	29.508	2067918	REC_WORD	29.508	n/a	FRUIT	-999	2	n/a	n/a	pyFR	1	TJ001
314.956	0.017	2079721	TRIAL	n/a	n/a	n/a	-999	-999	n/a	n/a	pyFR	1	TJ001
314.973	2.927	2079728	ORIENT	n/a	n/a	n/a	-999	-999	n/a	n/a	pyFR	1	TJ001
317.9	2.81	2080899	WORD	n/a	wordpools/wordpool_EN.txt	FLAG	1	3	n/a	n/a	pyFR	1	TJ001
320.71	2.66	2082023	WORD	n/a	wordpools/wordpool_EN.txt	GLOVE	2	3	n/a	n/a	pyFR	1	TJ001
323.37	2.458	2083087	WORD	n/a	wordpools/wordpool_EN.txt	ARM	3	3	n/a	n/a	pyFR	1	TJ001
325.828	2.727	2084070	WORD	n/a	wordpools/wordpool_EN.txt	GUARD	4	3	n/a	n/a	pyFR	1	TJ001
328.555	2.475	2085161	WORD	n/a	wordpools/wordpool_EN.txt	SOUP	5	3	n/a	n/a	pyFR	1	TJ001
331.03	2.425	2086151	WORD	n/a	wordpools/wordpool_EN.txt	FILM	6	3	n/a	n/a	pyFR	1	TJ001
333.455	2.543	2087121	WORD	n/a	wordpools/wordpool_EN.txt	SEAT	7	3	n/a	n/a	pyFR	1	TJ001
335.998	2.81	2088138	WORD	n/a	wordpools/wordpool_EN.txt	BIRD	8	3	n/a	n/a	pyFR	1	TJ001
338.808	2.642	2089262	WORD	n/a	wordpools/wordpool_EN.txt	ELF	9	3	n/a	n/a	pyFR	1	TJ001
341.45	2.693	2090319	WORD	n/a	wordpools/wordpool_EN.txt	ARK	10	3	n/a	n/a	pyFR	1	TJ001
344.143	2.794	2091396	WORD	n/a	wordpools/wordpool_EN.txt	PIE	11	3	n/a	n/a	pyFR	1	TJ001
346.937	2.525	2092514	WORD	n/a	wordpools/wordpool_EN.txt	FISH	12	3	n/a	n/a	pyFR	1	TJ001
349.462	2.66	2093524	WORD	n/a	wordpools/wordpool_EN.txt	SOAP	13	3	n/a	n/a	pyFR	1	TJ001
352.122	2.525	2094588	WORD	n/a	wordpools/wordpool_EN.txt	FOOT	14	3	n/a	n/a	pyFR	1	TJ001
354.647	1.611	2095598	WORD	n/a	wordpools/wordpool_EN.txt	TOOTH	15	3	n/a	n/a	pyFR	1	TJ001
356.258	1.0	2096236	START	n/a	n/a	n/a	n/a	3	[-999 -999 -999]	-999	pyFR	1	TJ001
357.258	3.027	2096636	PROB	n/a	n/a	n/a	n/a	3	[9 5 5]	19	pyFR	1	TJ001
360.285	3.679	2097846	PROB	n/a	n/a	n/a	n/a	3	[9 2 6]	17	pyFR	1	TJ001
363.964	2.726	2099318	PROB	n/a	n/a	n/a	n/a	3	[8 8 8]	24	pyFR	1	TJ001
366.69	2.694	2100408	PROB	n/a	n/a	n/a	n/a	3	[1 7 8]	16	pyFR	1	TJ001
369.384	2.174	2101486	PROB	n/a	n/a	n/a	n/a	3	[5 6 2]	13	pyFR	1	TJ001
371.558	1.589	2102356	PROB	n/a	n/a	n/a	n/a	3	[9 1 6]	16	pyFR	1	TJ001
373.147	3.963	2102991	PROB	n/a	n/a	n/a	n/a	3	[7 9 9]	25	pyFR	1	TJ001
377.11	1.107	2104576	STOP	n/a	n/a	n/a	n/a	3	[-999 -999 -999]	-999	pyFR	1	TJ001
378.217	2.179	2105026	REC_START	n/a	n/a	n/a	-999	-999	n/a	n/a	pyFR	1	TJ001
380.396	1.364	2105898	REC_WORD	1.364	n/a	GUARD	-999	3	n/a	n/a	pyFR	1	TJ001
381.76	2.162	2106443	REC_WORD	2.162	n/a	FOOT	-999	3	n/a	n/a	pyFR	1	TJ001
383.922	3.021	2107308	REC_WORD	3.021	n/a	ARM	-999	3	n/a	n/a	pyFR	1	TJ001
386.943	4.801	2108516	REC_WORD	4.801	n/a	PIE	-999	3	n/a	n/a	pyFR	1	TJ001
391.744	33.59	2110437	REC_WORD	33.59	n/a	BIRD	-999	3	n/a	n/a	pyFR	1	TJ001
425.334	0.016	2123873	TRIAL	n/a	n/a	n/a	-999	-999	n/a	n/a	pyFR	1	TJ001
425.35	2.844	2123879	ORIENT	n/a	n/a	n/a	-999	-999	n/a	n/a	pyFR	1	TJ001
428.194	2.658	2125017	WORD	n/a	wordpools/wordpool_EN.txt	TOE	1	4	n/a	n/a	pyFR	1	TJ001
430.852	2.777	2126080	WORD	n/a	wordpools/wordpool_EN.txt	VASE	2	4	n/a	n/a	pyFR	1	TJ001
433.629	2.761	2127191	WORD	n/a	wordpools/wordpool_EN.txt	EEL	3	4	n/a	n/a	pyFR	1	TJ001
436.39	2.541	2128295	WORD	n/a	wordpools/wordpool_EN.txt	VEST	4	4	n/a	n/a	pyFR	1	TJ001
438.931	2.76	2129312	WORD	n/a	wordpools/wordpool_EN.txt	HOLE	5	4	n/a	n/a	pyFR	1	TJ001
441.691	2.743	2130416	WORD	n/a	wordpools/wordpool_EN.txt	BREAD	6	4	n/a	n/a	pyFR	1	TJ001
444.434	2.743	2131513	WORD	n/a	wordpools/wordpool_EN.txt	BOY	7	4	n/a	n/a	pyFR	1	TJ001
447.177	2.542	2132610	WORD	n/a	wordpools/wordpool_EN.txt	SINK	8	4	n/a	n/a	pyFR	1	TJ001
449.719	2.76	2133627	WORD	n/a	wordpools/wordpool_EN.txt	JET	9	4	n/a	n/a	pyFR	1	TJ001
452.479	2.459	2134731	WORD	n/a	wordpools/wordpool_EN.txt	GEESE	10	4	n/a	n/a	pyFR	1	TJ001
454.938	2.626	2135715	WORD	n/a	wordpools/wordpool_EN.txt	SLEEVE	11	4	n/a	n/a	pyFR	1	TJ001
457.564	2.727	2136765	WORD	n/a	wordpools/wordpool_EN.txt	MOLE	12	4	n/a	n/a	pyFR	1	TJ001
460.291	2.609	2137856	WORD	n/a	wordpools/wordpool_EN.txt	LEG	13	4	n/a	n/a	pyFR	1	TJ001
462.9	2.793	2138899	WORD	n/a	wordpools/wordpool_EN.txt	QUEEN	14	4	n/a	n/a	pyFR	1	TJ001
465.693	1.61	2140017	WORD	n/a	wordpools/wordpool_EN.txt	DOG	15	4	n/a	n/a	pyFR	1	TJ001
467.303	0.849	2140654	START	n/a	n/a	n/a	n/a	4	[-999 -999 -999]	-999	pyFR	1	TJ001
468.152	5.553	2140993	PROB	n/a	n/a	n/a	n/a	4	[5 2 9]	16	pyFR	1	TJ001
473.705	4.5	2143215	PROB	n/a	n/a	n/a	n/a	4	[6 4 9]	19	pyFR	1	TJ001
478.205	1.973	2145015	PROB	n/a	n/a	n/a	n/a	4	[5 5 1]	11	pyFR	1	TJ001
480.178	3.429	2145804	PROB	n/a	n/a	n/a	n/a	4	[4 2 2]	8	pyFR	1	TJ001
483.607	2.793	2147175	PROB	n/a	n/a	n/a	n/a	4	[5 8 3]	16	pyFR	1	TJ001
486.4	2.543	2148293	PROB	n/a	n/a	n/a	n/a	4	[1 5 4]	10	pyFR	1	TJ001
488.943	1.105	2149310	STOP	n/a	n/a	n/a	n/a	4	[-999 -999 -999]	-999	pyFR	1	TJ001
490.048	1.16	2149759	REC_START	n/a	n/a	n/a	-999	-999	n/a	n/a	pyFR	1	TJ001
491.208	2.125	2150223	REC_WORD	2.125	n/a	GEESE	-999	4	n/a	n/a	pyFR	1	TJ001
493.333	8.307	2151073	REC_WORD	8.307	n/a	SLEEVE	-999	4	n/a	n/a	pyFR	1	TJ001
501.64	2.163	2154396	REC_WORD	2.163	n/a	TOE	-999	4	n/a	n/a	pyFR	1	TJ001
503.803	5.548	2155261	REC_WORD	5.548	n/a	BOY	-999	4	n/a	n/a	pyFR	1	TJ001
509.351	28.148	2157480	REC_WORD	28.148	n/a	EEL	-999	4	n/a	n/a	pyFR	1	TJ001
537.499	0.016	2168739	TRIAL	n/a	n/a	n/a	-999	-999	n/a	n/a	pyFR	1	TJ001
537.515	2.677	2168746	ORIENT	n/a	n/a	n/a	-999	-999	n/a	n/a	pyFR	1	TJ001
540.192	2.542	2169816	WORD	n/a	wordpools/wordpool_EN.txt	PLANT	1	5	n/a	n/a	pyFR	1	TJ001
542.734	2.76	2170833	WORD	n/a	wordpools/wordpool_EN.txt	BEAR	2	5	n/a	n/a	pyFR	1	TJ001
545.494	2.643	2171937	WORD	n/a	wordpools/wordpool_EN.txt	BOMB	3	5	n/a	n/a	pyFR	1	TJ001
548.137	2.559	2172994	WORD	n/a	wordpools/wordpool_EN.txt	SHIRT	4	5	n/a	n/a	pyFR	1	TJ001
550.696	2.627	2174018	WORD	n/a	wordpools/wordpool_EN.txt	NET	5	5	n/a	n/a	pyFR	1	TJ001
553.323	2.809	2175069	WORD	n/a	wordpools/wordpool_EN.txt	GATE	6	5	n/a	n/a	pyFR	1	TJ001
556.132	2.659	2176193	WORD	n/a	wordpools/wordpool_EN.txt	BALL	7	5	n/a	n/a	pyFR	1	TJ001
558.791	2.477	2177256	WORD	n/a	wordpools/wordpool_EN.txt	WALL	8	5	n/a	n/a	pyFR	1	TJ001
561.268	2.441	2178247	WORD	n/a	wordpools/wordpool_EN.txt	MAT	9	5	n/a	n/a	pyFR	1	TJ001
563.709	2.61	2179223	WORD	n/a	wordpools/wordpool_EN.txt	FLEA	10	5	n/a	n/a	pyFR	1	TJ001
566.319	2.491	2180267	WORD	n/a	wordpools/wordpool_EN.txt	CHEEK	11	5	n/a	n/a	pyFR	1	TJ001
568.81	2.66	2181264	WORD	n/a	wordpools/wordpool_EN.txt	RAT	12	5	n/a	n/a	pyFR	1	TJ001
571.47	2.509	2182328	WORD	n/a	wordpools/wordpool_EN.txt	STEM	13	5	n/a	n/a	pyFR	1	TJ001
573.979	2.693	2183331	WORD	n/a	wordpools/wordpool_EN.txt	WAND	14	5	n/a	n/a	pyFR	1	TJ001
576.672	1.61	2184409	WORD	n/a	wordpools/wordpool_EN.txt	WORLD	15	5	n/a	n/a	pyFR	1	TJ001
578.282	1.067	2185046	START	n/a	n/a	n/a	n/a	5	[-999 -999 -999]	-999	pyFR	1	TJ001
579.349	5.602	2185473	PROB	n/a	n/a	n/a	n/a	5	[7 8 9]	24	pyFR	1	TJ001
584.951	2.476	2187713	PROB	n/a	n/a	n/a	n/a	5	[2 6 9]	17	pyFR	1	TJ001
587.427	2.124	2188704	PROB	n/a	n/a	n/a	n/a	5	[7 2 4]	13	pyFR	1	TJ001
589.551	3.714	2189553	PROB	n/a	n/a	n/a	n/a	5	[9 8 4]	21	pyFR	1	TJ001
593.265	1.672	2191039	PROB	n/a	n/a	n/a	n/a	5	[7 3 1]	11	pyFR	1	TJ001
594.937	2.693	2191708	PROB	n/a	n/a	n/a	n/a	5	[2 6 2]	10	pyFR	1	TJ001
597.63	2.59	2192785	PROB	n/a	n/a	n/a	n/a	5	[4 3 4]	10	pyFR	1	TJ001
600.22	1.075	2193821	STOP	n/a	n/a	n/a	n/a	5	[-999 -999 -999]	-999	pyFR	1	TJ001
601.295	0.943	2194258	REC_START	n/a	n/a	n/a	-999	-999	n/a	n/a	pyFR	1	TJ001
602.238	1.425	2194635	REC_WORD	1.425	n/a	STEM	-999	5	n/a	n/a	pyFR	1	TJ001
603.663	1.091	2195205	REC_WORD	1.091	n/a	WAND	-999	5	n/a	n/a	pyFR	1	TJ001
604.754	5.706	2195641	REC_WORD	5.706	n/a	WORLD	-999	5	n/a	n/a	pyFR	1	TJ001
610.46	12.177	2197924	REC_WORD	12.177	n/a	BEAR	-999	5	n/a	n/a	pyFR	1	TJ001
622.637	2.954	2202795	REC_WORD	2.954	n/a	BALL	-999	5	n/a	n/a	pyFR	1	TJ001
625.591	23.624	2203976	REC_WORD	23.624	n/a	WALL	-999	5	n/a	n/a	pyFR	1	TJ001
649.215	0.016	2213426	TRIAL	n/a	n/a	n/a	-999	-999	n/a	n/a	pyFR	1	TJ001
649.231	2.859	2213432	ORIENT	n/a	n/a	n/a	-999	-999	n/a	n/a	pyFR	1	TJ001
652.09	2.66	2214576	WORD	n/a	wordpools/wordpool_EN.txt	SKY	1	6	n/a	n/a	pyFR	1	TJ001
654.75	2.693	2215640	WORD	n/a	wordpools/wordpool_EN.txt	SPARK	2	6	n/a	n/a	pyFR	1	TJ001
657.443	2.626	2216717	WORD	n/a	wordpools/wordpool_EN.txt	SWAMP	3	6	n/a	n/a	pyFR	1	TJ001
660.069	2.659	2217768	WORD	n/a	wordpools/wordpool_EN.txt	BAT	4	6	n/a	n/a	pyFR	1	TJ001
662.728	2.425	2218831	WORD	n/a	wordpools/wordpool_EN.txt	ROCK	5	6	n/a	n/a	pyFR	1	TJ001
665.153	2.493	2219801	WORD	n/a	wordpools/wordpool_EN.txt	WEED	6	6	n/a	n/a	pyFR	1	TJ001
667.646	2.727	2220798	WORD	n/a	wordpools/wordpool_EN.txt	VAN	7	6	n/a	n/a	pyFR	1	TJ001
670.373	2.725	2221889	WORD	n/a	wordpools/wordpool_EN.txt	SUIT	8	6	n/a	n/a	pyFR	1	TJ001
673.098	2.777	2222979	WORD	n/a	wordpools/wordpool_EN.txt	STICK	9	6	n/a	n/a	pyFR	1	TJ001
675.875	2.593	2224090	WORD	n/a	wordpools/wordpool_EN.txt	DOOR	10	6	n/a	n/a	pyFR	1	TJ001
678.468	2.458	2225127	WORD	n/a	wordpools/wordpool_EN.txt	WHEEL	11	6	n/a	n/a	pyFR	1	TJ001
680.926	2.76	2226110	WORD	n/a	wordpools/wordpool_EN.txt	LIP	12	6	n/a	n/a	pyFR	1	TJ001
683.686	2.56	2227214	WORD	n/a	wordpools/wordpool_EN.txt	SIGN	13	6	n/a	n/a	pyFR	1	TJ001
686.246	2.542	2228238	WORD	n/a	wordpools/wordpool_EN.txt	PIPE	14	6	n/a	n/a	pyFR	1	TJ001
688.788	1.609	2229255	WORD	n/a	wordpools/wordpool_EN.txt	YARD	15	6	n/a	n/a	pyFR	1	TJ001
690.397	1.15	2229892	START	n/a	n/a	n/a	n/a	6	[-999 -999 -999]	-999	pyFR	1	TJ001
691.547	2.994	2230352	PROB	n/a	n/a	n/a	n/a	6	[1 8 6]	15	pyFR	1	TJ001
694.541	2.661	2231550	PROB	n/a	n/a	n/a	n/a	6	[5 6 8]	19	pyFR	1	TJ001
697.202	2.675	2232614	PROB	n/a	n/a	n/a	n/a	6	[7 7 3]	17	pyFR	1	TJ001
699.877	3.228	2233684	PROB	n/a	n/a	n/a	n/a	6	[7 1 8]	16	pyFR	1	TJ001
703.105	4.416	2234975	PROB	n/a	n/a	n/a	n/a	6	[9 8 5]	2	pyFR	1	TJ001
707.521	2.308	2236742	PROB	n/a	n/a	n/a	n/a	6	[2 3 6]	11	pyFR	1	TJ001
709.829	3.268	2237665	PROB	n/a	n/a	n/a	n/a	6	[1 7 8]	16	pyFR	1	TJ001
713.097	1.1	2238972	STOP	n/a	n/a	n/a	n/a	6	[-999 -999 -999]	-999	pyFR	1	TJ001
714.197	1.73	2239419	REC_START	n/a	n/a	n/a	-999	-999	n/a	n/a	pyFR	1	TJ001
715.927	1.303	2240111	REC_WORD	1.303	n/a	DOOR	-999	6	n/a	n/a	pyFR	1	TJ001
717.23	2.208	2240632	REC_WORD	2.208	n/a	WEED	-999	6	n/a	n/a	pyFR	1	TJ001
719.438	10.895	2241515	REC_WORD	10.895	n/a	WHEEL	-999	6	n/a	n/a	pyFR	1	TJ001
730.333	34.526	2245873	REC_WORD	34.526	n/a	SKY	-999	6	n/a	n/a	pyFR	1	TJ001
764.859	0.016	2259684	TRIAL	n/a	n/a	n/a	-999	-999	n/a	n/a	pyFR	1	TJ001
764.875	2.827	2259690	ORIENT	n/a	n/a	n/a	-999	-999	n/a	n/a	pyFR	1	TJ001
767.702	2.627	2260821	WORD	n/a	wordpools/wordpool_EN.txt	SEAL	1	7	n/a	n/a	pyFR	1	TJ001
770.329	2.625	2261872	WORD	n/a	wordpools/wordpool_EN.txt	PLATE	2	7	n/a	n/a	pyFR	1	TJ001
772.954	2.726	2262922	WORD	n/a	wordpools/wordpool_EN.txt	DOLL	3	7	n/a	n/a	pyFR	1	TJ001
775.68	2.777	2264012	WORD	n/a	wordpools/wordpool_EN.txt	CLOCK	4	7	n/a	n/a	pyFR	1	TJ001
778.457	2.726	2265123	WORD	n/a	wordpools/wordpool_EN.txt	CUP	5	7	n/a	n/a	pyFR	1	TJ001
781.183	2.576	2266214	WORD	n/a	wordpools/wordpool_EN.txt	CAKE	6	7	n/a	n/a	pyFR	1	TJ001
783.759	2.81	2267244	WORD	n/a	wordpools/wordpool_EN.txt	SMILE	7	7	n/a	n/a	pyFR	1	TJ001
786.569	2.459	2268368	WORD	n/a	wordpools/wordpool_EN.txt	STRAW	8	7	n/a	n/a	pyFR	1	TJ001
789.028	2.442	2269352	WORD	n/a	wordpools/wordpool_EN.txt	ICE	9	7	n/a	n/a	pyFR	1	TJ001
791.47	2.492	2270328	WORD	n/a	wordpools/wordpool_EN.txt	EGG	10	7	n/a	n/a	pyFR	1	TJ001
793.962	2.81	2271325	WORD	n/a	wordpools/wordpool_EN.txt	SEA	11	7	n/a	n/a	pyFR	1	TJ001
796.772	2.76	2272449	WORD	n/a	wordpools/wordpool_EN.txt	PANTS	12	7	n/a	n/a	pyFR	1	TJ001
799.532	2.526	2273553	WORD	n/a	wordpools/wordpool_EN.txt	GIRL	13	7	n/a	n/a	pyFR	1	TJ001
802.058	2.659	2274564	WORD	n/a	wordpools/wordpool_EN.txt	BOWL	14	7	n/a	n/a	pyFR	1	TJ001
804.717	1.61	2275627	WORD	n/a	wordpools/wordpool_EN.txt	FUDGE	15	7	n/a	n/a	pyFR	1	TJ001
806.327	0.867	2276264	START	n/a	n/a	n/a	n/a	7	[-999 -999 -999]	-999	pyFR	1	TJ001
807.194	2.775	2276611	PROB	n/a	n/a	n/a	n/a	7	[3 7 5]	15	pyFR	1	TJ001
809.969	2.007	2277721	PROB	n/a	n/a	n/a	n/a	7	[8 8 1]	17	pyFR	1	TJ001
811.976	2.393	2278524	PROB	n/a	n/a	n/a	n/a	7	[2 9 4]	15	pyFR	1	TJ001
814.369	2.894	2279481	PROB	n/a	n/a	n/a	n/a	7	[3 9 9]	21	pyFR	1	TJ001
817.263	2.407	2280639	PROB	n/a	n/a	n/a	n/a	7	[1 3 6]	10	pyFR	1	TJ001
819.67	2.091	2281602	PROB	n/a	n/a	n/a	n/a	7	[4 3 5]	12	pyFR	1	TJ001
821.761	1.807	2282438	PROB	n/a	n/a	n/a	n/a	7	[3 9 1]	13	pyFR	1	TJ001
823.568	3.105	2283161	PROB	n/a	n/a	n/a	n/a	7	[5 7 2]	14	pyFR	1	TJ001
826.673	1.078	2284403	STOP	n/a	n/a	n/a	n/a	7	[-999 -999 -999]	-999	pyFR	1	TJ001
827.751	1.6	2284841	REC_START	n/a	n/a	n/a	-999	-999	n/a	n/a	pyFR	1	TJ001
829.351	1.503	2285481	REC_WORD	1.503	n/a	SEAL	-999	7	n/a	n/a	pyFR	1	TJ001
830.854	1.317	2286082	REC_WORD	1.317	n/a	CLOCK	-999	7	n/a	n/a	pyFR	1	TJ001
832.171	10.954	2286609	REC_WORD	10.954	n/a	GIRL	-999	7	n/a	n/a	pyFR	1	TJ001
843.125	31.759	2290991	REC_WORD	31.759	n/a	ICE	-999	7	n/a	n/a	pyFR	1	TJ001
874.884	0.017	2303694	TRIAL	n/a	n/a	n/a	-999	-999	n/a	n/a	pyFR	1	TJ001
874.901	3.01	2303701	ORIENT	n/a	n/a	n/a	-999	-999	n/a	n/a	pyFR	1	TJ001
877.911	2.46	2304905	WORD	n/a	wordpools/wordpool_EN.txt	STORM	1	8	n/a	n/a	pyFR	1	TJ001
880.371	2.709	2305889	WORD	n/a	wordpools/wordpool_EN.txt	SPOON	2	8	n/a	n/a	pyFR	1	TJ001
883.08	2.442	2306973	WORD	n/a	wordpools/wordpool_EN.txt	TIE	3	8	n/a	n/a	pyFR	1	TJ001
885.522	2.642	2307949	WORD	n/a	wordpools/wordpool_EN.txt	TOAST	4	8	n/a	n/a	pyFR	1	TJ001
888.164	2.509	2309006	WORD	n/a	wordpools/wordpool_EN.txt	BRIDGE	5	8	n/a	n/a	pyFR	1	TJ001
890.673	2.577	2310010	WORD	n/a	wordpools/wordpool_EN.txt	WING	6	8	n/a	n/a	pyFR	1	TJ001
893.25	2.809	2311041	WORD	n/a	wordpools/wordpool_EN.txt	CROW	7	8	n/a	n/a	pyFR	1	TJ001
896.059	2.81	2312164	WORD	n/a	wordpools/wordpool_EN.txt	CALF	8	8	n/a	n/a	pyFR	1	TJ001
898.869	2.777	2313288	WORD	n/a	wordpools/wordpool_EN.txt	FARM	9	8	n/a	n/a	pyFR	1	TJ001
901.646	2.577	2314399	WORD	n/a	wordpools/wordpool_EN.txt	CAGE	10	8	n/a	n/a	pyFR	1	TJ001
904.223	2.591	2315430	WORD	n/a	wordpools/wordpool_EN.txt	WOLF	11	8	n/a	n/a	pyFR	1	TJ001
906.814	2.777	2316466	WORD	n/a	wordpools/wordpool_EN.txt	BENCH	12	8	n/a	n/a	pyFR	1	TJ001
909.591	2.627	2317577	WORD	n/a	wordpools/wordpool_EN.txt	TOY	13	8	n/a	n/a	pyFR	1	TJ001
912.218	2.524	2318628	WORD	n/a	wordpools/wordpool_EN.txt	MAP	14	8	n/a	n/a	pyFR	1	TJ001
914.742	1.61	2319638	WORD	n/a	wordpools/wordpool_EN.txt	MILK	15	8	n/a	n/a	pyFR	1	TJ001
916.352	1.167	2320275	START	n/a	n/a	n/a	n/a	8	[-999 -999 -999]	-999	pyFR	1	TJ001
917.519	3.697	2320742	PROB	n/a	n/a	n/a	n/a	8	[1 4 3]	8	pyFR	1	TJ001
921.216	3.194	2322220	PROB	n/a	n/a	n/a	n/a	8	[9 6 9]	24	pyFR	1	TJ001
924.41	2.225	2323498	PROB	n/a	n/a	n/a	n/a	8	[3 7 3]	13	pyFR	1	TJ001
926.635	3.997	2324388	PROB	n/a	n/a	n/a	n/a	8	[8 9 2]	19	pyFR	1	TJ001
930.632	2.594	2325987	PROB	n/a	n/a	n/a	n/a	8	[3 9 2]	14	pyFR	1	TJ001
933.226	1.922	2327024	PROB	n/a	n/a	n/a	n/a	8	[2 2 2]	6	pyFR	1	TJ001
935.148	2.403	2327793	PROB	n/a	n/a	n/a	n/a	8	[9 3 1]	13	pyFR	1	TJ001
937.551	1.145	2328754	STOP	n/a	n/a	n/a	n/a	8	[-999 -999 -999]	-999	pyFR	1	TJ001
938.696	0.874	2329219	REC_START	n/a	n/a	n/a	-999	-999	n/a	n/a	pyFR	1	TJ001
939.57	1.218	2329569	REC_WORD	1.218	n/a	MILK	-999	8	n/a	n/a	pyFR	1	TJ001
940.788	2.15	2330056	REC_WORD	2.15	n/a	MAP	-999	8	n/a	n/a	pyFR	1	TJ001
942.938	1.643	2330916	REC_WORD	1.643	n/a	BOY	-999	8	n/a	n/a	pyFR	1	TJ001
944.581	41.482	2331573	REC_WORD	41.482	n/a	TOY	-999	8	n/a	n/a	pyFR	1	TJ001
986.063	0.017	2348166	TRIAL	n/a	n/a	n/a	-999	-999	n/a	n/a	pyFR	1	TJ001
986.08	3.01	2348173	ORIENT	n/a	n/a	n/a	-999	-999	n/a	n/a	pyFR	1	TJ001
989.09	2.493	2349377	WORD	n/a	wordpools/wordpool_EN.txt	CUBE	1	9	n/a	n/a	pyFR	1	TJ001
991.583	2.694	2350374	WORD	n/a	wordpools/wordpool_EN.txt	SNAKE	2	9	n/a	n/a	pyFR	1	TJ001
994.277	2.541	2351452	WORD	n/a	wordpools/wordpool_EN.txt	DOCK	3	9	n/a	n/a	pyFR	1	TJ001
996.818	2.543	2352468	WORD	n/a	wordpools/wordpool_EN.txt	MAZE	4	9	n/a	n/a	pyFR	1	TJ001
999.361	2.776	2353485	WORD	n/a	wordpools/wordpool_EN.txt	CHIEF	5	9	n/a	n/a	pyFR	1	TJ001
1002.137	2.475	2354596	WORD	n/a	wordpools/wordpool_EN.txt	FLUTE	6	9	n/a	n/a	pyFR	1	TJ001
1004.612	2.493	2355586	WORD	n/a	wordpools/wordpool_EN.txt	TRAY	7	9	n/a	n/a	pyFR	1	TJ001
1007.105	2.626	2356583	WORD	n/a	wordpools/wordpool_EN.txt	PEA	8	9	n/a	n/a	pyFR	1	TJ001
1009.731	2.643	2357633	WORD	n/a	wordpools/wordpool_EN.txt	APE	9	9	n/a	n/a	pyFR	1	TJ001
1012.374	2.492	2358691	WORD	n/a	wordpools/wordpool_EN.txt	FORT	10	9	n/a	n/a	pyFR	1	TJ001
1014.866	2.776	2359687	WORD	n/a	wordpools/wordpool_EN.txt	PIT	11	9	n/a	n/a	pyFR	1	TJ001
1017.642	2.509	2360798	WORD	n/a	wordpools/wordpool_EN.txt	THUMB	12	9	n/a	n/a	pyFR	1	TJ001
1020.151	2.676	2361801	WORD	n/a	wordpools/wordpool_EN.txt	BLOOM	13	9	n/a	n/a	pyFR	1	TJ001
1022.827	2.46	2362872	WORD	n/a	wordpools/wordpool_EN.txt	BAG	14	9	n/a	n/a	pyFR	1	TJ001
1025.287	1.608	2363856	WORD	n/a	wordpools/wordpool_EN.txt	SOCK	15	9	n/a	n/a	pyFR	1	TJ001
1026.895	1.101	2364492	START	n/a	n/a	n/a	n/a	9	[-999 -999 -999]	-999	pyFR	1	TJ001
1027.996	3.797	2364933	PROB	n/a	n/a	n/a	n/a	9	[3 5 2]	9	pyFR	1	TJ001
1031.793	2.876	2366451	PROB	n/a	n/a	n/a	n/a	9	[6 6 1]	13	pyFR	1	TJ001
1034.669	2.944	2367602	PROB	n/a	n/a	n/a	n/a	9	[3 8 3]	13	pyFR	1	TJ001
1037.613	3.028	2368780	PROB	n/a	n/a	n/a	n/a	9	[1 7 6]	15	pyFR	1	TJ001
1040.641	3.496	2369991	PROB	n/a	n/a	n/a	n/a	9	[2 4 1]	7	pyFR	1	TJ001
1044.137	2.856	2371389	PROB	n/a	n/a	n/a	n/a	9	[8 4 4]	20	pyFR	1	TJ001
1046.993	1.142	2372532	STOP	n/a	n/a	n/a	n/a	9	[-999 -999 -999]	-999	pyFR	1	TJ001
1048.135	2.074	2372995	REC_START	n/a	n/a	n/a	-999	-999	n/a	n/a	pyFR	1	TJ001
1050.209	2.909	2373825	REC_WORD	2.909	n/a	SOCK	-999	9	n/a	n/a	pyFR	1	TJ001
1053.118	3.747	2374988	REC_WORD	3.747	n/a	FORT	-999	9	n/a	n/a	pyFR	1	TJ001
1056.865	1.624	2376487	REC_WORD	1.624	n/a	PEA	-999	9	n/a	n/a	pyFR	1	TJ001
1058.489	1.172	2377137	REC_WORD	1.172	n/a	APE	-999	9	n/a	n/a	pyFR	1	TJ001
1059.661	1.874	2377606	REC_WORD	1.874	n/a	TRAY	-999	9	n/a	n/a	pyFR	1	TJ001
1061.535	9.038	2378355	REC_WORD	9.038	n/a	CUBE	-999	9	n/a	n/a	pyFR	1	TJ001
1070.573	24.814	2381970	REC_WORD	24.814	n/a	SNAKE	-999	9	n/a	n/a	pyFR	1	TJ001
1095.387	0.015	2391896	TRIAL	n/a	n/a	n/a	-999	-999	n/a	n/a	pyFR	1	TJ001
1095.402	2.962	2391902	ORIENT	n/a	n/a	n/a	-999	-999	n/a	n/a	pyFR	1	TJ001
1098.364	2.608	2393087	WORD	n/a	wordpools/wordpool_EN.txt	TRASH	1	10	n/a	n/a	pyFR	1	TJ001
1100.972	2.593	2394130	WORD	n/a	wordpools/wordpool_EN.txt	WORM	2	10	n/a	n/a	pyFR	1	TJ001
1103.565	2.442	2395167	WORD	n/a	wordpools/wordpool_EN.txt	VINE	3	10	n/a	n/a	pyFR	1	TJ001
1106.007	2.626	2396144	WORD	n/a	wordpools/wordpool_EN.txt	TANK	4	10	n/a	n/a	pyFR	1	TJ001
1108.633	2.694	2397195	WORD	n/a	wordpools/wordpool_EN.txt	HEN	5	10	n/a	n/a	pyFR	1	TJ001
1111.327	2.692	2398272	WORD	n/a	wordpools/wordpool_EN.txt	BARN	6	10	n/a	n/a	pyFR	1	TJ001
1114.019	2.576	2399349	WORD	n/a	wordpools/wordpool_EN.txt	JUDGE	7	10	n/a	n/a	pyFR	1	TJ001
1116.595	2.71	2400379	WORD	n/a	wordpools/wordpool_EN.txt	KEY	8	10	n/a	n/a	pyFR	1	TJ001
1119.305	2.592	2401463	WORD	n/a	wordpools/wordpool_EN.txt	FAN	9	10	n/a	n/a	pyFR	1	TJ001
1121.897	2.526	2402500	WORD	n/a	wordpools/wordpool_EN.txt	HAWK	10	10	n/a	n/a	pyFR	1	TJ001
1124.423	2.442	2403511	WORD	n/a	wordpools/wordpool_EN.txt	SLIME	11	10	n/a	n/a	pyFR	1	TJ001
1126.865	2.776	2404487	WORD	n/a	wordpools/wordpool_EN.txt	CLAY	12	10	n/a	n/a	pyFR	1	TJ001
1129.641	2.744	2405598	WORD	n/a	wordpools/wordpool_EN.txt	KING	13	10	n/a	n/a	pyFR	1	TJ001
1132.385	2.441	2406695	WORD	n/a	wordpools/wordpool_EN.txt	PEN	14	10	n/a	n/a	pyFR	1	TJ001
1134.826	1.609	2407672	WORD	n/a	wordpools/wordpool_EN.txt	CHALK	15	10	n/a	n/a	pyFR	1	TJ001
1136.435	1.118	2408309	START	n/a	n/a	n/a	n/a	10	[-999 -999 -999]	-999	pyFR	1	TJ001
1137.553	3.546	2408756	PROB	n/a	n/a	n/a	n/a	10	[8 7 6]	18	pyFR	1	TJ001
1141.099	2.391	2410174	PROB	n/a	n/a	n/a	n/a	10	[3 7 6]	16	pyFR	1	TJ001
1143.49	2.292	2411131	PROB	n/a	n/a	n/a	n/a	10	[3 9 2]	14	pyFR	1	TJ001
1145.782	2.375	2412047	PROB	n/a	n/a	n/a	n/a	10	[3 7 8]	18	pyFR	1	TJ001
1148.157	3.011	2412997	PROB	n/a	n/a	n/a	n/a	10	[6 1 3]	12	pyFR	1	TJ001
1151.168	4.149	2414202	PROB	n/a	n/a	n/a	n/a	10	[7 8 2]	17	pyFR	1	TJ001
1155.317	2.423	2415861	PROB	n/a	n/a	n/a	n/a	10	[5 8 5]	18	pyFR	1	TJ001
1157.74	1.24	2416831	STOP	n/a	n/a	n/a	n/a	10	[-999 -999 -999]	-999	pyFR	1	TJ001
1158.98	1.308	2417333	REC_START	n/a	n/a	n/a	-999	-999	n/a	n/a	pyFR	1	TJ001
1160.288	1.293	2417857	REC_WORD	1.293	n/a	CLAY	-999	10	n/a	n/a	pyFR	1	TJ001
1161.581	1.234	2418374	REC_WORD	1.234	n/a	CHALK	-999	10	n/a	n/a	pyFR	1	TJ001
1162.815	3.343	2418867	REC_WORD	3.343	n/a	WORM	-999	10	n/a	n/a	pyFR	1	TJ001
1166.158	2.216	2420205	REC_WORD	2.216	n/a	PEN	-999	10	n/a	n/a	pyFR	1	TJ001
1168.374	45.216	2421091	REC_WORD	45.216	n/a	HEN	-999	10	n/a	n/a	pyFR	1	TJ001
1213.59	0.017	2439178	TRIAL	n/a	n/a	n/a	-999	-999	n/a	n/a	pyFR	1	TJ001
1213.607	2.91	2439184	ORIENT	n/a	n/a	n/a	-999	-999	n/a	n/a	pyFR	1	TJ001
1216.517	2.509	2440348	WORD	n/a	wordpools/wordpool_EN.txt	WAVE	1	11	n/a	n/a	pyFR	1	TJ001
1219.026	2.793	2441352	WORD	n/a	wordpools/wordpool_EN.txt	TAPE	2	11	n/a	n/a	pyFR	1	TJ001
1221.819	2.544	2442469	WORD	n/a	wordpools/wordpool_EN.txt	INK	3	11	n/a	n/a	pyFR	1	TJ001
1224.363	2.608	2443487	WORD	n/a	wordpools/wordpool_EN.txt	HOUSE	4	11	n/a	n/a	pyFR	1	TJ001
1226.971	2.509	2444530	WORD	n/a	wordpools/wordpool_EN.txt	STREET	5	11	n/a	n/a	pyFR	1	TJ001
1229.48	2.542	2445534	WORD	n/a	wordpools/wordpool_EN.txt	JAIL	6	11	n/a	n/a	pyFR	1	TJ001
1232.022	2.677	2446550	WORD	n/a	wordpools/wordpool_EN.txt	SEED	7	11	n/a	n/a	pyFR	1	TJ001
1234.699	2.743	2447621	WORD	n/a	wordpools/wordpool_EN.txt	BADGE	8	11	n/a	n/a	pyFR	1	TJ001
1237.442	2.761	2448718	WORD	n/a	wordpools/wordpool_EN.txt	STRING	9	11	n/a	n/a	pyFR	1	TJ001
1240.203	2.424	2449823	WORD	n/a	wordpools/wordpool_EN.txt	ROAD	10	11	n/a	n/a	pyFR	1	TJ001
1242.627	2.542	2450792	WORD	n/a	wordpools/wordpool_EN.txt	CORN	11	11	n/a	n/a	pyFR	1	TJ001
1245.169	2.459	2451809	WORD	n/a	wordpools/wordpool_EN.txt	MUD	12	11	n/a	n/a	pyFR	1	TJ001
1247.628	2.594	2452793	WORD	n/a	wordpools/wordpool_EN.txt	PALM	13	11	n/a	n/a	pyFR	1	TJ001
1250.222	2.474	2453831	WORD	n/a	wordpools/wordpool_EN.txt	JUICE	14	11	n/a	n/a	pyFR	1	TJ001
1252.696	1.61	2454820	WORD	n/a	wordpools/wordpool_EN.txt	LOCK	15	11	n/a	n/a	pyFR	1	TJ001
1254.306	0.815	2455457	START	n/a	n/a	n/a	n/a	11	[-999 -999 -999]	-999	pyFR	1	TJ001
1255.121	3.163	2455783	PROB	n/a	n/a	n/a	n/a	11	[9 8 7]	24	pyFR	1	TJ001
1258.284	7.76	2457049	PROB	n/a	n/a	n/a	n/a	11	[6 9 8]	23	pyFR	1	TJ001
1266.044	3.027	2460153	PROB	n/a	n/a	n/a	n/a	11	[4 7 1]	14	pyFR	1	TJ001
1269.071	2.226	2461363	PROB	n/a	n/a	n/a	n/a	11	[9 7 1]	17	pyFR	1	TJ001
1271.297	2.541	2462254	PROB	n/a	n/a	n/a	n/a	11	[7 3 8]	18	pyFR	1	TJ001
1273.838	2.935	2463270	PROB	n/a	n/a	n/a	n/a	11	[9 4 5]	18	pyFR	1	TJ001
1276.773	1.098	2464444	STOP	n/a	n/a	n/a	n/a	11	[-999 -999 -999]	-999	pyFR	1	TJ001
1277.871	4.914	2464890	REC_START	n/a	n/a	n/a	-999	-999	n/a	n/a	pyFR	1	TJ001
1282.785	0.891	2466856	REC_WORD	0.891	n/a	HOUSE	-999	11	n/a	n/a	pyFR	1	TJ001
1283.676	0.894	2467212	REC_WORD	0.894	n/a	ROAD	-999	11	n/a	n/a	pyFR	1	TJ001
1284.57	2.786	2467570	REC_WORD	2.786	n/a	STREET	-999	11	n/a	n/a	pyFR	1	TJ001
1287.356	1.039	2468684	REC_WORD	1.039	n/a	CORN	-999	11	n/a	n/a	pyFR	1	TJ001
1288.395	36.827	2469100	REC_WORD	36.827	n/a	JUICE	-999	11	n/a	n/a	pyFR	1	TJ001
1325.222	0.017	2483831	TRIAL	n/a	n/a	n/a	-999	-999	n/a	n/a	pyFR	1	TJ001
1325.239	2.909	2483838	ORIENT	n/a	n/a	n/a	-999	-999	n/a	n/a	pyFR	1	TJ001
1328.148	2.543	2485001	WORD	n/a	wordpools/wordpool_EN.txt	BEE	1	12	n/a	n/a	pyFR	1	TJ001
1330.691	2.627	2486018	WORD	n/a	wordpools/wordpool_EN.txt	BRANCH	2	12	n/a	n/a	pyFR	1	TJ001
1333.318	2.658	2487069	WORD	n/a	wordpools/wordpool_EN.txt	STOOL	3	12	n/a	n/a	pyFR	1	TJ001
1335.976	2.559	2488132	WORD	n/a	wordpools/wordpool_EN.txt	GRASS	4	12	n/a	n/a	pyFR	1	TJ001
1338.535	2.626	2489156	WORD	n/a	wordpools/wordpool_EN.txt	DART	5	12	n/a	n/a	pyFR	1	TJ001
1341.161	2.442	2490206	WORD	n/a	wordpools/wordpool_EN.txt	SNAIL	6	12	n/a	n/a	pyFR	1	TJ001
1343.603	2.644	2491183	WORD	n/a	wordpools/wordpool_EN.txt	STORE	7	12	n/a	n/a	pyFR	1	TJ001
1346.247	2.508	2492241	WORD	n/a	wordpools/wordpool_EN.txt	PIN	8	12	n/a	n/a	pyFR	1	TJ001
1348.755	2.76	2493244	WORD	n/a	wordpools/wordpool_EN.txt	OAR	9	12	n/a	n/a	pyFR	1	TJ001
1351.515	2.492	2494348	WORD	n/a	wordpools/wordpool_EN.txt	PET	10	12	n/a	n/a	pyFR	1	TJ001
1354.007	2.659	2495345	WORD	n/a	wordpools/wordpool_EN.txt	PEACH	11	12	n/a	n/a	pyFR	1	TJ001
1356.666	2.644	2496408	WORD	n/a	wordpools/wordpool_EN.txt	SALT	12	12	n/a	n/a	pyFR	1	TJ001
1359.31	2.542	2497466	WORD	n/a	wordpools/wordpool_EN.txt	RIB	13	12	n/a	n/a	pyFR	1	TJ001
1361.852	2.409	2498483	WORD	n/a	wordpools/wordpool_EN.txt	TOOL	14	12	n/a	n/a	pyFR	1	TJ001
1364.261	1.608	2499446	WORD	n/a	wordpools/wordpool_EN.txt	FOG	15	12	n/a	n/a	pyFR	1	TJ001
1365.869	0.917	2500083	START	n/a	n/a	n/a	n/a	12	[-999 -999 -999]	-999	pyFR	1	TJ001
1366.786	2.107	2500450	PROB	n/a	n/a	n/a	n/a	12	[4 2 1]	7	pyFR	1	TJ001
1368.893	2.559	2501292	PROB	n/a	n/a	n/a	n/a	12	[8 1 6]	15	pyFR	1	TJ001
1371.452	4.768	2502316	PROB	n/a	n/a	n/a	n/a	12	[4 9 6]	17	pyFR	1	TJ001
1376.22	4.115	2504223	PROB	n/a	n/a	n/a	n/a	12	[8 1 3]	13	pyFR	1	TJ001
1380.335	3.177	2505869	PROB	n/a	n/a	n/a	n/a	12	[1 6 7]	14	pyFR	1	TJ001
1383.512	4.086	2507140	PROB	n/a	n/a	n/a	n/a	12	[5 7 1]	13	pyFR	1	TJ001
1387.598	1.05	2508775	STOP	n/a	n/a	n/a	n/a	12	[-999 -999 -999]	-999	pyFR	1	TJ001
1388.648	1.127	2509201	REC_START	n/a	n/a	n/a	-999	-999	n/a	n/a	pyFR	1	TJ001
1389.775	0.967	2509652	REC_WORD	0.967	n/a	RIB	-999	12	n/a	n/a	pyFR	1	TJ001
1390.742	1.379	2510039	REC_WORD	1.379	n/a	FOG	-999	12	n/a	n/a	pyFR	1	TJ001
1392.121	36.392	2510591	REC_WORD	36.392	n/a	TOOL	-999	12	n/a	n/a	pyFR	1	TJ001
1428.513	0.828	2525147	REC_WORD	0.828	n/a	BEE	-999	12	n/a	n/a	pyFR	1	TJ001
1429.341	9.602	2525479	REC_WORD	9.602	n/a	BRANCH	-999	12	n/a	n/a	pyFR	1	TJ001
1438.943	0.016	2529319	TRIAL	n/a	n/a	n/a	-999	-999	n/a	n/a	pyFR	1	TJ001
1438.959	2.794	2529326	ORIENT	n/a	n/a	n/a	-999	-999	n/a	n/a	pyFR	1	TJ001
1441.753	2.593	2530443	WORD	n/a	wordpools/wordpool_EN.txt	SAIL	1	13	n/a	n/a	pyFR	1	TJ001
1444.346	2.742	2531481	WORD	n/a	wordpools/wordpool_EN.txt	CARD	2	13	n/a	n/a	pyFR	1	TJ001
1447.088	2.543	2532577	WORD	n/a	wordpools/wordpool_EN.txt	BOOT	3	13	n/a	n/a	pyFR	1	TJ001
1449.631	2.442	2533595	WORD	n/a	wordpools/wordpool_EN.txt	CROWN	4	13	n/a	n/a	pyFR	1	TJ001
1452.073	2.626	2534572	WORD	n/a	wordpools/wordpool_EN.txt	TRUCK	5	13	n/a	n/a	pyFR	1	TJ001
1454.699	2.593	2535622	WORD	n/a	wordpools/wordpool_EN.txt	CLOWN	6	13	n/a	n/a	pyFR	1	TJ001
1457.292	2.743	2536659	WORD	n/a	wordpools/wordpool_EN.txt	TRAIN	7	13	n/a	n/a	pyFR	1	TJ001
1460.035	2.659	2537756	WORD	n/a	wordpools/wordpool_EN.txt	HORN	8	13	n/a	n/a	pyFR	1	TJ001
1462.694	2.492	2538820	WORD	n/a	wordpools/wordpool_EN.txt	FACE	9	13	n/a	n/a	pyFR	1	TJ001
1465.186	2.71	2539817	WORD	n/a	wordpools/wordpool_EN.txt	DESK	10	13	n/a	n/a	pyFR	1	TJ001
1467.896	2.827	2540901	WORD	n/a	wordpools/wordpool_EN.txt	PURSE	11	13	n/a	n/a	pyFR	1	TJ001
1470.723	2.643	2542032	WORD	n/a	wordpools/wordpool_EN.txt	CRANE	12	13	n/a	n/a	pyFR	1	TJ001
1473.366	2.441	2543089	WORD	n/a	wordpools/wordpool_EN.txt	MOUTH	13	13	n/a	n/a	pyFR	1	TJ001
1475.807	2.527	2544065	WORD	n/a	wordpools/wordpool_EN.txt	POOL	14	13	n/a	n/a	pyFR	1	TJ001
1478.334	1.608	2545076	WORD	n/a	wordpools/wordpool_EN.txt	ROPE	15	13	n/a	n/a	pyFR	1	TJ001
1479.942	1.051	2545712	START	n/a	n/a	n/a	n/a	13	[-999 -999 -999]	-999	pyFR	1	TJ001
1480.993	4.081	2546133	PROB	n/a	n/a	n/a	n/a	13	[2 2 4]	8	pyFR	1	TJ001
1485.074	2.676	2547765	PROB	n/a	n/a	n/a	n/a	13	[2 7 5]	19	pyFR	1	TJ001
1487.75	3.261	2548836	PROB	n/a	n/a	n/a	n/a	13	[5 6 9]	20	pyFR	1	TJ001
1491.011	2.426	2550140	PROB	n/a	n/a	n/a	n/a	13	[4 4 3]	11	pyFR	1	TJ001
1493.437	2.726	2551110	PROB	n/a	n/a	n/a	n/a	13	[2 4 7]	14	pyFR	1	TJ001
1496.163	2.911	2552201	PROB	n/a	n/a	n/a	n/a	13	[4 2 9]	17	pyFR	1	TJ001
1499.074	5.435	2553365	PROB	n/a	n/a	n/a	n/a	13	[5 7 7]	19	pyFR	1	TJ001
1504.509	1.206	2555539	STOP	n/a	n/a	n/a	n/a	13	[-999 -999 -999]	-999	pyFR	1	TJ001
1505.715	1.977	2556028	REC_START	n/a	n/a	n/a	-999	-999	n/a	n/a	pyFR	1	TJ001
1507.692	1.592	2556819	REC_WORD	1.592	n/a	ROPE	-999	13	n/a	n/a	pyFR	1	TJ001
1509.284	3.257	2557456	REC_WORD	3.257	n/a	BOOT	-999	13	n/a	n/a	pyFR	1	TJ001
1512.541	40.441	2558759	REC_WORD	40.441	n/a	CROWN	-999	13	n/a	n/a	pyFR	1	TJ001
1552.982	0.017	2574935	TRIAL	n/a	n/a	n/a	-999	-999	n/a	n/a	pyFR	1	TJ001
1552.999	2.961	2574942	ORIENT	n/a	n/a	n/a	-999	-999	n/a	n/a	pyFR	1	TJ001
1555.96	2.609	2576127	WORD	n/a	wordpools/wordpool_EN.txt	CAR	1	14	n/a	n/a	pyFR	1	TJ001
1558.569	2.66	2577170	WORD	n/a	wordpools/wordpool_EN.txt	FLAME	2	14	n/a	n/a	pyFR	1	TJ001
1561.229	2.492	2578234	WORD	n/a	wordpools/wordpool_EN.txt	FENCE	3	14	n/a	n/a	pyFR	1	TJ001
1563.721	2.493	2579231	WORD	n/a	wordpools/wordpool_EN.txt	SHOE	4	14	n/a	n/a	pyFR	1	TJ001
1566.214	2.591	2580228	WORD	n/a	wordpools/wordpool_EN.txt	WHALE	5	14	n/a	n/a	pyFR	1	TJ001
1568.805	2.61	2581265	WORD	n/a	wordpools/wordpool_EN.txt	SHIELD	6	14	n/a	n/a	pyFR	1	TJ001
1571.415	2.492	2582309	WORD	n/a	wordpools/wordpool_EN.txt	FLOOR	7	14	n/a	n/a	pyFR	1	TJ001
1573.907	2.542	2583305	WORD	n/a	wordpools/wordpool_EN.txt	DIME	8	14	n/a	n/a	pyFR	1	TJ001
1576.449	2.542	2584322	WORD	n/a	wordpools/wordpool_EN.txt	MOUSE	9	14	n/a	n/a	pyFR	1	TJ001
1578.991	2.476	2585339	WORD	n/a	wordpools/wordpool_EN.txt	SCHOOL	10	14	n/a	n/a	pyFR	1	TJ001
1581.467	2.794	2586329	WORD	n/a	wordpools/wordpool_EN.txt	NAIL	11	14	n/a	n/a	pyFR	1	TJ001
1584.261	2.575	2587447	WORD	n/a	wordpools/wordpool_EN.txt	FOAM	12	14	n/a	n/a	pyFR	1	TJ001
1586.836	2.743	2588477	WORD	n/a	wordpools/wordpool_EN.txt	OWL	13	14	n/a	n/a	pyFR	1	TJ001
1589.579	2.744	2589574	WORD	n/a	wordpools/wordpool_EN.txt	BLUSH	14	14	n/a	n/a	pyFR	1	TJ001
1592.323	1.608	2590672	WORD	n/a	wordpools/wordpool_EN.txt	JEEP	15	14	n/a	n/a	pyFR	1	TJ001
1593.931	0.917	2591308	START	n/a	n/a	n/a	n/a	14	[-999 -999 -999]	-999	pyFR	1	TJ001
1594.848	5.971	2591675	PROB	n/a	n/a	n/a	n/a	14	[8 4 4]	16	pyFR	1	TJ001
1600.819	2.544	2594064	PROB	n/a	n/a	n/a	n/a	14	[6 7 4]	18	pyFR	1	TJ001
1603.363	5.001	2595081	PROB	n/a	n/a	n/a	n/a	14	[9 6 7]	22	pyFR	1	TJ001
1608.364	3.595	2597082	PROB	n/a	n/a	n/a	n/a	14	[4 6 5]	15	pyFR	1	TJ001
1611.959	3.107	2598520	PROB	n/a	n/a	n/a	n/a	14	[5 7 7]	19	pyFR	1	TJ001
1615.066	1.211	2599762	STOP	n/a	n/a	n/a	n/a	14	[-999 -999 -999]	-999	pyFR	1	TJ001
1616.277	1.128	2600254	REC_START	n/a	n/a	n/a	-999	-999	n/a	n/a	pyFR	1	TJ001
1617.405	0.919	2600705	REC_WORD	0.919	n/a	BLUSH	-999	14	n/a	n/a	pyFR	1	TJ001
1618.324	1.291	2601072	REC_WORD	1.291	n/a	JEEP	-999	14	n/a	n/a	pyFR	1	TJ001
1619.615	1.18	2601589	REC_WORD	1.18	n/a	CAR	-999	14	n/a	n/a	pyFR	1	TJ001
1620.795	42.33	2602061	REC_WORD	42.33	n/a	OWL	-999	14	n/a	n/a	pyFR	1	TJ001
1663.125	0.016	2618993	TRIAL	n/a	n/a	n/a	-999	-999	n/a	n/a	pyFR	1	TJ001
1663.141	2.927	2618999	ORIENT	n/a	n/a	n/a	-999	-999	n/a	n/a	pyFR	1	TJ001
1666.068	2.543	2620170	WORD	n/a	wordpools/wordpool_EN.txt	HOOF	1	15	n/a	n/a	pyFR	1	TJ001
1668.611	2.458	2621187	WORD	n/a	wordpools/wordpool_EN.txt	MOOSE	2	15	n/a	n/a	pyFR	1	TJ001
1671.069	2.459	2622171	WORD	n/a	wordpools/wordpool_EN.txt	BOX	3	15	n/a	n/a	pyFR	1	TJ001
1673.528	3.463	2623154	WORD	n/a	wordpools/wordpool_EN.txt	TREE	4	15	n/a	n/a	pyFR	1	TJ001
1676.991	2.743	2624539	WORD	n/a	wordpools/wordpool_EN.txt	TEA	5	15	n/a	n/a	pyFR	1	TJ001
1679.734	2.493	2625637	WORD	n/a	wordpools/wordpool_EN.txt	CHAIR	6	15	n/a	n/a	pyFR	1	TJ001
1682.227	2.709	2626634	WORD	n/a	wordpools/wordpool_EN.txt	TAIL	7	15	n/a	n/a	pyFR	1	TJ001
1684.936	2.81	2627717	WORD	n/a	wordpools/wordpool_EN.txt	POLE	8	15	n/a	n/a	pyFR	1	TJ001
1687.746	2.61	2628841	WORD	n/a	wordpools/wordpool_EN.txt	LAND	9	15	n/a	n/a	pyFR	1	TJ001
1690.356	2.792	2629885	WORD	n/a	wordpools/wordpool_EN.txt	DITCH	10	15	n/a	n/a	pyFR	1	TJ001
1693.148	2.793	2631002	WORD	n/a	wordpools/wordpool_EN.txt	HAT	11	15	n/a	n/a	pyFR	1	TJ001
1695.941	2.459	2632119	WORD	n/a	wordpools/wordpool_EN.txt	HEART	12	15	n/a	n/a	pyFR	1	TJ001
1698.4	2.593	2633103	WORD	n/a	wordpools/wordpool_EN.txt	BRUSH	13	15	n/a	n/a	pyFR	1	TJ001
1700.993	2.642	2634140	WORD	n/a	wordpools/wordpool_EN.txt	CLOUD	14	15	n/a	n/a	pyFR	1	TJ001
1703.635	1.611	2635197	WORD	n/a	wordpools/wordpool_EN.txt	STAIR	15	15	n/a	n/a	pyFR	1	TJ001
1705.246	0.983	2635835	START	n/a	n/a	n/a	n/a	15	[-999 -999 -999]	-999	pyFR	1	TJ001
1706.229	2.96	2636228	PROB	n/a	n/a	n/a	n/a	15	[9 1 6]	16	pyFR	1	TJ001
1709.189	2.843	2637412	PROB	n/a	n/a	n/a	n/a	15	[8 7 1]	16	pyFR	1	TJ001
1712.032	2.609	2638549	PROB	n/a	n/a	n/a	n/a	15	[1 5 4]	10	pyFR	1	TJ001
1714.641	2.661	2639593	PROB	n/a	n/a	n/a	n/a	15	[3 3 8]	14	pyFR	1	TJ001
1717.302	2.458	2640657	PROB	n/a	n/a	n/a	n/a	15	[3 1 1]	5	pyFR	1	TJ001
1719.76	4.55	2641640	PROB	n/a	n/a	n/a	n/a	15	[3 5 9]	17	pyFR	1	TJ001
1724.31	3.191	2643460	PROB	n/a	n/a	n/a	n/a	15	[8 9 6]	25	pyFR	1	TJ001
1727.501	1.142	2644737	STOP	n/a	n/a	n/a	n/a	15	[-999 -999 -999]	-999	pyFR	1	TJ001
1728.643	2.532	2645200	REC_START	n/a	n/a	n/a	-999	-999	n/a	n/a	pyFR	1	TJ001
1731.175	3.111	2646213	REC_WORD	3.111	n/a	POLE	-999	15	n/a	n/a	pyFR	1	TJ001
1734.286	12.46	2647458	REC_WORD	12.46	n/a	DITCH	-999	15	n/a	n/a	pyFR	1	TJ001
1746.746	3.185	2652442	REC_WORD	3.185	n/a	BRUSH	-999	15	n/a	n/a	pyFR	1	TJ001
1749.931	26.196	2653716	REC_WORD	26.196	n/a	LAND	-999	15	n/a	n/a	pyFR	1	TJ001
1776.127	0.017	2664194	TRIAL	n/a	n/a	n/a	-999	-999	n/a	n/a	pyFR	1	TJ001
1776.144	2.944	2664201	ORIENT	n/a	n/a	n/a	-999	-999	n/a	n/a	pyFR	1	TJ001
1779.088	2.626	2665378	WORD	n/a	wordpools/wordpool_EN.txt	SPRING	1	16	n/a	n/a	pyFR	1	TJ001
1781.714	2.793	2666429	WORD	n/a	wordpools/wordpool_EN.txt	FROG	2	16	n/a	n/a	pyFR	1	TJ001
1784.507	2.542	2667546	WORD	n/a	wordpools/wordpool_EN.txt	COIN	3	16	n/a	n/a	pyFR	1	TJ001
1787.049	2.593	2668563	WORD	n/a	wordpools/wordpool_EN.txt	CLIFF	4	16	n/a	n/a	pyFR	1	TJ001
1789.642	2.66	2669600	WORD	n/a	wordpools/wordpool_EN.txt	GOAT	5	16	n/a	n/a	pyFR	1	TJ001
1792.302	2.659	2670664	WORD	n/a	wordpools/wordpool_EN.txt	MOON	6	16	n/a	n/a	pyFR	1	TJ001
1794.961	2.426	2671728	WORD	n/a	wordpools/wordpool_EN.txt	BED	7	16	n/a	n/a	pyFR	1	TJ001
1797.387	2.424	2672698	WORD	n/a	wordpools/wordpool_EN.txt	SLUSH	8	16	n/a	n/a	pyFR	1	TJ001
1799.811	2.743	2673668	WORD	n/a	wordpools/wordpool_EN.txt	LAMP	9	16	n/a	n/a	pyFR	1	TJ001
1802.554	2.443	2674765	WORD	n/a	wordpools/wordpool_EN.txt	CLOTH	10	16	n/a	n/a	pyFR	1	TJ001
1804.997	2.726	2675742	WORD	n/a	wordpools/wordpool_EN.txt	RAKE	11	16	n/a	n/a	pyFR	1	TJ001
1807.723	2.676	2676833	WORD	n/a	wordpools/wordpool_EN.txt	LAKE	12	16	n/a	n/a	pyFR	1	TJ001
1810.399	2.559	2677903	WORD	n/a	wordpools/wordpool_EN.txt	CAT	13	16	n/a	n/a	pyFR	1	TJ001
1812.958	2.442	2678927	WORD	n/a	wordpools/wordpool_EN.txt	KITE	14	16	n/a	n/a	pyFR	1	TJ001
1815.4	1.609	2679903	WORD	n/a	wordpools/wordpool_EN.txt	THREAD	15	16	n/a	n/a	pyFR	1	TJ001
1817.009	1.067	2680540	START	n/a	n/a	n/a	n/a	16	[-999 -999 -999]	-999	pyFR	1	TJ001
1818.076	2.911	2680967	PROB	n/a	n/a	n/a	n/a	16	[5 6 9]	20	pyFR	1	TJ001
1820.987	6.155	2682131	PROB	n/a	n/a	n/a	n/a	16	[8 3 1]	12	pyFR	1	TJ001
1827.142	1.957	2684593	PROB	n/a	n/a	n/a	n/a	16	[2 6 1]	9	pyFR	1	TJ001
1829.099	3.68	2685376	PROB	n/a	n/a	n/a	n/a	16	[9 6 4]	19	pyFR	1	TJ001
1832.779	2.208	2686848	PROB	n/a	n/a	n/a	n/a	16	[7 2 6]	15	pyFR	1	TJ001
1834.987	2.604	2687731	PROB	n/a	n/a	n/a	n/a	16	[6 5 7]	18	pyFR	1	TJ001
1837.591	1.16	2688773	STOP	n/a	n/a	n/a	n/a	16	[-999 -999 -999]	-999	pyFR	1	TJ001
1838.751	1.041	2689244	REC_START	n/a	n/a	n/a	-999	-999	n/a	n/a	pyFR	1	TJ001
1839.792	1.271	2689660	REC_WORD	1.271	n/a	CLOTH	-999	16	n/a	n/a	pyFR	1	TJ001
1841.063	515.265	2690169	REC_WORD	515.265	n/a	KITE	-999	16	n/a	n/a	pyFR	1	TJ001
2356.328	0.0	2896276	SESS_END	n/a	n/a	n/a	-999	-999	n/a	n/a	pyFR	1	TJ001
2356.328	0.0	2896276	E	n/a	n/a	n/a	-999	-999	n/a	n/a	pyFR	1	TJ001
