onset	duration	sample	trial_type	response_time	stim_file	item_name	serialpos	list	test	answer	experiment	session	subject
0.0	3.713	1007752	E	n/a	n/a	n/a	-999.0	12	n/a	n/a	pyFR	0	TJ080
3.713	0.001	1011465	B	n/a	n/a	n/a	-999.0	-999	n/a	n/a	pyFR	0	TJ080
3.714	67.591	1011466	SESS_START	n/a	n/a	n/a	-999.0	-999	n/a	n/a	pyFR	0	TJ080
71.305	0.012	1079054	START	n/a	n/a	n/a	n/a	0	[-999 -999 -999]	-999.0	pyFR	0	TJ080
71.317	9.399	1079066	PROB	9.376	n/a	n/a	n/a	0	[4 1 5]	10.0	pyFR	0	TJ080
80.716	11.17	1088465	PROB	11.138	n/a	n/a	n/a	0	[5 6 3]	14.0	pyFR	0	TJ080
91.886	8.981	1099634	PROB	8.952	n/a	n/a	n/a	0	[2 9 5]	16.0	pyFR	0	TJ080
100.867	8.201	1108615	PROB	8.201	n/a	n/a	n/a	0	[6 2 3]	11.0	pyFR	0	TJ080
109.068	71.751	1116816	STOP	n/a	n/a	n/a	n/a	0	[-999 -999 -999]	-999.0	pyFR	0	TJ080
180.819	0.016	1188564	TRIAL	n/a	n/a	n/a	-999.0	1	n/a	n/a	pyFR	0	TJ080
180.835	1.6	1188580	ORIENT	n/a	n/a	n/a	-999.0	1	n/a	n/a	pyFR	0	TJ080
183.706	1.6	1191451	WORD	n/a	wordpools/wordpool_EN.txt	TRAY	1.0	1	n/a	n/a	pyFR	0	TJ080
186.328	1.6	1194073	WORD	n/a	wordpools/wordpool_EN.txt	MOON	2.0	1	n/a	n/a	pyFR	0	TJ080
189.048	1.6	1196793	WORD	n/a	wordpools/wordpool_EN.txt	BOMB	3.0	1	n/a	n/a	pyFR	0	TJ080
191.602	1.6	1199347	WORD	n/a	wordpools/wordpool_EN.txt	CONE	4.0	1	n/a	n/a	pyFR	0	TJ080
194.056	1.6	1201801	WORD	n/a	wordpools/wordpool_EN.txt	SNAIL	5.0	1	n/a	n/a	pyFR	0	TJ080
196.728	1.6	1204473	WORD	n/a	wordpools/wordpool_EN.txt	TEETH	6.0	1	n/a	n/a	pyFR	0	TJ080
199.516	1.6	1207261	WORD	n/a	wordpools/wordpool_EN.txt	ROOF	7.0	1	n/a	n/a	pyFR	0	TJ080
202.137	1.6	1209881	WORD	n/a	wordpools/wordpool_EN.txt	PIE	8.0	1	n/a	n/a	pyFR	0	TJ080
204.926	1.6	1212670	WORD	n/a	wordpools/wordpool_EN.txt	NET	9.0	1	n/a	n/a	pyFR	0	TJ080
207.462	1.6	1215206	WORD	n/a	wordpools/wordpool_EN.txt	PLANT	10.0	1	n/a	n/a	pyFR	0	TJ080
209.901	1.6	1217645	WORD	n/a	wordpools/wordpool_EN.txt	CUBE	11.0	1	n/a	n/a	pyFR	0	TJ080
212.638	1.6	1220382	WORD	n/a	wordpools/wordpool_EN.txt	BOWL	12.0	1	n/a	n/a	pyFR	0	TJ080
215.209	1.6	1222953	WORD	n/a	wordpools/wordpool_EN.txt	TOY	13.0	1	n/a	n/a	pyFR	0	TJ080
217.864	1.6	1225608	WORD	n/a	wordpools/wordpool_EN.txt	DOG	14.0	1	n/a	n/a	pyFR	0	TJ080
220.635	1.6	1228379	WORD	n/a	wordpools/wordpool_EN.txt	MAZE	15.0	1	n/a	n/a	pyFR	0	TJ080
222.238	1.034	1229982	START	n/a	n/a	n/a	n/a	1	[-999 -999 -999]	-999.0	pyFR	0	TJ080
223.272	16.529	1231016	PROB	16.501	n/a	n/a	n/a	1	[4 4 9]	17.0	pyFR	0	TJ080
239.801	6.116	1247544	PROB	6.116	n/a	n/a	n/a	1	[5 2 5]	12.0	pyFR	0	TJ080
245.917	1.031	1253660	STOP	n/a	n/a	n/a	n/a	1	[-999 -999 -999]	-999.0	pyFR	0	TJ080
246.948	2.645	1254691	REC_START	n/a	n/a	n/a	-999.0	1	n/a	n/a	pyFR	0	TJ080
249.593	25.284	1257336	REC_WORD	2.645	n/a	CUBE	-999.0	1	n/a	n/a	pyFR	0	TJ080
274.877	13.871	1282619	REC_WORD	27.929	n/a	SNAIL	-999.0	1	n/a	n/a	pyFR	0	TJ080
288.748	40.954	1296489	REC_WORD	41.8	n/a	NET	-999.0	1	n/a	n/a	pyFR	0	TJ080
329.702	0.016	1337442	TRIAL	n/a	n/a	n/a	-999.0	2	n/a	n/a	pyFR	0	TJ080
329.718	1.6	1337458	ORIENT	n/a	n/a	n/a	-999.0	2	n/a	n/a	pyFR	0	TJ080
332.623	1.6	1340363	WORD	n/a	wordpools/wordpool_EN.txt	FORT	1.0	2	n/a	n/a	pyFR	0	TJ080
335.328	1.6	1343068	WORD	n/a	wordpools/wordpool_EN.txt	GOLD	2.0	2	n/a	n/a	pyFR	0	TJ080
338.082	1.6	1345822	WORD	n/a	wordpools/wordpool_EN.txt	WALL	3.0	2	n/a	n/a	pyFR	0	TJ080
340.554	1.6	1348293	WORD	n/a	wordpools/wordpool_EN.txt	FUR	4.0	2	n/a	n/a	pyFR	0	TJ080
343.007	1.6	1350746	WORD	n/a	wordpools/wordpool_EN.txt	STOVE	5.0	2	n/a	n/a	pyFR	0	TJ080
345.511	1.6	1353250	WORD	n/a	wordpools/wordpool_EN.txt	SHIRT	6.0	2	n/a	n/a	pyFR	0	TJ080
348.233	1.6	1355972	WORD	n/a	wordpools/wordpool_EN.txt	SINK	7.0	2	n/a	n/a	pyFR	0	TJ080
350.77	1.6	1358509	WORD	n/a	wordpools/wordpool_EN.txt	PANTS	8.0	2	n/a	n/a	pyFR	0	TJ080
353.391	1.6	1361130	WORD	n/a	wordpools/wordpool_EN.txt	WAVE	9.0	2	n/a	n/a	pyFR	0	TJ080
355.863	1.6	1363602	WORD	n/a	wordpools/wordpool_EN.txt	FAN	10.0	2	n/a	n/a	pyFR	0	TJ080
358.383	1.6	1366122	WORD	n/a	wordpools/wordpool_EN.txt	SHARK	11.0	2	n/a	n/a	pyFR	0	TJ080
360.855	1.6	1368594	WORD	n/a	wordpools/wordpool_EN.txt	STAIR	12.0	2	n/a	n/a	pyFR	0	TJ080
363.475	1.6	1371214	WORD	n/a	wordpools/wordpool_EN.txt	LAMB	13.0	2	n/a	n/a	pyFR	0	TJ080
365.897	1.6	1373636	WORD	n/a	wordpools/wordpool_EN.txt	GRASS	14.0	2	n/a	n/a	pyFR	0	TJ080
368.35	1.6	1376088	WORD	n/a	wordpools/wordpool_EN.txt	WORLD	15.0	2	n/a	n/a	pyFR	0	TJ080
369.955	0.85	1377693	START	n/a	n/a	n/a	n/a	2	[-999 -999 -999]	-999.0	pyFR	0	TJ080
370.805	13.906	1378543	PROB	13.872	n/a	n/a	n/a	2	[8 7 8]	23.0	pyFR	0	TJ080
384.711	13.606	1392449	PROB	13.606	n/a	n/a	n/a	2	[3 4 3]	10.0	pyFR	0	TJ080
398.317	1.236	1406054	STOP	n/a	n/a	n/a	n/a	2	[-999 -999 -999]	-999.0	pyFR	0	TJ080
399.553	5.788	1407290	REC_START	n/a	n/a	n/a	-999.0	2	n/a	n/a	pyFR	0	TJ080
405.341	2.801	1413078	REC_WORD	5.788	n/a	WALL	-999.0	2	n/a	n/a	pyFR	0	TJ080
408.142	11.152	1415879	REC_WORD	8.589	n/a	SHARK	-999.0	2	n/a	n/a	pyFR	0	TJ080
419.294	30.144	1427031	REC_WORD	19.741	n/a	FOOT	-999.0	2	n/a	n/a	pyFR	0	TJ080
449.438	0.015	1457174	TRIAL	n/a	n/a	n/a	-999.0	3	n/a	n/a	pyFR	0	TJ080
449.453	1.6	1457189	ORIENT	n/a	n/a	n/a	-999.0	3	n/a	n/a	pyFR	0	TJ080
452.358	1.6	1460093	WORD	n/a	wordpools/wordpool_EN.txt	SPOON	1.0	3	n/a	n/a	pyFR	0	TJ080
455.062	1.6	1462797	WORD	n/a	wordpools/wordpool_EN.txt	LIP	2.0	3	n/a	n/a	pyFR	0	TJ080
457.835	1.6	1465570	WORD	n/a	wordpools/wordpool_EN.txt	LAKE	3.0	3	n/a	n/a	pyFR	0	TJ080
460.572	1.6	1468307	WORD	n/a	wordpools/wordpool_EN.txt	QUEEN	4.0	3	n/a	n/a	pyFR	0	TJ080
463.193	1.6	1470928	WORD	n/a	wordpools/wordpool_EN.txt	BEAR	5.0	3	n/a	n/a	pyFR	0	TJ080
465.63	1.6	1473365	WORD	n/a	wordpools/wordpool_EN.txt	FUDGE	6.0	3	n/a	n/a	pyFR	0	TJ080
468.068	1.6	1475803	WORD	n/a	wordpools/wordpool_EN.txt	BARN	7.0	3	n/a	n/a	pyFR	0	TJ080
470.705	1.6	1478440	WORD	n/a	wordpools/wordpool_EN.txt	CRANE	8.0	3	n/a	n/a	pyFR	0	TJ080
473.126	1.6	1480861	WORD	n/a	wordpools/wordpool_EN.txt	HEART	9.0	3	n/a	n/a	pyFR	0	TJ080
475.898	1.6	1483633	WORD	n/a	wordpools/wordpool_EN.txt	PURSE	10.0	3	n/a	n/a	pyFR	0	TJ080
478.452	1.6	1486187	WORD	n/a	wordpools/wordpool_EN.txt	SEAT	11.0	3	n/a	n/a	pyFR	0	TJ080
480.89	1.6	1488624	WORD	n/a	wordpools/wordpool_EN.txt	DART	12.0	3	n/a	n/a	pyFR	0	TJ080
483.577	1.6	1491311	WORD	n/a	wordpools/wordpool_EN.txt	BLOOM	13.0	3	n/a	n/a	pyFR	0	TJ080
486.232	1.6	1493966	WORD	n/a	wordpools/wordpool_EN.txt	SWORD	14.0	3	n/a	n/a	pyFR	0	TJ080
488.752	1.6	1496486	WORD	n/a	wordpools/wordpool_EN.txt	FLEA	15.0	3	n/a	n/a	pyFR	0	TJ080
490.356	0.917	1498090	START	n/a	n/a	n/a	n/a	3	[-999 -999 -999]	-999.0	pyFR	0	TJ080
491.273	5.843	1499007	PROB	5.819	n/a	n/a	n/a	3	[2 1 3]	6.0	pyFR	0	TJ080
497.116	5.811	1504850	PROB	5.785	n/a	n/a	n/a	3	[8 8 1]	17.0	pyFR	0	TJ080
502.927	7.782	1510661	PROB	7.782	n/a	n/a	n/a	3	[8 9 5]	22.0	pyFR	0	TJ080
510.709	1.15	1518442	STOP	n/a	n/a	n/a	n/a	3	[-999 -999 -999]	-999.0	pyFR	0	TJ080
511.859	7.429	1519592	REC_START	n/a	n/a	n/a	-999.0	3	n/a	n/a	pyFR	0	TJ080
519.288	10.103	1527021	REC_WORD	7.429	n/a	SPOON	-999.0	3	n/a	n/a	pyFR	0	TJ080
529.391	26.697	1537124	REC_WORD	17.532	n/a	LAKE	-999.0	3	n/a	n/a	pyFR	0	TJ080
556.088	6.505	1563820	REC_WORD	44.229	n/a	DART	-999.0	3	n/a	n/a	pyFR	0	TJ080
562.593	0.017	1570325	TRIAL	n/a	n/a	n/a	-999.0	4	n/a	n/a	pyFR	0	TJ080
562.61	1.6	1570342	ORIENT	n/a	n/a	n/a	-999.0	4	n/a	n/a	pyFR	0	TJ080
565.231	1.6	1572962	WORD	n/a	wordpools/wordpool_EN.txt	SHIELD	1.0	4	n/a	n/a	pyFR	0	TJ080
567.735	1.6	1575466	WORD	n/a	wordpools/wordpool_EN.txt	TREE	2.0	4	n/a	n/a	pyFR	0	TJ080
570.473	1.6	1578204	WORD	n/a	wordpools/wordpool_EN.txt	ICE	3.0	4	n/a	n/a	pyFR	0	TJ080
573.044	1.6	1580775	WORD	n/a	wordpools/wordpool_EN.txt	BRIDGE	4.0	4	n/a	n/a	pyFR	0	TJ080
575.749	1.6	1583480	WORD	n/a	wordpools/wordpool_EN.txt	SEED	5.0	4	n/a	n/a	pyFR	0	TJ080
578.236	1.6	1585967	WORD	n/a	wordpools/wordpool_EN.txt	MOTH	6.0	4	n/a	n/a	pyFR	0	TJ080
580.808	1.6	1588539	WORD	n/a	wordpools/wordpool_EN.txt	MILK	7.0	4	n/a	n/a	pyFR	0	TJ080
583.345	1.6	1591076	WORD	n/a	wordpools/wordpool_EN.txt	DRESS	8.0	4	n/a	n/a	pyFR	0	TJ080
585.9	1.6	1593631	WORD	n/a	wordpools/wordpool_EN.txt	FOAM	9.0	4	n/a	n/a	pyFR	0	TJ080
588.554	1.6	1596285	WORD	n/a	wordpools/wordpool_EN.txt	PEAR	10.0	4	n/a	n/a	pyFR	0	TJ080
591.292	1.6	1599022	WORD	n/a	wordpools/wordpool_EN.txt	ROOM	11.0	4	n/a	n/a	pyFR	0	TJ080
594.096	1.6	1601826	WORD	n/a	wordpools/wordpool_EN.txt	BOOT	12.0	4	n/a	n/a	pyFR	0	TJ080
596.734	1.6	1604464	WORD	n/a	wordpools/wordpool_EN.txt	BENCH	13.0	4	n/a	n/a	pyFR	0	TJ080
599.205	1.6	1606935	WORD	n/a	wordpools/wordpool_EN.txt	SNAKE	14.0	4	n/a	n/a	pyFR	0	TJ080
601.844	1.6	1609574	WORD	n/a	wordpools/wordpool_EN.txt	DOLL	15.0	4	n/a	n/a	pyFR	0	TJ080
603.446	1.118	1611176	START	n/a	n/a	n/a	n/a	4	[-999 -999 -999]	-999.0	pyFR	0	TJ080
604.564	7.263	1612294	PROB	7.242	n/a	n/a	n/a	4	[1 3 5]	9.0	pyFR	0	TJ080
611.827	13.417	1619557	PROB	13.417	n/a	n/a	n/a	4	[7 6 6]	19.0	pyFR	0	TJ080
625.244	1.108	1632973	STOP	n/a	n/a	n/a	n/a	4	[-999 -999 -999]	-999.0	pyFR	0	TJ080
626.352	4.09	1634081	REC_START	n/a	n/a	n/a	-999.0	4	n/a	n/a	pyFR	0	TJ080
630.442	8.547	1638171	REC_WORD	4.09	n/a	DOLL	-999.0	4	n/a	n/a	pyFR	0	TJ080
638.989	35.66	1646718	REC_WORD	12.637	n/a	SNAIL	-999.0	4	n/a	n/a	pyFR	0	TJ080
674.649	0.016	1682376	TRIAL	n/a	n/a	n/a	-999.0	5	n/a	n/a	pyFR	0	TJ080
674.665	1.6	1682392	ORIENT	n/a	n/a	n/a	-999.0	5	n/a	n/a	pyFR	0	TJ080
677.52	1.6	1685247	WORD	n/a	wordpools/wordpool_EN.txt	VEST	1.0	5	n/a	n/a	pyFR	0	TJ080
680.057	1.6	1687784	WORD	n/a	wordpools/wordpool_EN.txt	TRUCK	2.0	5	n/a	n/a	pyFR	0	TJ080
682.846	1.6	1690573	WORD	n/a	wordpools/wordpool_EN.txt	DESK	3.0	5	n/a	n/a	pyFR	0	TJ080
685.45	1.6	1693177	WORD	n/a	wordpools/wordpool_EN.txt	AXE	4.0	5	n/a	n/a	pyFR	0	TJ080
687.989	1.6	1695716	WORD	n/a	wordpools/wordpool_EN.txt	TAIL	5.0	5	n/a	n/a	pyFR	0	TJ080
690.609	1.6	1698336	WORD	n/a	wordpools/wordpool_EN.txt	WHALE	6.0	5	n/a	n/a	pyFR	0	TJ080
693.33	1.6	1701057	WORD	n/a	wordpools/wordpool_EN.txt	HORN	7.0	5	n/a	n/a	pyFR	0	TJ080
695.935	1.6	1703662	WORD	n/a	wordpools/wordpool_EN.txt	ROOT	8.0	5	n/a	n/a	pyFR	0	TJ080
698.355	1.6	1706082	WORD	n/a	wordpools/wordpool_EN.txt	SKY	9.0	5	n/a	n/a	pyFR	0	TJ080
701.009	1.6	1708736	WORD	n/a	wordpools/wordpool_EN.txt	PASTE	10.0	5	n/a	n/a	pyFR	0	TJ080
703.564	1.6	1711290	WORD	n/a	wordpools/wordpool_EN.txt	BOX	11.0	5	n/a	n/a	pyFR	0	TJ080
706.201	1.6	1713927	WORD	n/a	wordpools/wordpool_EN.txt	PLANE	12.0	5	n/a	n/a	pyFR	0	TJ080
708.823	1.6	1716549	WORD	n/a	wordpools/wordpool_EN.txt	PIN	13.0	5	n/a	n/a	pyFR	0	TJ080
711.56	1.6	1719286	WORD	n/a	wordpools/wordpool_EN.txt	FORK	14.0	5	n/a	n/a	pyFR	0	TJ080
714.282	1.6	1722008	WORD	n/a	wordpools/wordpool_EN.txt	DIME	15.0	5	n/a	n/a	pyFR	0	TJ080
715.886	0.951	1723612	START	n/a	n/a	n/a	n/a	5	[-999 -999 -999]	-999.0	pyFR	0	TJ080
716.837	11.502	1724563	PROB	11.48	n/a	n/a	n/a	5	[6 6 9]	21.0	pyFR	0	TJ080
728.339	5.876	1736065	PROB	5.85	n/a	n/a	n/a	5	[5 4 2]	11.0	pyFR	0	TJ080
734.215	7.229	1741940	PROB	7.229	n/a	n/a	n/a	5	[4 6 9]	19.0	pyFR	0	TJ080
741.444	1.667	1749169	STOP	n/a	n/a	n/a	n/a	5	[-999 -999 -999]	-999.0	pyFR	0	TJ080
743.111	1.503	1750836	REC_START	n/a	n/a	n/a	-999.0	5	n/a	n/a	pyFR	0	TJ080
744.614	16.699	1752339	REC_WORD	1.503	n/a	FORK	-999.0	5	n/a	n/a	pyFR	0	TJ080
761.313	29.499	1769037	REC_WORD	18.202	n/a	TAIL	-999.0	5	n/a	n/a	pyFR	0	TJ080
790.812	0.016	1798535	TRIAL	n/a	n/a	n/a	-999.0	6	n/a	n/a	pyFR	0	TJ080
790.828	1.6	1798551	ORIENT	n/a	n/a	n/a	-999.0	6	n/a	n/a	pyFR	0	TJ080
793.632	1.6	1801355	WORD	n/a	wordpools/wordpool_EN.txt	RICE	1.0	6	n/a	n/a	pyFR	0	TJ080
796.119	1.6	1803842	WORD	n/a	wordpools/wordpool_EN.txt	CAGE	2.0	6	n/a	n/a	pyFR	0	TJ080
798.674	1.6	1806397	WORD	n/a	wordpools/wordpool_EN.txt	MOUSE	3.0	6	n/a	n/a	pyFR	0	TJ080
801.161	1.6	1808884	WORD	n/a	wordpools/wordpool_EN.txt	PLATE	4.0	6	n/a	n/a	pyFR	0	TJ080
803.765	1.6	1811488	WORD	n/a	wordpools/wordpool_EN.txt	BEAK	5.0	6	n/a	n/a	pyFR	0	TJ080
806.303	1.6	1814026	WORD	n/a	wordpools/wordpool_EN.txt	DITCH	6.0	6	n/a	n/a	pyFR	0	TJ080
808.875	1.6	1816598	WORD	n/a	wordpools/wordpool_EN.txt	BROOM	7.0	6	n/a	n/a	pyFR	0	TJ080
811.345	1.6	1819068	WORD	n/a	wordpools/wordpool_EN.txt	DOOR	8.0	6	n/a	n/a	pyFR	0	TJ080
814.049	1.6	1821772	WORD	n/a	wordpools/wordpool_EN.txt	CAKE	9.0	6	n/a	n/a	pyFR	0	TJ080
816.737	1.6	1824459	WORD	n/a	wordpools/wordpool_EN.txt	BEAN	10.0	6	n/a	n/a	pyFR	0	TJ080
819.375	1.6	1827097	WORD	n/a	wordpools/wordpool_EN.txt	GATE	11.0	6	n/a	n/a	pyFR	0	TJ080
822.03	1.6	1829752	WORD	n/a	wordpools/wordpool_EN.txt	STOOL	12.0	6	n/a	n/a	pyFR	0	TJ080
824.701	1.6	1832423	WORD	n/a	wordpools/wordpool_EN.txt	LOCK	13.0	6	n/a	n/a	pyFR	0	TJ080
827.439	1.6	1835161	WORD	n/a	wordpools/wordpool_EN.txt	BED	14.0	6	n/a	n/a	pyFR	0	TJ080
830.143	1.6	1837865	WORD	n/a	wordpools/wordpool_EN.txt	CHAIR	15.0	6	n/a	n/a	pyFR	0	TJ080
831.747	1.185	1839469	START	n/a	n/a	n/a	n/a	6	[-999 -999 -999]	-999.0	pyFR	0	TJ080
832.932	5.709	1840654	PROB	5.689	n/a	n/a	n/a	6	[6 4 2]	12.0	pyFR	0	TJ080
838.641	13.572	1846363	PROB	13.572	n/a	n/a	n/a	6	[7 8 4]	19.0	pyFR	0	TJ080
852.213	1.12	1859934	STOP	n/a	n/a	n/a	n/a	6	[-999 -999 -999]	-999.0	pyFR	0	TJ080
853.333	3.347	1861054	REC_START	n/a	n/a	n/a	-999.0	6	n/a	n/a	pyFR	0	TJ080
856.68	0.995	1864401	REC_WORD	3.347	n/a	BED	-999.0	6	n/a	n/a	pyFR	0	TJ080
857.675	12.724	1865396	REC_WORD	4.342	n/a	CHAIR	-999.0	6	n/a	n/a	pyFR	0	TJ080
870.399	6.454	1878119	REC_WORD	17.066	n/a	PEN	-999.0	6	n/a	n/a	pyFR	0	TJ080
876.853	26.314	1884573	REC_WORD	23.52	n/a	BEAK	-999.0	6	n/a	n/a	pyFR	0	TJ080
903.167	0.016	1910886	TRIAL	n/a	n/a	n/a	-999.0	7	n/a	n/a	pyFR	0	TJ080
903.183	1.6	1910902	ORIENT	n/a	n/a	n/a	-999.0	7	n/a	n/a	pyFR	0	TJ080
906.038	1.6	1913757	WORD	n/a	wordpools/wordpool_EN.txt	GIRL	1.0	7	n/a	n/a	pyFR	0	TJ080
908.475	1.6	1916194	WORD	n/a	wordpools/wordpool_EN.txt	RUG	2.0	7	n/a	n/a	pyFR	0	TJ080
910.947	1.6	1918666	WORD	n/a	wordpools/wordpool_EN.txt	PIG	3.0	7	n/a	n/a	pyFR	0	TJ080
913.567	1.6	1921286	WORD	n/a	wordpools/wordpool_EN.txt	STICK	4.0	7	n/a	n/a	pyFR	0	TJ080
916.238	1.6	1923957	WORD	n/a	wordpools/wordpool_EN.txt	PARK	5.0	7	n/a	n/a	pyFR	0	TJ080
918.827	1.6	1926546	WORD	n/a	wordpools/wordpool_EN.txt	STEAM	6.0	7	n/a	n/a	pyFR	0	TJ080
921.363	1.6	1929082	WORD	n/a	wordpools/wordpool_EN.txt	THREAD	7.0	7	n/a	n/a	pyFR	0	TJ080
923.869	1.6	1931588	WORD	n/a	wordpools/wordpool_EN.txt	EAR	8.0	7	n/a	n/a	pyFR	0	TJ080
926.605	1.6	1934323	WORD	n/a	wordpools/wordpool_EN.txt	WHEEL	9.0	7	n/a	n/a	pyFR	0	TJ080
929.327	1.6	1937045	WORD	n/a	wordpools/wordpool_EN.txt	CART	10.0	7	n/a	n/a	pyFR	0	TJ080
931.916	1.6	1939634	WORD	n/a	wordpools/wordpool_EN.txt	SHOE	11.0	7	n/a	n/a	pyFR	0	TJ080
934.385	1.6	1942103	WORD	n/a	wordpools/wordpool_EN.txt	FLUTE	12.0	7	n/a	n/a	pyFR	0	TJ080
937.09	1.6	1944808	WORD	n/a	wordpools/wordpool_EN.txt	SPARK	13.0	7	n/a	n/a	pyFR	0	TJ080
939.761	1.6	1947479	WORD	n/a	wordpools/wordpool_EN.txt	CAPE	14.0	7	n/a	n/a	pyFR	0	TJ080
942.532	1.6	1950250	WORD	n/a	wordpools/wordpool_EN.txt	OAK	15.0	7	n/a	n/a	pyFR	0	TJ080
944.136	0.884	1951854	START	n/a	n/a	n/a	n/a	7	[-999 -999 -999]	-999.0	pyFR	0	TJ080
945.02	5.676	1952738	PROB	5.656	n/a	n/a	n/a	7	[1 1 4]	6.0	pyFR	0	TJ080
950.696	8.331	1958414	PROB	8.301	n/a	n/a	n/a	7	[7 1 3]	11.0	pyFR	0	TJ080
959.027	8.018	1966744	PROB	8.018	n/a	n/a	n/a	7	[2 5 9]	16.0	pyFR	0	TJ080
967.045	1.214	1974762	STOP	n/a	n/a	n/a	n/a	7	[-999 -999 -999]	-999.0	pyFR	0	TJ080
968.259	37.833	1975976	REC_START	n/a	n/a	n/a	-999.0	7	n/a	n/a	pyFR	0	TJ080
1006.092	177.262	2013808	REC_WORD	37.833	n/a	FLUTE	-999.0	7	n/a	n/a	pyFR	0	TJ080
1183.354	0.017	2191063	TRIAL	n/a	n/a	n/a	-999.0	8	n/a	n/a	pyFR	0	TJ080
1183.371	1.6	2191080	ORIENT	n/a	n/a	n/a	-999.0	8	n/a	n/a	pyFR	0	TJ080
1186.142	1.6	2193851	WORD	n/a	wordpools/wordpool_EN.txt	CROW	1.0	8	n/a	n/a	pyFR	0	TJ080
1188.696	1.6	2196405	WORD	n/a	wordpools/wordpool_EN.txt	HOOF	2.0	8	n/a	n/a	pyFR	0	TJ080
1191.418	1.6	2199127	WORD	n/a	wordpools/wordpool_EN.txt	BIRD	3.0	8	n/a	n/a	pyFR	0	TJ080
1194.206	1.6	2201915	WORD	n/a	wordpools/wordpool_EN.txt	CARD	4.0	8	n/a	n/a	pyFR	0	TJ080
1196.626	1.6	2204335	WORD	n/a	wordpools/wordpool_EN.txt	CHIN	5.0	8	n/a	n/a	pyFR	0	TJ080
1199.364	1.6	2207073	WORD	n/a	wordpools/wordpool_EN.txt	MAIL	6.0	8	n/a	n/a	pyFR	0	TJ080
1201.903	1.6	2209612	WORD	n/a	wordpools/wordpool_EN.txt	ELF	7.0	8	n/a	n/a	pyFR	0	TJ080
1204.657	1.6	2212366	WORD	n/a	wordpools/wordpool_EN.txt	JET	8.0	8	n/a	n/a	pyFR	0	TJ080
1207.278	1.6	2214986	WORD	n/a	wordpools/wordpool_EN.txt	HOSE	9.0	8	n/a	n/a	pyFR	0	TJ080
1209.916	1.6	2217624	WORD	n/a	wordpools/wordpool_EN.txt	CUP	10.0	8	n/a	n/a	pyFR	0	TJ080
1212.403	1.6	2220111	WORD	n/a	wordpools/wordpool_EN.txt	BELL	11.0	8	n/a	n/a	pyFR	0	TJ080
1214.992	1.6	2222700	WORD	n/a	wordpools/wordpool_EN.txt	MAP	12.0	8	n/a	n/a	pyFR	0	TJ080
1217.745	1.6	2225453	WORD	n/a	wordpools/wordpool_EN.txt	FARM	13.0	8	n/a	n/a	pyFR	0	TJ080
1220.333	1.6	2228041	WORD	n/a	wordpools/wordpool_EN.txt	PRINCE	14.0	8	n/a	n/a	pyFR	0	TJ080
1223.021	1.6	2230729	WORD	n/a	wordpools/wordpool_EN.txt	SUIT	15.0	8	n/a	n/a	pyFR	0	TJ080
1224.625	0.967	2232333	START	n/a	n/a	n/a	n/a	8	[-999 -999 -999]	-999.0	pyFR	0	TJ080
1225.592	14.107	2233300	PROB	14.085	n/a	n/a	n/a	8	[8 7 4]	19.0	pyFR	0	TJ080
1239.699	7.53	2247406	PROB	7.53	n/a	n/a	n/a	8	[8 8 5]	21.0	pyFR	0	TJ080
1247.229	1.168	2254936	STOP	n/a	n/a	n/a	n/a	8	[-999 -999 -999]	-999.0	pyFR	0	TJ080
1248.397	21.124	2256104	REC_START	n/a	n/a	n/a	-999.0	8	n/a	n/a	pyFR	0	TJ080
1269.521	29.462	2277227	REC_WORD	21.124	n/a	CROW	-999.0	8	n/a	n/a	pyFR	0	TJ080
1298.983	0.017	2306688	TRIAL	n/a	n/a	n/a	-999.0	9	n/a	n/a	pyFR	0	TJ080
1299.0	1.6	2306705	ORIENT	n/a	n/a	n/a	-999.0	9	n/a	n/a	pyFR	0	TJ080
1301.888	1.6	2309593	WORD	n/a	wordpools/wordpool_EN.txt	MOLE	1.0	9	n/a	n/a	pyFR	0	TJ080
1304.675	1.6	2312380	WORD	n/a	wordpools/wordpool_EN.txt	JAR	2.0	9	n/a	n/a	pyFR	0	TJ080
1307.179	1.6	2314884	WORD	n/a	wordpools/wordpool_EN.txt	MOOSE	3.0	9	n/a	n/a	pyFR	0	TJ080
1309.901	1.6	2317606	WORD	n/a	wordpools/wordpool_EN.txt	TOAD	4.0	9	n/a	n/a	pyFR	0	TJ080
1312.488	1.6	2320193	WORD	n/a	wordpools/wordpool_EN.txt	EGG	5.0	9	n/a	n/a	pyFR	0	TJ080
1315.142	1.6	2322847	WORD	n/a	wordpools/wordpool_EN.txt	BREAD	6.0	9	n/a	n/a	pyFR	0	TJ080
1317.598	1.6	2325302	WORD	n/a	wordpools/wordpool_EN.txt	CLOTH	7.0	9	n/a	n/a	pyFR	0	TJ080
1320.001	1.6	2327705	WORD	n/a	wordpools/wordpool_EN.txt	STAR	8.0	9	n/a	n/a	pyFR	0	TJ080
1322.722	1.6	2330426	WORD	n/a	wordpools/wordpool_EN.txt	HOUSE	9.0	9	n/a	n/a	pyFR	0	TJ080
1325.476	1.6	2333180	WORD	n/a	wordpools/wordpool_EN.txt	SHRIMP	10.0	9	n/a	n/a	pyFR	0	TJ080
1328.098	1.6	2335802	WORD	n/a	wordpools/wordpool_EN.txt	SPONGE	11.0	9	n/a	n/a	pyFR	0	TJ080
1330.803	1.6	2338507	WORD	n/a	wordpools/wordpool_EN.txt	SLEEVE	12.0	9	n/a	n/a	pyFR	0	TJ080
1333.306	1.6	2341010	WORD	n/a	wordpools/wordpool_EN.txt	SALT	13.0	9	n/a	n/a	pyFR	0	TJ080
1336.111	1.6	2343815	WORD	n/a	wordpools/wordpool_EN.txt	SMOKE	14.0	9	n/a	n/a	pyFR	0	TJ080
1338.833	1.6	2346537	WORD	n/a	wordpools/wordpool_EN.txt	OAR	15.0	9	n/a	n/a	pyFR	0	TJ080
1340.436	0.917	2348140	START	n/a	n/a	n/a	n/a	9	[-999 -999 -999]	-999.0	pyFR	0	TJ080
1341.353	13.022	2349057	PROB	12.987	n/a	n/a	n/a	9	[8 9 4]	21.0	pyFR	0	TJ080
1354.375	5.142	2362078	PROB	5.109	n/a	n/a	n/a	9	[1 7 1]	9.0	pyFR	0	TJ080
1359.517	9.887	2367220	PROB	9.887	n/a	n/a	n/a	9	[6 6 5]	17.0	pyFR	0	TJ080
1369.404	1.182	2377107	STOP	n/a	n/a	n/a	n/a	9	[-999 -999 -999]	-999.0	pyFR	0	TJ080
1370.586	5.765	2378289	REC_START	n/a	n/a	n/a	-999.0	9	n/a	n/a	pyFR	0	TJ080
1376.351	18.044	2384053	REC_WORD	5.765	n/a	SLEEVE	-999.0	9	n/a	n/a	pyFR	0	TJ080
1394.395	25.458	2402097	REC_WORD	23.809	n/a	SALT	-999.0	9	n/a	n/a	pyFR	0	TJ080
1419.853	0.017	2427554	TRIAL	n/a	n/a	n/a	-999.0	10	n/a	n/a	pyFR	0	TJ080
1419.87	1.6	2427571	ORIENT	n/a	n/a	n/a	-999.0	10	n/a	n/a	pyFR	0	TJ080
1422.773	1.6	2430474	WORD	n/a	wordpools/wordpool_EN.txt	SAIL	1.0	10	n/a	n/a	pyFR	0	TJ080
1425.512	1.6	2433213	WORD	n/a	wordpools/wordpool_EN.txt	STORM	2.0	10	n/a	n/a	pyFR	0	TJ080
1428.283	1.6	2435984	WORD	n/a	wordpools/wordpool_EN.txt	WORM	3.0	10	n/a	n/a	pyFR	0	TJ080
1430.871	1.6	2438571	WORD	n/a	wordpools/wordpool_EN.txt	EEL	4.0	10	n/a	n/a	pyFR	0	TJ080
1433.425	1.6	2441125	WORD	n/a	wordpools/wordpool_EN.txt	CLIFF	5.0	10	n/a	n/a	pyFR	0	TJ080
1436.046	1.6	2443746	WORD	n/a	wordpools/wordpool_EN.txt	APE	6.0	10	n/a	n/a	pyFR	0	TJ080
1438.801	1.6	2446501	WORD	n/a	wordpools/wordpool_EN.txt	FRUIT	7.0	10	n/a	n/a	pyFR	0	TJ080
1441.371	1.6	2449071	WORD	n/a	wordpools/wordpool_EN.txt	FLOOR	8.0	10	n/a	n/a	pyFR	0	TJ080
1444.109	1.6	2451809	WORD	n/a	wordpools/wordpool_EN.txt	DOCK	9.0	10	n/a	n/a	pyFR	0	TJ080
1446.53	1.6	2454230	WORD	n/a	wordpools/wordpool_EN.txt	COAT	10.0	10	n/a	n/a	pyFR	0	TJ080
1449.318	1.6	2457018	WORD	n/a	wordpools/wordpool_EN.txt	FOOD	11.0	10	n/a	n/a	pyFR	0	TJ080
1451.823	1.6	2459523	WORD	n/a	wordpools/wordpool_EN.txt	COUCH	12.0	10	n/a	n/a	pyFR	0	TJ080
1454.26	1.6	2461960	WORD	n/a	wordpools/wordpool_EN.txt	TAPE	13.0	10	n/a	n/a	pyFR	0	TJ080
1456.949	1.6	2464648	WORD	n/a	wordpools/wordpool_EN.txt	SOUP	14.0	10	n/a	n/a	pyFR	0	TJ080
1459.635	1.6	2467334	WORD	n/a	wordpools/wordpool_EN.txt	OWL	15.0	10	n/a	n/a	pyFR	0	TJ080
1461.239	1.001	2468938	START	n/a	n/a	n/a	n/a	10	[-999 -999 -999]	-999.0	pyFR	0	TJ080
1462.24	30.277	2469939	PROB	30.277	n/a	n/a	n/a	10	[9 9 5]	23.0	pyFR	0	TJ080
1492.517	1.076	2500215	STOP	n/a	n/a	n/a	n/a	10	[-999 -999 -999]	-999.0	pyFR	0	TJ080
1493.593	4.299	2501291	REC_START	n/a	n/a	n/a	-999.0	10	n/a	n/a	pyFR	0	TJ080
1497.892	12.658	2505590	REC_WORD	4.299	n/a	SAIL	-999.0	10	n/a	n/a	pyFR	0	TJ080
1510.55	31.024	2518248	REC_WORD	16.957	n/a	APE	-999.0	10	n/a	n/a	pyFR	0	TJ080
1541.574	0.016	2549270	TRIAL	n/a	n/a	n/a	-999.0	11	n/a	n/a	pyFR	0	TJ080
1541.59	1.6	2549286	ORIENT	n/a	n/a	n/a	-999.0	11	n/a	n/a	pyFR	0	TJ080
1544.461	1.6	2552157	WORD	n/a	wordpools/wordpool_EN.txt	CAR	1.0	11	n/a	n/a	pyFR	0	TJ080
1547.016	1.6	2554712	WORD	n/a	wordpools/wordpool_EN.txt	TANK	2.0	11	n/a	n/a	pyFR	0	TJ080
1549.52	1.6	2557216	WORD	n/a	wordpools/wordpool_EN.txt	MOUTH	3.0	11	n/a	n/a	pyFR	0	TJ080
1552.191	1.6	2559887	WORD	n/a	wordpools/wordpool_EN.txt	CLOUD	4.0	11	n/a	n/a	pyFR	0	TJ080
1554.997	1.6	2562693	WORD	n/a	wordpools/wordpool_EN.txt	BOARD	5.0	11	n/a	n/a	pyFR	0	TJ080
1557.785	1.6	2565481	WORD	n/a	wordpools/wordpool_EN.txt	BAG	6.0	11	n/a	n/a	pyFR	0	TJ080
1560.472	1.6	2568168	WORD	n/a	wordpools/wordpool_EN.txt	BAND	7.0	11	n/a	n/a	pyFR	0	TJ080
1563.126	1.6	2570822	WORD	n/a	wordpools/wordpool_EN.txt	CORD	8.0	11	n/a	n/a	pyFR	0	TJ080
1565.848	1.6	2573544	WORD	n/a	wordpools/wordpool_EN.txt	BADGE	9.0	11	n/a	n/a	pyFR	0	TJ080
1568.585	1.6	2576280	WORD	n/a	wordpools/wordpool_EN.txt	CAVE	10.0	11	n/a	n/a	pyFR	0	TJ080
1571.14	1.6	2578835	WORD	n/a	wordpools/wordpool_EN.txt	SQUARE	11.0	11	n/a	n/a	pyFR	0	TJ080
1573.845	1.6	2581540	WORD	n/a	wordpools/wordpool_EN.txt	SHIP	12.0	11	n/a	n/a	pyFR	0	TJ080
1576.582	1.6	2584277	WORD	n/a	wordpools/wordpool_EN.txt	DRUM	13.0	11	n/a	n/a	pyFR	0	TJ080
1579.136	1.6	2586831	WORD	n/a	wordpools/wordpool_EN.txt	WOOD	14.0	11	n/a	n/a	pyFR	0	TJ080
1581.591	1.6	2589286	WORD	n/a	wordpools/wordpool_EN.txt	MUG	15.0	11	n/a	n/a	pyFR	0	TJ080
1583.194	1.101	2590889	START	n/a	n/a	n/a	n/a	11	[-999 -999 -999]	-999.0	pyFR	0	TJ080
1584.295	11.269	2591990	PROB	11.246	n/a	n/a	n/a	11	[3 5 6]	14.0	pyFR	0	TJ080
1595.564	5.377	2603259	PROB	5.346	n/a	n/a	n/a	11	[1 7 7]	15.0	pyFR	0	TJ080
1600.941	11.512	2608635	PROB	11.512	n/a	n/a	n/a	11	[6 9 4]	19.0	pyFR	0	TJ080
1612.453	1.225	2620147	STOP	n/a	n/a	n/a	n/a	11	[-999 -999 -999]	-999.0	pyFR	0	TJ080
1613.678	45.0	2621372	REC_START	n/a	n/a	n/a	-999.0	11	n/a	n/a	pyFR	0	TJ080
1658.678	30.811	2666370	REC_WORD_VV	45.0	n/a	<>	-999.0	11	n/a	n/a	pyFR	0	TJ080
1689.489	312.543	2697180	TRIAL	n/a	n/a	n/a	-999.0	12	n/a	n/a	pyFR	0	TJ080
2002.032	0.0	3009712	B	n/a	n/a	n/a	-999.0	12	n/a	n/a	pyFR	0	TJ080
2002.032	16.884	3009712	SESS_START	n/a	n/a	n/a	-999.0	12	n/a	n/a	pyFR	0	TJ080
2018.916	0.016	3026595	TRIAL	n/a	n/a	n/a	-999.0	12	n/a	n/a	pyFR	0	TJ080
2018.932	1.6	3026611	ORIENT	n/a	n/a	n/a	-999.0	12	n/a	n/a	pyFR	0	TJ080
2021.937	1.6	3029616	WORD	n/a	wordpools/wordpool_EN.txt	SOCK	1.0	12	n/a	n/a	pyFR	0	TJ080
2024.658	1.6	3032337	WORD	n/a	wordpools/wordpool_EN.txt	CASH	2.0	12	n/a	n/a	pyFR	0	TJ080
2027.146	1.6	3034825	WORD	n/a	wordpools/wordpool_EN.txt	HORSE	3.0	12	n/a	n/a	pyFR	0	TJ080
2029.801	1.6	3037480	WORD	n/a	wordpools/wordpool_EN.txt	BATH	4.0	12	n/a	n/a	pyFR	0	TJ080
2032.404	1.6	3040083	WORD	n/a	wordpools/wordpool_EN.txt	SLUSH	5.0	12	n/a	n/a	pyFR	0	TJ080
2034.826	1.6	3042505	WORD	n/a	wordpools/wordpool_EN.txt	LAMP	6.0	12	n/a	n/a	pyFR	0	TJ080
2037.396	1.6	3045075	WORD	n/a	wordpools/wordpool_EN.txt	CROWN	7.0	12	n/a	n/a	pyFR	0	TJ080
2040.034	1.6	3047713	WORD	n/a	wordpools/wordpool_EN.txt	SCHOOL	8.0	12	n/a	n/a	pyFR	0	TJ080
2042.671	1.6	3050350	WORD	n/a	wordpools/wordpool_EN.txt	SPEAR	9.0	12	n/a	n/a	pyFR	0	TJ080
2045.11	1.6	3052788	WORD	n/a	wordpools/wordpool_EN.txt	ARM	10.0	12	n/a	n/a	pyFR	0	TJ080
2047.696	1.6	3055374	WORD	n/a	wordpools/wordpool_EN.txt	GOAT	11.0	12	n/a	n/a	pyFR	0	TJ080
2050.368	1.6	3058046	WORD	n/a	wordpools/wordpool_EN.txt	POOL	12.0	12	n/a	n/a	pyFR	0	TJ080
2052.889	1.6	3060567	WORD	n/a	wordpools/wordpool_EN.txt	WING	13.0	12	n/a	n/a	pyFR	0	TJ080
2055.693	1.6	3063371	WORD	n/a	wordpools/wordpool_EN.txt	BLUSH	14.0	12	n/a	n/a	pyFR	0	TJ080
2058.247	1.6	3065925	WORD	n/a	wordpools/wordpool_EN.txt	POLE	15.0	12	n/a	n/a	pyFR	0	TJ080
2059.852	0.934	3067530	START	n/a	n/a	n/a	n/a	12	[-999 -999 -999]	-999.0	pyFR	0	TJ080
2060.786	10.75	3068464	PROB	10.714	n/a	n/a	n/a	12	[7 9 4]	20.0	pyFR	0	TJ080
2071.536	7.814	3079213	PROB	7.78	n/a	n/a	n/a	12	[6 6 2]	14.0	pyFR	0	TJ080
2079.35	19.038	3087027	PROB	19.038	n/a	n/a	n/a	12	[9 9 6]	23.0	pyFR	0	TJ080
2098.388	1.213	3106065	STOP	n/a	n/a	n/a	n/a	12	[-999 -999 -999]	-999.0	pyFR	0	TJ080
2099.601	16.264	3107277	REC_START	n/a	n/a	n/a	-999.0	12	n/a	n/a	pyFR	0	TJ080
2115.865	32.835	3123541	REC_WORD_VV	16.264	n/a	<>	-999.0	12	n/a	n/a	pyFR	0	TJ080
2148.7	0.016	3156375	TRIAL	n/a	n/a	n/a	-999.0	13	n/a	n/a	pyFR	0	TJ080
2148.716	1.6	3156391	ORIENT	n/a	n/a	n/a	-999.0	13	n/a	n/a	pyFR	0	TJ080
2151.371	1.6	3159046	WORD	n/a	wordpools/wordpool_EN.txt	SHEEP	1.0	13	n/a	n/a	pyFR	0	TJ080
2154.11	1.6	3161785	WORD	n/a	wordpools/wordpool_EN.txt	ROCK	2.0	13	n/a	n/a	pyFR	0	TJ080
2156.646	1.6	3164320	WORD	n/a	wordpools/wordpool_EN.txt	MULE	3.0	13	n/a	n/a	pyFR	0	TJ080
2159.101	1.6	3166775	WORD	n/a	wordpools/wordpool_EN.txt	TRAIN	4.0	13	n/a	n/a	pyFR	0	TJ080
2161.906	1.6	3169580	WORD	n/a	wordpools/wordpool_EN.txt	PEARL	5.0	13	n/a	n/a	pyFR	0	TJ080
2164.426	1.6	3172100	WORD	n/a	wordpools/wordpool_EN.txt	FOG	6.0	13	n/a	n/a	pyFR	0	TJ080
2167.132	1.6	3174806	WORD	n/a	wordpools/wordpool_EN.txt	SMILE	7.0	13	n/a	n/a	pyFR	0	TJ080
2169.786	1.6	3177460	WORD	n/a	wordpools/wordpool_EN.txt	SKI	8.0	13	n/a	n/a	pyFR	0	TJ080
2172.356	1.6	3180030	WORD	n/a	wordpools/wordpool_EN.txt	FLAG	9.0	13	n/a	n/a	pyFR	0	TJ080
2175.012	1.6	3182686	WORD	n/a	wordpools/wordpool_EN.txt	CORN	10.0	13	n/a	n/a	pyFR	0	TJ080
2177.498	1.6	3185172	WORD	n/a	wordpools/wordpool_EN.txt	PEN	11.0	13	n/a	n/a	pyFR	0	TJ080
2180.187	1.6	3187861	WORD	n/a	wordpools/wordpool_EN.txt	JAIL	12.0	13	n/a	n/a	pyFR	0	TJ080
2182.774	1.6	3190447	WORD	n/a	wordpools/wordpool_EN.txt	KING	13.0	13	n/a	n/a	pyFR	0	TJ080
2185.545	1.6	3193218	WORD	n/a	wordpools/wordpool_EN.txt	BRICK	14.0	13	n/a	n/a	pyFR	0	TJ080
2188.134	1.6	3195807	WORD	n/a	wordpools/wordpool_EN.txt	PIT	15.0	13	n/a	n/a	pyFR	0	TJ080
2189.736	0.868	3197409	START	n/a	n/a	n/a	n/a	13	[-999 -999 -999]	-999.0	pyFR	0	TJ080
2190.604	5.793	3198277	PROB	5.76	n/a	n/a	n/a	13	[3 1 2]	6.0	pyFR	0	TJ080
2196.397	7.413	3204070	PROB	7.392	n/a	n/a	n/a	13	[3 1 7]	11.0	pyFR	0	TJ080
2203.81	5.859	3211483	PROB	5.826	n/a	n/a	n/a	13	[6 5 5]	16.0	pyFR	0	TJ080
2209.669	9.936	3217342	PROB	9.936	n/a	n/a	n/a	13	[9 4 8]	21.0	pyFR	0	TJ080
2219.605	1.1	3227277	STOP	n/a	n/a	n/a	n/a	13	[-999 -999 -999]	-999.0	pyFR	0	TJ080
2220.705	1.143	3228377	REC_START	n/a	n/a	n/a	-999.0	13	n/a	n/a	pyFR	0	TJ080
2221.848	9.277	3229520	REC_WORD	1.143	n/a	TRAIN	-999.0	13	n/a	n/a	pyFR	0	TJ080
2231.125	7.933	3238797	REC_WORD	10.42	n/a	SKI	-999.0	13	n/a	n/a	pyFR	0	TJ080
2239.058	31.347	3246729	REC_WORD	18.353	n/a	MOLE	-999.0	13	n/a	n/a	pyFR	0	TJ080
2270.405	0.016	3278075	TRIAL	n/a	n/a	n/a	-999.0	14	n/a	n/a	pyFR	0	TJ080
2270.421	1.6	3278091	ORIENT	n/a	n/a	n/a	-999.0	14	n/a	n/a	pyFR	0	TJ080
2273.093	1.6	3280763	WORD	n/a	wordpools/wordpool_EN.txt	BRANCH	1.0	14	n/a	n/a	pyFR	0	TJ080
2275.898	1.6	3283568	WORD	n/a	wordpools/wordpool_EN.txt	RIB	2.0	14	n/a	n/a	pyFR	0	TJ080
2278.485	1.6	3286155	WORD	n/a	wordpools/wordpool_EN.txt	PHONE	3.0	14	n/a	n/a	pyFR	0	TJ080
2281.241	1.6	3288911	WORD	n/a	wordpools/wordpool_EN.txt	ROPE	4.0	14	n/a	n/a	pyFR	0	TJ080
2283.795	1.6	3291465	WORD	n/a	wordpools/wordpool_EN.txt	TEA	5.0	14	n/a	n/a	pyFR	0	TJ080
2286.532	1.6	3294202	WORD	n/a	wordpools/wordpool_EN.txt	TOOL	6.0	14	n/a	n/a	pyFR	0	TJ080
2289.204	1.6	3296874	WORD	n/a	wordpools/wordpool_EN.txt	DAD	7.0	14	n/a	n/a	pyFR	0	TJ080
2291.992	1.6	3299662	WORD	n/a	wordpools/wordpool_EN.txt	SEA	8.0	14	n/a	n/a	pyFR	0	TJ080
2294.645	1.6	3302314	WORD	n/a	wordpools/wordpool_EN.txt	POND	9.0	14	n/a	n/a	pyFR	0	TJ080
2297.217	1.6	3304886	WORD	n/a	wordpools/wordpool_EN.txt	STONE	10.0	14	n/a	n/a	pyFR	0	TJ080
2299.838	1.6	3307507	WORD	n/a	wordpools/wordpool_EN.txt	KITE	11.0	14	n/a	n/a	pyFR	0	TJ080
2302.475	1.6	3310144	WORD	n/a	wordpools/wordpool_EN.txt	SHEET	12.0	14	n/a	n/a	pyFR	0	TJ080
2305.28	1.6	3312949	WORD	n/a	wordpools/wordpool_EN.txt	TENT	13.0	14	n/a	n/a	pyFR	0	TJ080
2307.701	1.6	3315370	WORD	n/a	wordpools/wordpool_EN.txt	ANT	14.0	14	n/a	n/a	pyFR	0	TJ080
2310.422	1.6	3318091	WORD	n/a	wordpools/wordpool_EN.txt	LAND	15.0	14	n/a	n/a	pyFR	0	TJ080
2312.026	1.151	3319695	START	n/a	n/a	n/a	n/a	14	[-999 -999 -999]	-999.0	pyFR	0	TJ080
2313.177	8.999	3320846	PROB	8.972	n/a	n/a	n/a	14	[4 2 3]	9.0	pyFR	0	TJ080
2322.176	18.292	3329845	PROB	18.292	n/a	n/a	n/a	14	[8 4 4]	16.0	pyFR	0	TJ080
2340.468	1.224	3348136	STOP	n/a	n/a	n/a	n/a	14	[-999 -999 -999]	-999.0	pyFR	0	TJ080
2341.692	2.566	3349360	REC_START	n/a	n/a	n/a	-999.0	14	n/a	n/a	pyFR	0	TJ080
2344.258	2.794	3351926	REC_WORD	2.566	n/a	DAD	-999.0	14	n/a	n/a	pyFR	0	TJ080
2347.052	2.15	3354720	REC_WORD	5.36	n/a	ANT	-999.0	14	n/a	n/a	pyFR	0	TJ080
2349.202	41.488	3356870	REC_WORD	7.51	n/a	TENT	-999.0	14	n/a	n/a	pyFR	0	TJ080
2390.69	0.017	3398356	TRIAL	n/a	n/a	n/a	-999.0	15	n/a	n/a	pyFR	0	TJ080
2390.707	1.6	3398373	ORIENT	n/a	n/a	n/a	-999.0	15	n/a	n/a	pyFR	0	TJ080
2393.645	1.6	3401311	WORD	n/a	wordpools/wordpool_EN.txt	TOOTH	1.0	15	n/a	n/a	pyFR	0	TJ080
2396.45	1.6	3404116	WORD	n/a	wordpools/wordpool_EN.txt	FENCE	2.0	15	n/a	n/a	pyFR	0	TJ080
2399.222	1.6	3406888	WORD	n/a	wordpools/wordpool_EN.txt	PEACH	3.0	15	n/a	n/a	pyFR	0	TJ080
2401.91	1.6	3409576	WORD	n/a	wordpools/wordpool_EN.txt	GLASS	4.0	15	n/a	n/a	pyFR	0	TJ080
2404.43	1.6	3412096	WORD	n/a	wordpools/wordpool_EN.txt	SLIME	5.0	15	n/a	n/a	pyFR	0	TJ080
2406.985	1.6	3414650	WORD	n/a	wordpools/wordpool_EN.txt	FACE	6.0	15	n/a	n/a	pyFR	0	TJ080
2409.706	1.6	3417371	WORD	n/a	wordpools/wordpool_EN.txt	LEAF	7.0	15	n/a	n/a	pyFR	0	TJ080
2412.31	1.6	3419975	WORD	n/a	wordpools/wordpool_EN.txt	BOY	8.0	15	n/a	n/a	pyFR	0	TJ080
2415.116	1.6	3422781	WORD	n/a	wordpools/wordpool_EN.txt	CHEEK	9.0	15	n/a	n/a	pyFR	0	TJ080
2417.619	1.6	3425284	WORD	n/a	wordpools/wordpool_EN.txt	VAN	10.0	15	n/a	n/a	pyFR	0	TJ080
2420.174	1.6	3427839	WORD	n/a	wordpools/wordpool_EN.txt	STRAW	11.0	15	n/a	n/a	pyFR	0	TJ080
2422.761	1.6	3430426	WORD	n/a	wordpools/wordpool_EN.txt	ZOO	12.0	15	n/a	n/a	pyFR	0	TJ080
2425.332	1.6	3432997	WORD	n/a	wordpools/wordpool_EN.txt	LEG	13.0	15	n/a	n/a	pyFR	0	TJ080
2428.071	1.6	3435736	WORD	n/a	wordpools/wordpool_EN.txt	INK	14.0	15	n/a	n/a	pyFR	0	TJ080
2430.825	1.6	3438490	WORD	n/a	wordpools/wordpool_EN.txt	SUN	15.0	15	n/a	n/a	pyFR	0	TJ080
2432.428	0.934	3440093	START	n/a	n/a	n/a	n/a	15	[-999 -999 -999]	-999.0	pyFR	0	TJ080
2433.362	17.312	3441027	PROB	17.282	n/a	n/a	n/a	15	[8 4 9]	20.0	pyFR	0	TJ080
2450.674	10.746	3458338	PROB	10.746	n/a	n/a	n/a	15	[5 7 7]	19.0	pyFR	0	TJ080
2461.42	1.075	3469084	STOP	n/a	n/a	n/a	n/a	15	[-999 -999 -999]	-999.0	pyFR	0	TJ080
2462.495	5.768	3470158	REC_START	n/a	n/a	n/a	-999.0	15	n/a	n/a	pyFR	0	TJ080
2468.263	3.936	3475926	REC_WORD	5.768	n/a	BOY	-999.0	15	n/a	n/a	pyFR	0	TJ080
2472.199	7.437	3479862	REC_WORD	9.704	n/a	INK	-999.0	15	n/a	n/a	pyFR	0	TJ080
2479.636	33.126	3487299	REC_WORD	17.141	n/a	STRAW	-999.0	15	n/a	n/a	pyFR	0	TJ080
2512.762	0.017	3520424	TRIAL	n/a	n/a	n/a	-999.0	16	n/a	n/a	pyFR	0	TJ080
2512.779	1.6	3520441	ORIENT	n/a	n/a	n/a	-999.0	16	n/a	n/a	pyFR	0	TJ080
2515.467	1.6	3523129	WORD	n/a	wordpools/wordpool_EN.txt	NAIL	1.0	16	n/a	n/a	pyFR	0	TJ080
2518.222	1.6	3525883	WORD	n/a	wordpools/wordpool_EN.txt	HAWK	2.0	16	n/a	n/a	pyFR	0	TJ080
2520.944	1.6	3528605	WORD	n/a	wordpools/wordpool_EN.txt	MAT	3.0	16	n/a	n/a	pyFR	0	TJ080
2523.363	1.6	3531024	WORD	n/a	wordpools/wordpool_EN.txt	STEM	4.0	16	n/a	n/a	pyFR	0	TJ080
2526.002	1.6	3533663	WORD	n/a	wordpools/wordpool_EN.txt	JEEP	5.0	16	n/a	n/a	pyFR	0	TJ080
2528.539	1.6	3536200	WORD	n/a	wordpools/wordpool_EN.txt	SKUNK	6.0	16	n/a	n/a	pyFR	0	TJ080
2531.111	1.6	3538772	WORD	n/a	wordpools/wordpool_EN.txt	COW	7.0	16	n/a	n/a	pyFR	0	TJ080
2533.849	1.6	3541510	WORD	n/a	wordpools/wordpool_EN.txt	FISH	8.0	16	n/a	n/a	pyFR	0	TJ080
2536.469	1.6	3544130	WORD	n/a	wordpools/wordpool_EN.txt	FOX	9.0	16	n/a	n/a	pyFR	0	TJ080
2539.007	1.6	3546668	WORD	n/a	wordpools/wordpool_EN.txt	CLOWN	10.0	16	n/a	n/a	pyFR	0	TJ080
2541.812	1.6	3549473	WORD	n/a	wordpools/wordpool_EN.txt	SHELL	11.0	16	n/a	n/a	pyFR	0	TJ080
2544.249	1.6	3551910	WORD	n/a	wordpools/wordpool_EN.txt	VASE	12.0	16	n/a	n/a	pyFR	0	TJ080
2546.954	1.6	3554614	WORD	n/a	wordpools/wordpool_EN.txt	SNOW	13.0	16	n/a	n/a	pyFR	0	TJ080
2549.741	1.6	3557401	WORD	n/a	wordpools/wordpool_EN.txt	THUMB	14.0	16	n/a	n/a	pyFR	0	TJ080
2552.429	1.6	3560089	WORD	n/a	wordpools/wordpool_EN.txt	BRUSH	15.0	16	n/a	n/a	pyFR	0	TJ080
2554.05	0.851	3561710	START	n/a	n/a	n/a	n/a	16	[-999 -999 -999]	-999.0	pyFR	0	TJ080
2554.901	8.213	3562561	PROB	8.192	n/a	n/a	n/a	16	[3 4 7]	14.0	pyFR	0	TJ080
2563.114	11.723	3570774	PROB	11.723	n/a	n/a	n/a	16	[6 9 6]	21.0	pyFR	0	TJ080
2574.837	1.116	3582496	STOP	n/a	n/a	n/a	n/a	16	[-999 -999 -999]	-999.0	pyFR	0	TJ080
2575.953	1.784	3583612	REC_START	n/a	n/a	n/a	-999.0	16	n/a	n/a	pyFR	0	TJ080
2577.737	16.469	3585396	REC_WORD	1.784	n/a	JEEP	-999.0	16	n/a	n/a	pyFR	0	TJ080
2594.206	2.96	3601865	REC_WORD	18.253	n/a	SKUNK	-999.0	16	n/a	n/a	pyFR	0	TJ080
2597.166	13.386	3604825	REC_WORD	21.213	n/a	SNOW	-999.0	16	n/a	n/a	pyFR	0	TJ080
2610.552	536.227	3618210	REC_WORD	34.599	n/a	COW	-999.0	16	n/a	n/a	pyFR	0	TJ080
3146.779	0.051	4154418	SESS_END	n/a	n/a	n/a	-999.0	16	n/a	n/a	pyFR	0	TJ080
3146.83	0.0	4154469	E	n/a	n/a	n/a	-999.0	16	n/a	n/a	pyFR	0	TJ080
