onset	duration	sample	trial_type	response_time	stim_file	item_name	serialpos	list	test	answer	experiment	session	subject
0.0	3.365	55560	E	n/a	n/a	n/a	-999	5	n/a	n/a	pyFR	0	UP045
3.365	0.0	57243	SESS_START	n/a	n/a	n/a	-999	-999	n/a	n/a	pyFR	0	UP045
3.365	85.026	57243	B	n/a	n/a	n/a	-999	-999	n/a	n/a	pyFR	0	UP045
88.391	0.024	99776	START	n/a	n/a	n/a	n/a	0	[-999 -999 -999]	-999	pyFR	0	UP045
88.415	24.807	99788	PROB	24.779	n/a	n/a	n/a	0	[6 9 5]	20	pyFR	0	UP045
113.222	8.911	112197	PROB	8.911	n/a	n/a	n/a	0	[9 5 3]	17	pyFR	0	UP045
122.133	28.639	116655	STOP	n/a	n/a	n/a	n/a	0	[-999 -999 -999]	-999	pyFR	0	UP045
150.772	0.017	130981	TRIAL	n/a	n/a	n/a	-999	1	n/a	n/a	pyFR	0	UP045
150.789	3.033	130989	ORIENT	n/a	n/a	n/a	-999	1	n/a	n/a	pyFR	0	UP045
153.822	2.799	132507	WORD	n/a	wordpools/wordpool_EN.txt	SPRING	1	1	n/a	n/a	pyFR	0	UP045
156.621	2.531	133907	WORD	n/a	wordpools/wordpool_EN.txt	WAND	2	1	n/a	n/a	pyFR	0	UP045
159.152	2.533	135173	WORD	n/a	wordpools/wordpool_EN.txt	CLOCK	3	1	n/a	n/a	pyFR	0	UP045
161.685	2.799	136440	WORD	n/a	wordpools/wordpool_EN.txt	WALL	4	1	n/a	n/a	pyFR	0	UP045
164.484	2.449	137840	WORD	n/a	wordpools/wordpool_EN.txt	POOL	5	1	n/a	n/a	pyFR	0	UP045
166.933	2.616	139065	WORD	n/a	wordpools/wordpool_EN.txt	SEAT	6	1	n/a	n/a	pyFR	0	UP045
169.549	2.497	140374	WORD	n/a	wordpools/wordpool_EN.txt	MULE	7	1	n/a	n/a	pyFR	0	UP045
172.046	2.634	141623	WORD	n/a	wordpools/wordpool_EN.txt	TOAD	8	1	n/a	n/a	pyFR	0	UP045
174.68	2.514	142940	WORD	n/a	wordpools/wordpool_EN.txt	SKI	9	1	n/a	n/a	pyFR	0	UP045
177.194	2.734	144198	WORD	n/a	wordpools/wordpool_EN.txt	STAIR	10	1	n/a	n/a	pyFR	0	UP045
179.928	2.498	145566	WORD	n/a	wordpools/wordpool_EN.txt	CASH	11	1	n/a	n/a	pyFR	0	UP045
182.426	2.516	146815	WORD	n/a	wordpools/wordpool_EN.txt	POND	12	1	n/a	n/a	pyFR	0	UP045
184.942	2.599	148074	WORD	n/a	wordpools/wordpool_EN.txt	HAND	13	1	n/a	n/a	pyFR	0	UP045
187.541	2.498	149374	WORD	n/a	wordpools/wordpool_EN.txt	MOTH	14	1	n/a	n/a	pyFR	0	UP045
190.039	1.618	150623	WORD	n/a	wordpools/wordpool_EN.txt	COW	15	1	n/a	n/a	pyFR	0	UP045
191.657	0.963	151433	START	n/a	n/a	n/a	n/a	1	[-999 -999 -999]	-999	pyFR	0	UP045
192.62	5.58	151915	PROB	5.555	n/a	n/a	n/a	1	[2 8 8]	18	pyFR	0	UP045
198.2	3.218	154706	PROB	3.189	n/a	n/a	n/a	1	[9 1 1]	11	pyFR	0	UP045
201.418	3.547	156316	PROB	3.515	n/a	n/a	n/a	1	[6 9 9]	24	pyFR	0	UP045
204.965	4.531	158090	PROB	4.493	n/a	n/a	n/a	1	[3 5 9]	17	pyFR	0	UP045
209.496	8.781	160356	PROB	8.781	n/a	n/a	n/a	1	[3 8 1]	12	pyFR	0	UP045
218.277	1.192	164749	STOP	n/a	n/a	n/a	n/a	1	[-999 -999 -999]	-999	pyFR	0	UP045
219.469	1.574	165345	REC_START	n/a	n/a	n/a	-999	1	n/a	n/a	pyFR	0	UP045
221.043	2.267	166133	REC_WORD	1.574	n/a	TOAD	-999	1	n/a	n/a	pyFR	0	UP045
223.31	1.12	167267	REC_WORD	3.841	n/a	LAMP	-999	1	n/a	n/a	pyFR	0	UP045
224.43	7.139	167827	REC_WORD	4.961	n/a	WATER	-999	1	n/a	n/a	pyFR	0	UP045
231.569	5.251	171398	REC_WORD	12.1	n/a	LAMB	-999	1	n/a	n/a	pyFR	0	UP045
236.82	0.4	174025	REC_WORD	17.351	n/a	COOL	-999	1	n/a	n/a	pyFR	0	UP045
237.22	40.482	174225	REC_WORD	17.751	n/a	SPRING	-999	1	n/a	n/a	pyFR	0	UP045
277.702	0.017	194475	TRIAL	n/a	n/a	n/a	-999	2	n/a	n/a	pyFR	0	UP045
277.719	2.965	194484	ORIENT	n/a	n/a	n/a	-999	2	n/a	n/a	pyFR	0	UP045
280.684	2.714	195967	WORD	n/a	wordpools/wordpool_EN.txt	DOCK	1	2	n/a	n/a	pyFR	0	UP045
283.398	2.782	197324	WORD	n/a	wordpools/wordpool_EN.txt	CLOUD	2	2	n/a	n/a	pyFR	0	UP045
286.18	2.784	198716	WORD	n/a	wordpools/wordpool_EN.txt	BELL	3	2	n/a	n/a	pyFR	0	UP045
288.964	2.565	200109	WORD	n/a	wordpools/wordpool_EN.txt	PURSE	4	2	n/a	n/a	pyFR	0	UP045
291.529	2.731	201392	WORD	n/a	wordpools/wordpool_EN.txt	SEAL	5	2	n/a	n/a	pyFR	0	UP045
294.26	2.799	202758	WORD	n/a	wordpools/wordpool_EN.txt	AXE	6	2	n/a	n/a	pyFR	0	UP045
297.059	2.734	204158	WORD	n/a	wordpools/wordpool_EN.txt	QUEEN	7	2	n/a	n/a	pyFR	0	UP045
299.793	2.715	205526	WORD	n/a	wordpools/wordpool_EN.txt	BADGE	8	2	n/a	n/a	pyFR	0	UP045
302.508	2.781	206884	WORD	n/a	wordpools/wordpool_EN.txt	WEED	9	2	n/a	n/a	pyFR	0	UP045
305.289	2.467	208275	WORD	n/a	wordpools/wordpool_EN.txt	VAN	10	2	n/a	n/a	pyFR	0	UP045
307.756	2.682	209509	WORD	n/a	wordpools/wordpool_EN.txt	CLOWN	11	2	n/a	n/a	pyFR	0	UP045
310.438	2.747	210851	WORD	n/a	wordpools/wordpool_EN.txt	MAT	12	2	n/a	n/a	pyFR	0	UP045
313.185	2.467	212225	WORD	n/a	wordpools/wordpool_EN.txt	TEA	13	2	n/a	n/a	pyFR	0	UP045
315.652	2.614	213459	WORD	n/a	wordpools/wordpool_EN.txt	FLAG	14	2	n/a	n/a	pyFR	0	UP045
318.266	1.62	214766	WORD	n/a	wordpools/wordpool_EN.txt	FUDGE	15	2	n/a	n/a	pyFR	0	UP045
319.886	0.829	215577	START	n/a	n/a	n/a	n/a	2	[-999 -999 -999]	-999	pyFR	0	UP045
320.715	4.447	215992	PROB	4.412	n/a	n/a	n/a	2	[6 4 6]	18	pyFR	0	UP045
325.162	4.266	218216	PROB	4.227	n/a	n/a	n/a	2	[1 4 4]	9	pyFR	0	UP045
329.428	5.248	220350	PROB	5.224	n/a	n/a	n/a	2	[1 8 3]	13	pyFR	0	UP045
334.676	8.068	222975	PROB	8.068	n/a	n/a	n/a	2	[7 6 3]	16	pyFR	0	UP045
342.744	1.164	227011	STOP	n/a	n/a	n/a	n/a	2	[-999 -999 -999]	-999	pyFR	0	UP045
343.908	2.789	227593	REC_START	n/a	n/a	n/a	-999	2	n/a	n/a	pyFR	0	UP045
346.697	2.932	228989	REC_WORD	2.789	n/a	QUEEN	-999	2	n/a	n/a	pyFR	0	UP045
349.629	0.963	230455	REC_WORD	5.721	n/a	HARBOR	-999	2	n/a	n/a	pyFR	0	UP045
350.592	7.128	230937	REC_WORD	6.684	n/a	DECK	-999	2	n/a	n/a	pyFR	0	UP045
357.72	2.276	234503	REC_WORD	13.812	n/a	CLOWN	-999	2	n/a	n/a	pyFR	0	UP045
359.996	1.102	235641	REC_WORD	16.088	n/a	TRUCK	-999	2	n/a	n/a	pyFR	0	UP045
361.098	7.752	236192	REC_WORD	17.19	n/a	BELL	-999	2	n/a	n/a	pyFR	0	UP045
368.85	1.94	240070	REC_WORD	24.942	n/a	BOAT	-999	2	n/a	n/a	pyFR	0	UP045
370.79	3.842	241041	REC_WORD	26.882	n/a	SEAL	-999	2	n/a	n/a	pyFR	0	UP045
374.632	9.552	242962	REC_WORD	30.724	n/a	FLAG	-999	2	n/a	n/a	pyFR	0	UP045
384.184	0.678	247741	REC_WORD	40.276	n/a	WATER	-999	2	n/a	n/a	pyFR	0	UP045
384.862	11.706	248080	REC_WORD	40.954	n/a	OCEAN	-999	2	n/a	n/a	pyFR	0	UP045
396.568	0.016	253935	TRIAL	n/a	n/a	n/a	-999	3	n/a	n/a	pyFR	0	UP045
396.584	2.849	253943	ORIENT	n/a	n/a	n/a	-999	3	n/a	n/a	pyFR	0	UP045
399.433	2.432	255369	WORD	n/a	wordpools/wordpool_EN.txt	WHALE	1	3	n/a	n/a	pyFR	0	UP045
401.865	2.514	256585	WORD	n/a	wordpools/wordpool_EN.txt	SKUNK	2	3	n/a	n/a	pyFR	0	UP045
404.379	2.534	257843	WORD	n/a	wordpools/wordpool_EN.txt	DAD	3	3	n/a	n/a	pyFR	0	UP045
406.913	2.615	259110	WORD	n/a	wordpools/wordpool_EN.txt	ROAD	4	3	n/a	n/a	pyFR	0	UP045
409.528	2.466	260418	WORD	n/a	wordpools/wordpool_EN.txt	MAIL	5	3	n/a	n/a	pyFR	0	UP045
411.994	2.432	261652	WORD	n/a	wordpools/wordpool_EN.txt	TIE	6	3	n/a	n/a	pyFR	0	UP045
414.426	2.598	262869	WORD	n/a	wordpools/wordpool_EN.txt	GOLD	7	3	n/a	n/a	pyFR	0	UP045
417.024	2.45	264168	WORD	n/a	wordpools/wordpool_EN.txt	SHIRT	8	3	n/a	n/a	pyFR	0	UP045
419.474	2.631	265394	WORD	n/a	wordpools/wordpool_EN.txt	STICK	9	3	n/a	n/a	pyFR	0	UP045
422.105	2.833	266710	WORD	n/a	wordpools/wordpool_EN.txt	SEED	10	3	n/a	n/a	pyFR	0	UP045
424.938	2.666	268127	WORD	n/a	wordpools/wordpool_EN.txt	HAWK	11	3	n/a	n/a	pyFR	0	UP045
427.604	2.764	269461	WORD	n/a	wordpools/wordpool_EN.txt	RICE	12	3	n/a	n/a	pyFR	0	UP045
430.368	2.45	270843	WORD	n/a	wordpools/wordpool_EN.txt	BEE	13	3	n/a	n/a	pyFR	0	UP045
432.818	2.515	272069	WORD	n/a	wordpools/wordpool_EN.txt	RUG	14	3	n/a	n/a	pyFR	0	UP045
435.333	1.618	273327	WORD	n/a	wordpools/wordpool_EN.txt	DRUM	15	3	n/a	n/a	pyFR	0	UP045
436.951	0.98	274136	START	n/a	n/a	n/a	n/a	3	[-999 -999 -999]	-999	pyFR	0	UP045
437.931	3.632	274627	PROB	3.603	n/a	n/a	n/a	3	[1 1 6]	6	pyFR	0	UP045
441.563	9.962	276443	PROB	9.926	n/a	n/a	n/a	3	[9 5 6]	20	pyFR	0	UP045
451.525	3.699	281427	PROB	3.674	n/a	n/a	n/a	3	[1 7 3]	11	pyFR	0	UP045
455.224	7.604	283277	PROB	7.604	n/a	n/a	n/a	3	[6 8 3]	17	pyFR	0	UP045
462.828	1.144	287081	STOP	n/a	n/a	n/a	n/a	3	[-999 -999 -999]	-999	pyFR	0	UP045
463.972	1.73	287653	REC_START	n/a	n/a	n/a	-999	3	n/a	n/a	pyFR	0	UP045
465.702	1.954	288518	REC_WORD	1.73	n/a	DAD	-999	3	n/a	n/a	pyFR	0	UP045
467.656	1.199	289496	REC_WORD	3.684	n/a	TIE	-999	3	n/a	n/a	pyFR	0	UP045
468.855	2.692	290096	REC_WORD	4.883	n/a	HAWK	-999	3	n/a	n/a	pyFR	0	UP045
471.547	0.833	291442	REC_WORD	7.575	n/a	ROAD	-999	3	n/a	n/a	pyFR	0	UP045
472.38	5.016	291859	REC_WORD	8.408	n/a	TRUCK	-999	3	n/a	n/a	pyFR	0	UP045
477.396	3.823	294368	REC_WORD	13.424	n/a	CANE	-999	3	n/a	n/a	pyFR	0	UP045
481.219	2.523	296280	REC_WORD_VV	17.247	n/a	<>	-999	3	n/a	n/a	pyFR	0	UP045
483.742	1.911	297543	REC_WORD	19.77	n/a	MAIL	-999	3	n/a	n/a	pyFR	0	UP045
485.653	0.917	298498	REC_WORD	21.681	n/a	TIE	-999	3	n/a	n/a	pyFR	0	UP045
486.57	6.677	298957	REC_WORD	22.598	n/a	SUIT	-999	3	n/a	n/a	pyFR	0	UP045
493.247	1.24	302297	REC_WORD	29.275	n/a	EAGLE	-999	3	n/a	n/a	pyFR	0	UP045
494.487	5.963	302918	REC_WORD	30.515	n/a	HAWK	-999	3	n/a	n/a	pyFR	0	UP045
500.45	0.878	305900	REC_WORD	36.478	n/a	ROAD	-999	3	n/a	n/a	pyFR	0	UP045
501.328	14.455	306340	REC_WORD	37.356	n/a	TRUCK	-999	3	n/a	n/a	pyFR	0	UP045
515.783	0.016	313570	TRIAL	n/a	n/a	n/a	-999	4	n/a	n/a	pyFR	0	UP045
515.799	2.982	313578	ORIENT	n/a	n/a	n/a	-999	4	n/a	n/a	pyFR	0	UP045
518.781	2.581	315070	WORD	n/a	wordpools/wordpool_EN.txt	PLANE	1	4	n/a	n/a	pyFR	0	UP045
521.362	2.434	316361	WORD	n/a	wordpools/wordpool_EN.txt	SNAIL	2	4	n/a	n/a	pyFR	0	UP045
523.796	2.497	317579	WORD	n/a	wordpools/wordpool_EN.txt	PEACH	3	4	n/a	n/a	pyFR	0	UP045
526.293	2.65	318828	WORD	n/a	wordpools/wordpool_EN.txt	BOARD	4	4	n/a	n/a	pyFR	0	UP045
528.943	2.566	320153	WORD	n/a	wordpools/wordpool_EN.txt	COIN	5	4	n/a	n/a	pyFR	0	UP045
531.509	2.548	321437	WORD	n/a	wordpools/wordpool_EN.txt	BAND	6	4	n/a	n/a	pyFR	0	UP045
534.057	2.733	322712	WORD	n/a	wordpools/wordpool_EN.txt	BOMB	7	4	n/a	n/a	pyFR	0	UP045
536.79	2.448	324079	WORD	n/a	wordpools/wordpool_EN.txt	MILK	8	4	n/a	n/a	pyFR	0	UP045
539.238	2.65	325303	WORD	n/a	wordpools/wordpool_EN.txt	MAZE	9	4	n/a	n/a	pyFR	0	UP045
541.888	2.565	326629	WORD	n/a	wordpools/wordpool_EN.txt	STREET	10	4	n/a	n/a	pyFR	0	UP045
544.453	2.482	327912	WORD	n/a	wordpools/wordpool_EN.txt	CLIFF	11	4	n/a	n/a	pyFR	0	UP045
546.935	2.733	329154	WORD	n/a	wordpools/wordpool_EN.txt	BED	12	4	n/a	n/a	pyFR	0	UP045
549.668	2.564	330521	WORD	n/a	wordpools/wordpool_EN.txt	FORT	13	4	n/a	n/a	pyFR	0	UP045
552.232	2.816	331803	WORD	n/a	wordpools/wordpool_EN.txt	ROOT	14	4	n/a	n/a	pyFR	0	UP045
555.048	1.619	333212	WORD	n/a	wordpools/wordpool_EN.txt	KEY	15	4	n/a	n/a	pyFR	0	UP045
556.667	1.129	334022	START	n/a	n/a	n/a	n/a	4	[-999 -999 -999]	-999	pyFR	0	UP045
557.796	3.316	334587	PROB	3.285	n/a	n/a	n/a	4	[1 1 5]	7	pyFR	0	UP045
561.112	3.015	336245	PROB	2.984	n/a	n/a	n/a	4	[3 2 7]	12	pyFR	0	UP045
564.127	4.03	337754	PROB	4.007	n/a	n/a	n/a	4	[2 6 5]	13	pyFR	0	UP045
568.157	3.368	339769	PROB	3.336	n/a	n/a	n/a	4	[7 7 2]	16	pyFR	0	UP045
571.525	4.065	341454	PROB	4.039	n/a	n/a	n/a	4	[3 8 7]	28	pyFR	0	UP045
575.59	2.811	343488	PROB	2.811	n/a	n/a	n/a	4	[3 6 3]	12	pyFR	0	UP045
578.401	1.139	344894	STOP	n/a	n/a	n/a	n/a	4	[-999 -999 -999]	-999	pyFR	0	UP045
579.54	2.821	345464	REC_START	n/a	n/a	n/a	-999	4	n/a	n/a	pyFR	0	UP045
582.361	1.141	346875	REC_WORD_VV	2.821	n/a	<>	-999	4	n/a	n/a	pyFR	0	UP045
583.502	2.21	347446	REC_WORD_VV	3.962	n/a	<>	-999	4	n/a	n/a	pyFR	0	UP045
585.712	18.806	348551	REC_WORD_VV	6.172	n/a	<>	-999	4	n/a	n/a	pyFR	0	UP045
604.518	14.168	357958	REC_WORD_VV	24.978	n/a	<>	-999	4	n/a	n/a	pyFR	0	UP045
618.686	0.684	365046	REC_WORD	39.146	n/a	BEE	-999	4	n/a	n/a	pyFR	0	UP045
619.37	18.959	365388	REC_WORD	39.83	n/a	BELL	-999	4	n/a	n/a	pyFR	0	UP045
638.329	0.016	374872	TRIAL	n/a	n/a	n/a	-999	5	n/a	n/a	pyFR	0	UP045
638.345	2.782	374880	ORIENT	n/a	n/a	n/a	-999	5	n/a	n/a	pyFR	0	UP045
641.127	2.8	376271	WORD	n/a	wordpools/wordpool_EN.txt	OWL	1	5	n/a	n/a	pyFR	0	UP045
643.927	2.716	377672	WORD	n/a	wordpools/wordpool_EN.txt	GLOVE	2	5	n/a	n/a	pyFR	0	UP045
646.643	2.782	379031	WORD	n/a	wordpools/wordpool_EN.txt	APE	3	5	n/a	n/a	pyFR	0	UP045
649.425	2.548	380422	WORD	n/a	wordpools/wordpool_EN.txt	LAWN	4	5	n/a	n/a	pyFR	0	UP045
651.973	2.75	381697	WORD	n/a	wordpools/wordpool_EN.txt	SOCK	5	5	n/a	n/a	pyFR	0	UP045
654.723	2.564	383072	WORD	n/a	wordpools/wordpool_EN.txt	FLEA	6	5	n/a	n/a	pyFR	0	UP045
657.287	2.715	384355	WORD	n/a	wordpools/wordpool_EN.txt	HOUSE	7	5	n/a	n/a	pyFR	0	UP045
660.002	2.467	385713	WORD	n/a	wordpools/wordpool_EN.txt	STEAM	8	5	n/a	n/a	pyFR	0	UP045
662.469	2.781	386947	WORD	n/a	wordpools/wordpool_EN.txt	TEETH	9	5	n/a	n/a	pyFR	0	UP045
665.25	2.6	388338	WORD	n/a	wordpools/wordpool_EN.txt	CAR	10	5	n/a	n/a	pyFR	0	UP045
667.85	2.498	389639	WORD	n/a	wordpools/wordpool_EN.txt	SHEET	11	5	n/a	n/a	pyFR	0	UP045
670.348	2.55	390888	WORD	n/a	wordpools/wordpool_EN.txt	KITE	12	5	n/a	n/a	pyFR	0	UP045
672.898	2.649	392164	WORD	n/a	wordpools/wordpool_EN.txt	WEB	13	5	n/a	n/a	pyFR	0	UP045
675.547	2.564	393489	WORD	n/a	wordpools/wordpool_EN.txt	PRINCE	14	5	n/a	n/a	pyFR	0	UP045
678.111	1.619	394772	WORD	n/a	wordpools/wordpool_EN.txt	HORN	15	5	n/a	n/a	pyFR	0	UP045
679.73	0.0	395582	START	n/a	n/a	n/a	n/a	5	[-999 -999 -999]	-999	pyFR	0	UP045
