onset	duration	sample	trial_type	response_time	stim_file	item_name	serialpos	list	test	answer	experiment	session	subject
0.0	0.0	995947	B	n/a	n/a	n/a	-999.0	-999	n/a	n/a	pyFR	2	TJ069
0.0	58.953	995947	SESS_START	n/a	n/a	n/a	-999.0	-999	n/a	n/a	pyFR	2	TJ069
58.953	0.023	1113852	START	n/a	n/a	n/a	n/a	0	[-999 -999 -999]	-999.0	pyFR	2	TJ069
58.976	4.987	1113898	PROB	4.959	n/a	n/a	n/a	0	[7 5 1]	13.0	pyFR	2	TJ069
63.963	2.754	1123872	PROB	2.724	n/a	n/a	n/a	0	[1 3 1]	5.0	pyFR	2	TJ069
66.717	3.685	1129380	PROB	3.657	n/a	n/a	n/a	0	[4 7 2]	13.0	pyFR	2	TJ069
70.402	3.086	1136750	PROB	3.052	n/a	n/a	n/a	0	[7 8 5]	20.0	pyFR	2	TJ069
73.488	2.836	1142922	PROB	2.814	n/a	n/a	n/a	0	[1 6 2]	9.0	pyFR	2	TJ069
76.324	3.236	1148594	PROB	3.21	n/a	n/a	n/a	0	[5 6 9]	20.0	pyFR	2	TJ069
79.56	2.852	1155065	PROB	2.822	n/a	n/a	n/a	0	[2 6 4]	12.0	pyFR	2	TJ069
82.412	2.819	1160769	PROB	2.786	n/a	n/a	n/a	0	[9 5 9]	23.0	pyFR	2	TJ069
85.231	3.153	1166407	PROB	3.119	n/a	n/a	n/a	0	[5 3 9]	17.0	pyFR	2	TJ069
88.384	7.295	1172713	PROB	7.295	n/a	n/a	n/a	0	[9 8 6]	23.0	pyFR	2	TJ069
95.679	43.515	1187303	STOP	n/a	n/a	n/a	n/a	0	[-999 -999 -999]	-999.0	pyFR	2	TJ069
139.194	0.016	1274332	TRIAL	n/a	n/a	n/a	-999.0	1	n/a	n/a	pyFR	2	TJ069
139.21	1.6	1274364	ORIENT	n/a	n/a	n/a	-999.0	1	n/a	n/a	pyFR	2	TJ069
141.896	1.6	1279736	WORD	n/a	wordpools/wordpool_EN.txt	RAIN	1.0	1	n/a	n/a	pyFR	2	TJ069
144.632	1.6	1285208	WORD	n/a	wordpools/wordpool_EN.txt	PASTE	2.0	1	n/a	n/a	pyFR	2	TJ069
147.117	1.6	1290178	WORD	n/a	wordpools/wordpool_EN.txt	GRAPE	3.0	1	n/a	n/a	pyFR	2	TJ069
149.57	1.6	1295084	WORD	n/a	wordpools/wordpool_EN.txt	HOUSE	4.0	1	n/a	n/a	pyFR	2	TJ069
152.121	1.6	1300186	WORD	n/a	wordpools/wordpool_EN.txt	SHIRT	5.0	1	n/a	n/a	pyFR	2	TJ069
154.774	1.6	1305491	WORD	n/a	wordpools/wordpool_EN.txt	FORK	6.0	1	n/a	n/a	pyFR	2	TJ069
157.442	1.6	1310827	WORD	n/a	wordpools/wordpool_EN.txt	CAKE	7.0	1	n/a	n/a	pyFR	2	TJ069
159.895	1.6	1315733	WORD	n/a	wordpools/wordpool_EN.txt	TRASH	8.0	1	n/a	n/a	pyFR	2	TJ069
162.429	1.6	1320801	WORD	n/a	wordpools/wordpool_EN.txt	ROAD	9.0	1	n/a	n/a	pyFR	2	TJ069
164.948	1.6	1325839	WORD	n/a	wordpools/wordpool_EN.txt	HAT	10.0	1	n/a	n/a	pyFR	2	TJ069
167.534	1.6	1331011	WORD	n/a	wordpools/wordpool_EN.txt	WAND	11.0	1	n/a	n/a	pyFR	2	TJ069
170.336	1.6	1336615	WORD	n/a	wordpools/wordpool_EN.txt	SCHOOL	12.0	1	n/a	n/a	pyFR	2	TJ069
172.806	1.6	1341555	WORD	n/a	wordpools/wordpool_EN.txt	DUCK	13.0	1	n/a	n/a	pyFR	2	TJ069
175.54	1.6	1347023	WORD	n/a	wordpools/wordpool_EN.txt	MOON	14.0	1	n/a	n/a	pyFR	2	TJ069
178.276	1.6	1352495	WORD	n/a	wordpools/wordpool_EN.txt	CHIN	15.0	1	n/a	n/a	pyFR	2	TJ069
179.88	0.949	1355703	START	n/a	n/a	n/a	n/a	1	[-999 -999 -999]	-999.0	pyFR	2	TJ069
180.829	3.003	1357601	PROB	2.978	n/a	n/a	n/a	1	[6 5 2]	13.0	pyFR	2	TJ069
183.832	3.769	1363607	PROB	3.743	n/a	n/a	n/a	1	[5 7 9]	21.0	pyFR	2	TJ069
187.601	4.037	1371145	PROB	4.014	n/a	n/a	n/a	1	[2 2 6]	10.0	pyFR	2	TJ069
191.638	2.902	1379218	PROB	2.88	n/a	n/a	n/a	1	[9 5 4]	13.0	pyFR	2	TJ069
194.54	5.105	1385022	PROB	5.083	n/a	n/a	n/a	1	[2 7 6]	15.0	pyFR	2	TJ069
199.645	3.93	1395232	PROB	3.93	n/a	n/a	n/a	1	[9 7 2]	18.0	pyFR	2	TJ069
203.575	1.208	1403092	STOP	n/a	n/a	n/a	n/a	1	[-999 -999 -999]	-999.0	pyFR	2	TJ069
204.783	1.394	1405508	REC_START	n/a	n/a	n/a	-999.0	1	n/a	n/a	pyFR	2	TJ069
206.177	1.727	1408296	REC_WORD	1.394	n/a	HOUSE	-999.0	1	n/a	n/a	pyFR	2	TJ069
207.904	2.164	1411750	REC_WORD	3.121	n/a	RAIN	-999.0	1	n/a	n/a	pyFR	2	TJ069
210.068	2.242	1416078	REC_WORD	5.285	n/a	GRAPE	-999.0	1	n/a	n/a	pyFR	2	TJ069
212.31	2.228	1420562	REC_WORD	7.527	n/a	PASTE	-999.0	1	n/a	n/a	pyFR	2	TJ069
214.538	3.532	1425018	REC_WORD	9.755	n/a	MOON	-999.0	1	n/a	n/a	pyFR	2	TJ069
218.07	6.731	1432082	REC_WORD	13.287	n/a	FORK	-999.0	1	n/a	n/a	pyFR	2	TJ069
224.801	11.299	1445544	REC_WORD	20.018	n/a	CHORE	-999.0	1	n/a	n/a	pyFR	2	TJ069
236.1	9.611	1468141	REC_WORD	31.317	n/a	STUDY	-999.0	1	n/a	n/a	pyFR	2	TJ069
245.711	26.645	1487363	REC_WORD	40.928	n/a	LIST	-999.0	1	n/a	n/a	pyFR	2	TJ069
272.356	0.016	1540652	TRIAL	n/a	n/a	n/a	-999.0	2	n/a	n/a	pyFR	2	TJ069
272.372	1.6	1540684	ORIENT	n/a	n/a	n/a	-999.0	2	n/a	n/a	pyFR	2	TJ069
275.007	1.6	1545954	WORD	n/a	wordpools/wordpool_EN.txt	CLOCK	1.0	2	n/a	n/a	pyFR	2	TJ069
277.509	1.6	1550958	WORD	n/a	wordpools/wordpool_EN.txt	TREE	2.0	2	n/a	n/a	pyFR	2	TJ069
280.262	1.6	1556464	WORD	n/a	wordpools/wordpool_EN.txt	WALL	3.0	2	n/a	n/a	pyFR	2	TJ069
282.698	1.6	1561336	WORD	n/a	wordpools/wordpool_EN.txt	SOCK	4.0	2	n/a	n/a	pyFR	2	TJ069
285.383	1.6	1566706	WORD	n/a	wordpools/wordpool_EN.txt	FROG	5.0	2	n/a	n/a	pyFR	2	TJ069
287.985	1.6	1571910	WORD	n/a	wordpools/wordpool_EN.txt	POND	6.0	2	n/a	n/a	pyFR	2	TJ069
290.47	1.6	1576880	WORD	n/a	wordpools/wordpool_EN.txt	CUP	7.0	2	n/a	n/a	pyFR	2	TJ069
293.039	1.6	1582018	WORD	n/a	wordpools/wordpool_EN.txt	COUCH	8.0	2	n/a	n/a	pyFR	2	TJ069
295.558	1.6	1587056	WORD	n/a	wordpools/wordpool_EN.txt	FUDGE	9.0	2	n/a	n/a	pyFR	2	TJ069
298.06	1.6	1592060	WORD	n/a	wordpools/wordpool_EN.txt	JEEP	10.0	2	n/a	n/a	pyFR	2	TJ069
300.646	1.6	1597232	WORD	n/a	wordpools/wordpool_EN.txt	LAMP	11.0	2	n/a	n/a	pyFR	2	TJ069
303.281	1.6	1602502	WORD	n/a	wordpools/wordpool_EN.txt	LEG	12.0	2	n/a	n/a	pyFR	2	TJ069
306.0	1.6	1607940	WORD	n/a	wordpools/wordpool_EN.txt	STICK	13.0	2	n/a	n/a	pyFR	2	TJ069
308.586	1.6	1613111	WORD	n/a	wordpools/wordpool_EN.txt	APE	14.0	2	n/a	n/a	pyFR	2	TJ069
311.104	1.6	1618147	WORD	n/a	wordpools/wordpool_EN.txt	GLOVE	15.0	2	n/a	n/a	pyFR	2	TJ069
312.708	1.066	1621355	START	n/a	n/a	n/a	n/a	2	[-999 -999 -999]	-999.0	pyFR	2	TJ069
313.774	4.154	1623487	PROB	4.129	n/a	n/a	n/a	2	[3 3 4]	10.0	pyFR	2	TJ069
317.928	3.034	1631795	PROB	2.999	n/a	n/a	n/a	2	[6 3 4]	13.0	pyFR	2	TJ069
320.962	2.904	1637863	PROB	2.877	n/a	n/a	n/a	2	[5 9 7]	23.0	pyFR	2	TJ069
323.866	7.505	1643671	PROB	7.477	n/a	n/a	n/a	2	[3 6 7]	15.0	pyFR	2	TJ069
331.371	6.139	1658681	PROB	6.139	n/a	n/a	n/a	2	[4 7 5]	16.0	pyFR	2	TJ069
337.51	1.102	1670959	STOP	n/a	n/a	n/a	n/a	2	[-999 -999 -999]	-999.0	pyFR	2	TJ069
338.612	1.685	1673163	REC_START	n/a	n/a	n/a	-999.0	2	n/a	n/a	pyFR	2	TJ069
340.297	1.815	1676533	REC_WORD	1.685	n/a	APE	-999.0	2	n/a	n/a	pyFR	2	TJ069
342.112	2.614	1680163	REC_WORD	3.5	n/a	STICK	-999.0	2	n/a	n/a	pyFR	2	TJ069
344.726	3.073	1685391	REC_WORD	6.114	n/a	UP	-999.0	2	n/a	n/a	pyFR	2	TJ069
347.799	3.47	1691536	REC_WORD	9.187	n/a	GLOVE	-999.0	2	n/a	n/a	pyFR	2	TJ069
351.269	2.775	1698476	REC_WORD	12.657	n/a	WALL	-999.0	2	n/a	n/a	pyFR	2	TJ069
354.044	3.216	1704026	REC_WORD	15.432	n/a	JEEP	-999.0	2	n/a	n/a	pyFR	2	TJ069
357.26	5.092	1710458	REC_WORD	18.648	n/a	CLOCK	-999.0	2	n/a	n/a	pyFR	2	TJ069
362.352	8.282	1720642	REC_WORD	23.74	n/a	JOB	-999.0	2	n/a	n/a	pyFR	2	TJ069
370.634	1.0	1737206	REC_WORD_VV	32.022	n/a	<>	-999.0	2	n/a	n/a	pyFR	2	TJ069
371.634	2.187	1739206	REC_WORD_VV	33.022	n/a	<>	-999.0	2	n/a	n/a	pyFR	2	TJ069
373.821	0.415	1743580	REC_WORD_VV	35.209	n/a	<>	-999.0	2	n/a	n/a	pyFR	2	TJ069
374.236	5.023	1744410	REC_WORD	35.624	n/a	CHORE	-999.0	2	n/a	n/a	pyFR	2	TJ069
379.259	21.605	1754456	REC_WORD_VV	40.647	n/a	<>	-999.0	2	n/a	n/a	pyFR	2	TJ069
400.864	0.017	1797665	TRIAL	n/a	n/a	n/a	-999.0	3	n/a	n/a	pyFR	2	TJ069
400.881	1.6	1797699	ORIENT	n/a	n/a	n/a	-999.0	3	n/a	n/a	pyFR	2	TJ069
403.683	1.6	1803303	WORD	n/a	wordpools/wordpool_EN.txt	WEB	1.0	3	n/a	n/a	pyFR	2	TJ069
406.151	1.6	1808239	WORD	n/a	wordpools/wordpool_EN.txt	FLUTE	2.0	3	n/a	n/a	pyFR	2	TJ069
408.687	1.6	1813311	WORD	n/a	wordpools/wordpool_EN.txt	SUIT	3.0	3	n/a	n/a	pyFR	2	TJ069
411.155	1.6	1818247	WORD	n/a	wordpools/wordpool_EN.txt	MUG	4.0	3	n/a	n/a	pyFR	2	TJ069
413.708	1.6	1823353	WORD	n/a	wordpools/wordpool_EN.txt	SPARK	5.0	3	n/a	n/a	pyFR	2	TJ069
416.543	1.6	1829023	WORD	n/a	wordpools/wordpool_EN.txt	OAR	6.0	3	n/a	n/a	pyFR	2	TJ069
419.095	1.6	1834127	WORD	n/a	wordpools/wordpool_EN.txt	BEAN	7.0	3	n/a	n/a	pyFR	2	TJ069
421.882	1.6	1839700	WORD	n/a	wordpools/wordpool_EN.txt	BOX	8.0	3	n/a	n/a	pyFR	2	TJ069
424.684	1.6	1845304	WORD	n/a	wordpools/wordpool_EN.txt	POLE	9.0	3	n/a	n/a	pyFR	2	TJ069
427.135	1.6	1850206	WORD	n/a	wordpools/wordpool_EN.txt	DEER	10.0	3	n/a	n/a	pyFR	2	TJ069
429.655	1.6	1855246	WORD	n/a	wordpools/wordpool_EN.txt	WOOD	11.0	3	n/a	n/a	pyFR	2	TJ069
432.289	1.6	1860514	WORD	n/a	wordpools/wordpool_EN.txt	SOUP	12.0	3	n/a	n/a	pyFR	2	TJ069
434.709	1.6	1865354	WORD	n/a	wordpools/wordpool_EN.txt	PET	13.0	3	n/a	n/a	pyFR	2	TJ069
437.26	1.6	1870456	WORD	n/a	wordpools/wordpool_EN.txt	TIE	14.0	3	n/a	n/a	pyFR	2	TJ069
439.996	1.6	1875928	WORD	n/a	wordpools/wordpool_EN.txt	MOTH	15.0	3	n/a	n/a	pyFR	2	TJ069
441.599	0.932	1879134	START	n/a	n/a	n/a	n/a	3	[-999 -999 -999]	-999.0	pyFR	2	TJ069
442.531	5.105	1880998	PROB	5.077	n/a	n/a	n/a	3	[6 5 6]	17.0	pyFR	2	TJ069
447.636	5.121	1891208	PROB	5.091	n/a	n/a	n/a	3	[1 9 7]	17.0	pyFR	2	TJ069
452.757	2.702	1901450	PROB	2.673	n/a	n/a	n/a	3	[2 2 8]	12.0	pyFR	2	TJ069
455.459	6.436	1906854	PROB	6.436	n/a	n/a	n/a	3	[6 8 9]	23.0	pyFR	2	TJ069
461.895	1.237	1919725	STOP	n/a	n/a	n/a	n/a	3	[-999 -999 -999]	-999.0	pyFR	2	TJ069
463.132	2.034	1922199	REC_START	n/a	n/a	n/a	-999.0	3	n/a	n/a	pyFR	2	TJ069
465.166	3.376	1926267	REC_WORD	2.034	n/a	BEAN	-999.0	3	n/a	n/a	pyFR	2	TJ069
468.542	3.487	1933019	REC_WORD	5.41	n/a	PIE	-999.0	3	n/a	n/a	pyFR	2	TJ069
472.029	6.377	1939993	REC_WORD	8.897	n/a	WOOD	-999.0	3	n/a	n/a	pyFR	2	TJ069
478.406	0.621	1952747	REC_WORD_VV	15.274	n/a	<>	-999.0	3	n/a	n/a	pyFR	2	TJ069
479.027	5.285	1953989	REC_WORD	15.895	n/a	STICK	-999.0	3	n/a	n/a	pyFR	2	TJ069
484.312	6.392	1964559	REC_WORD	21.18	n/a	TIE	-999.0	3	n/a	n/a	pyFR	2	TJ069
490.704	0.798	1977343	REC_WORD_VV	27.572	n/a	<>	-999.0	3	n/a	n/a	pyFR	2	TJ069
491.502	6.115	1978939	REC_WORD	28.37	n/a	TOP	-999.0	3	n/a	n/a	pyFR	2	TJ069
497.617	6.346	1991169	REC_WORD_VV	34.485	n/a	<>	-999.0	3	n/a	n/a	pyFR	2	TJ069
503.963	0.663	2003860	REC_WORD_VV	40.831	n/a	<>	-999.0	3	n/a	n/a	pyFR	2	TJ069
504.626	8.832	2005186	REC_WORD	41.494	n/a	WAR	-999.0	3	n/a	n/a	pyFR	2	TJ069
513.458	0.016	2022850	TRIAL	n/a	n/a	n/a	-999.0	4	n/a	n/a	pyFR	2	TJ069
513.474	1.6	2022882	ORIENT	n/a	n/a	n/a	-999.0	4	n/a	n/a	pyFR	2	TJ069
516.143	1.6	2028220	WORD	n/a	wordpools/wordpool_EN.txt	CAGE	1.0	4	n/a	n/a	pyFR	2	TJ069
518.663	1.6	2033260	WORD	n/a	wordpools/wordpool_EN.txt	HAND	2.0	4	n/a	n/a	pyFR	2	TJ069
521.481	1.6	2038896	WORD	n/a	wordpools/wordpool_EN.txt	LAKE	3.0	4	n/a	n/a	pyFR	2	TJ069
524.2	1.6	2044334	WORD	n/a	wordpools/wordpool_EN.txt	BREAD	4.0	4	n/a	n/a	pyFR	2	TJ069
526.903	1.6	2049740	WORD	n/a	wordpools/wordpool_EN.txt	THUMB	5.0	4	n/a	n/a	pyFR	2	TJ069
529.537	1.6	2055008	WORD	n/a	wordpools/wordpool_EN.txt	SMILE	6.0	4	n/a	n/a	pyFR	2	TJ069
532.34	1.6	2060614	WORD	n/a	wordpools/wordpool_EN.txt	SNOW	7.0	4	n/a	n/a	pyFR	2	TJ069
534.893	1.6	2065720	WORD	n/a	wordpools/wordpool_EN.txt	CROW	8.0	4	n/a	n/a	pyFR	2	TJ069
537.444	1.6	2070821	WORD	n/a	wordpools/wordpool_EN.txt	BATH	9.0	4	n/a	n/a	pyFR	2	TJ069
539.946	1.6	2075825	WORD	n/a	wordpools/wordpool_EN.txt	SINK	10.0	4	n/a	n/a	pyFR	2	TJ069
542.683	1.6	2081299	WORD	n/a	wordpools/wordpool_EN.txt	HILL	11.0	4	n/a	n/a	pyFR	2	TJ069
545.417	1.6	2086767	WORD	n/a	wordpools/wordpool_EN.txt	SALT	12.0	4	n/a	n/a	pyFR	2	TJ069
547.986	1.6	2091905	WORD	n/a	wordpools/wordpool_EN.txt	GUARD	13.0	4	n/a	n/a	pyFR	2	TJ069
550.656	1.6	2097245	WORD	n/a	wordpools/wordpool_EN.txt	PEA	14.0	4	n/a	n/a	pyFR	2	TJ069
553.374	1.6	2102681	WORD	n/a	wordpools/wordpool_EN.txt	ROOM	15.0	4	n/a	n/a	pyFR	2	TJ069
554.977	0.934	2105887	START	n/a	n/a	n/a	n/a	4	[-999 -999 -999]	-999.0	pyFR	2	TJ069
555.911	8.724	2107755	PROB	8.688	n/a	n/a	n/a	4	[9 7 2]	18.0	pyFR	2	TJ069
564.635	3.785	2125203	PROB	3.755	n/a	n/a	n/a	4	[1 6 1]	8.0	pyFR	2	TJ069
568.42	5.356	2132773	PROB	5.331	n/a	n/a	n/a	4	[5 8 4]	17.0	pyFR	2	TJ069
573.776	4.43	2143485	PROB	4.43	n/a	n/a	n/a	4	[4 7 7]	18.0	pyFR	2	TJ069
578.206	1.224	2152344	STOP	n/a	n/a	n/a	n/a	4	[-999 -999 -999]	-999.0	pyFR	2	TJ069
579.43	3.807	2154792	REC_START	n/a	n/a	n/a	-999.0	4	n/a	n/a	pyFR	2	TJ069
583.237	0.976	2162406	REC_WORD	3.807	n/a	PEA	-999.0	4	n/a	n/a	pyFR	2	TJ069
584.213	5.172	2164358	REC_WORD	4.783	n/a	HAND	-999.0	4	n/a	n/a	pyFR	2	TJ069
589.385	5.211	2174702	REC_WORD	9.955	n/a	GUN	-999.0	4	n/a	n/a	pyFR	2	TJ069
594.596	0.517	2185124	REC_WORD_VV	15.166	n/a	<>	-999.0	4	n/a	n/a	pyFR	2	TJ069
595.113	5.786	2186158	REC_WORD	15.683	n/a	BIRD	-999.0	4	n/a	n/a	pyFR	2	TJ069
600.899	8.008	2197730	REC_WORD	21.469	n/a	GLOVE	-999.0	4	n/a	n/a	pyFR	2	TJ069
608.907	3.738	2213746	REC_WORD	29.477	n/a	GRAPE	-999.0	4	n/a	n/a	pyFR	2	TJ069
612.645	1.0	2221222	REC_WORD	33.215	n/a	STICK	-999.0	4	n/a	n/a	pyFR	2	TJ069
613.645	8.979	2223222	REC_WORD_VV	34.215	n/a	<>	-999.0	4	n/a	n/a	pyFR	2	TJ069
622.624	1.0	2241179	REC_WORD_VV	43.194	n/a	<>	-999.0	4	n/a	n/a	pyFR	2	TJ069
623.624	7.683	2243179	REC_WORD_VV	44.194	n/a	<>	-999.0	4	n/a	n/a	pyFR	2	TJ069
631.307	0.016	2258545	TRIAL	n/a	n/a	n/a	-999.0	5	n/a	n/a	pyFR	2	TJ069
631.323	1.6	2258577	ORIENT	n/a	n/a	n/a	-999.0	5	n/a	n/a	pyFR	2	TJ069
634.092	1.6	2264115	WORD	n/a	wordpools/wordpool_EN.txt	LOCK	1.0	5	n/a	n/a	pyFR	2	TJ069
636.879	1.6	2269689	WORD	n/a	wordpools/wordpool_EN.txt	MAP	2.0	5	n/a	n/a	pyFR	2	TJ069
639.581	1.6	2275093	WORD	n/a	wordpools/wordpool_EN.txt	SLUSH	3.0	5	n/a	n/a	pyFR	2	TJ069
642.349	1.6	2280629	WORD	n/a	wordpools/wordpool_EN.txt	BANK	4.0	5	n/a	n/a	pyFR	2	TJ069
645.118	1.6	2286167	WORD	n/a	wordpools/wordpool_EN.txt	MOLE	5.0	5	n/a	n/a	pyFR	2	TJ069
647.721	1.6	2291373	WORD	n/a	wordpools/wordpool_EN.txt	CAR	6.0	5	n/a	n/a	pyFR	2	TJ069
650.539	1.6	2297009	WORD	n/a	wordpools/wordpool_EN.txt	YARD	7.0	5	n/a	n/a	pyFR	2	TJ069
653.208	1.6	2302346	WORD	n/a	wordpools/wordpool_EN.txt	FOG	8.0	5	n/a	n/a	pyFR	2	TJ069
655.794	1.6	2307518	WORD	n/a	wordpools/wordpool_EN.txt	MAZE	9.0	5	n/a	n/a	pyFR	2	TJ069
658.562	1.6	2313054	WORD	n/a	wordpools/wordpool_EN.txt	ROOF	10.0	5	n/a	n/a	pyFR	2	TJ069
661.148	1.6	2318226	WORD	n/a	wordpools/wordpool_EN.txt	RAT	11.0	5	n/a	n/a	pyFR	2	TJ069
663.718	1.6	2323366	WORD	n/a	wordpools/wordpool_EN.txt	FORT	12.0	5	n/a	n/a	pyFR	2	TJ069
666.219	1.6	2328368	WORD	n/a	wordpools/wordpool_EN.txt	BADGE	13.0	5	n/a	n/a	pyFR	2	TJ069
668.872	1.6	2333674	WORD	n/a	wordpools/wordpool_EN.txt	SLIME	14.0	5	n/a	n/a	pyFR	2	TJ069
671.624	1.6	2339178	WORD	n/a	wordpools/wordpool_EN.txt	SHEEP	15.0	5	n/a	n/a	pyFR	2	TJ069
673.226	0.833	2342382	START	n/a	n/a	n/a	n/a	5	[-999 -999 -999]	-999.0	pyFR	2	TJ069
674.059	4.47	2344048	PROB	4.435	n/a	n/a	n/a	5	[2 3 3]	8.0	pyFR	2	TJ069
678.529	5.356	2352988	PROB	5.326	n/a	n/a	n/a	5	[3 2 6]	11.0	pyFR	2	TJ069
683.885	2.534	2363700	PROB	2.513	n/a	n/a	n/a	5	[9 9 5]	23.0	pyFR	2	TJ069
686.419	6.256	2368768	PROB	6.236	n/a	n/a	n/a	5	[9 5 9]	23.0	pyFR	2	TJ069
692.675	6.419	2381279	PROB	6.419	n/a	n/a	n/a	5	[5 8 9]	2.0	pyFR	2	TJ069
699.094	1.171	2394117	STOP	n/a	n/a	n/a	n/a	5	[-999 -999 -999]	-999.0	pyFR	2	TJ069
700.265	2.802	2396459	REC_START	n/a	n/a	n/a	-999.0	5	n/a	n/a	pyFR	2	TJ069
703.067	0.78	2402063	REC_WORD_VV	2.802	n/a	<>	-999.0	5	n/a	n/a	pyFR	2	TJ069
703.847	2.331	2403623	REC_WORD	3.582	n/a	MAZE	-999.0	5	n/a	n/a	pyFR	2	TJ069
706.178	3.458	2408285	REC_WORD	5.913	n/a	FORT	-999.0	5	n/a	n/a	pyFR	2	TJ069
709.636	19.457	2415201	REC_WORD	9.371	n/a	FOG	-999.0	5	n/a	n/a	pyFR	2	TJ069
729.093	13.632	2454114	REC_WORD	28.828	n/a	ROOF	-999.0	5	n/a	n/a	pyFR	2	TJ069
742.725	212.37	2481378	REC_WORD	42.46	n/a	ARMY	-999.0	5	n/a	n/a	pyFR	2	TJ069
955.095	0.016	2906113	TRIAL	n/a	n/a	n/a	-999.0	6	n/a	n/a	pyFR	2	TJ069
955.111	1.6	2906145	ORIENT	n/a	n/a	n/a	-999.0	6	n/a	n/a	pyFR	2	TJ069
958.03	1.6	2911983	WORD	n/a	wordpools/wordpool_EN.txt	JAR	1.0	6	n/a	n/a	pyFR	2	TJ069
960.8	1.6	2917522	WORD	n/a	wordpools/wordpool_EN.txt	CART	2.0	6	n/a	n/a	pyFR	2	TJ069
963.402	1.6	2922726	WORD	n/a	wordpools/wordpool_EN.txt	BALL	3.0	6	n/a	n/a	pyFR	2	TJ069
966.171	1.6	2928264	WORD	n/a	wordpools/wordpool_EN.txt	NOSE	4.0	6	n/a	n/a	pyFR	2	TJ069
968.741	1.6	2933404	WORD	n/a	wordpools/wordpool_EN.txt	SHEET	5.0	6	n/a	n/a	pyFR	2	TJ069
971.525	1.6	2938972	WORD	n/a	wordpools/wordpool_EN.txt	BOOK	6.0	6	n/a	n/a	pyFR	2	TJ069
974.161	1.6	2944244	WORD	n/a	wordpools/wordpool_EN.txt	BEAR	7.0	6	n/a	n/a	pyFR	2	TJ069
976.881	1.6	2949684	WORD	n/a	wordpools/wordpool_EN.txt	BED	8.0	6	n/a	n/a	pyFR	2	TJ069
979.482	1.6	2954886	WORD	n/a	wordpools/wordpool_EN.txt	JET	9.0	6	n/a	n/a	pyFR	2	TJ069
981.901	1.6	2959724	WORD	n/a	wordpools/wordpool_EN.txt	ROSE	10.0	6	n/a	n/a	pyFR	2	TJ069
984.654	1.6	2965230	WORD	n/a	wordpools/wordpool_EN.txt	BARN	11.0	6	n/a	n/a	pyFR	2	TJ069
987.122	1.6	2970166	WORD	n/a	wordpools/wordpool_EN.txt	RUG	12.0	6	n/a	n/a	pyFR	2	TJ069
989.725	1.6	2975372	WORD	n/a	wordpools/wordpool_EN.txt	EAR	13.0	6	n/a	n/a	pyFR	2	TJ069
992.509	1.6	2980940	WORD	n/a	wordpools/wordpool_EN.txt	ICE	14.0	6	n/a	n/a	pyFR	2	TJ069
995.078	1.6	2986078	WORD	n/a	wordpools/wordpool_EN.txt	CARD	15.0	6	n/a	n/a	pyFR	2	TJ069
996.682	1.183	2989286	START	n/a	n/a	n/a	n/a	6	[-999 -999 -999]	-999.0	pyFR	2	TJ069
997.865	4.469	2991651	PROB	4.445	n/a	n/a	n/a	6	[4 2 5]	12.0	pyFR	2	TJ069
1002.334	3.787	3000589	PROB	3.75	n/a	n/a	n/a	6	[7 5 2]	14.0	pyFR	2	TJ069
1006.121	2.469	3008163	PROB	2.446	n/a	n/a	n/a	6	[9 9 3]	21.0	pyFR	2	TJ069
1008.59	2.169	3013101	PROB	2.145	n/a	n/a	n/a	6	[3 3 2]	8.0	pyFR	2	TJ069
1010.759	3.019	3017439	PROB	2.992	n/a	n/a	n/a	6	[3 4 6]	13.0	pyFR	2	TJ069
1013.778	2.836	3023477	PROB	2.813	n/a	n/a	n/a	6	[9 7 7]	23.0	pyFR	2	TJ069
1016.614	2.897	3029149	PROB	2.897	n/a	n/a	n/a	6	[7 1 7]	15.0	pyFR	2	TJ069
1019.511	1.09	3034943	STOP	n/a	n/a	n/a	n/a	6	[-999 -999 -999]	-999.0	pyFR	2	TJ069
1020.601	1.016	3037123	REC_START	n/a	n/a	n/a	-999.0	6	n/a	n/a	pyFR	2	TJ069
1021.617	0.741	3039155	REC_WORD	1.016	n/a	ROSE	-999.0	6	n/a	n/a	pyFR	2	TJ069
1022.358	2.014	3040637	REC_WORD	1.757	n/a	URN	-999.0	6	n/a	n/a	pyFR	2	TJ069
1024.372	0.571	3044665	REC_WORD	3.771	n/a	ICE	-999.0	6	n/a	n/a	pyFR	2	TJ069
1024.943	1.396	3045807	REC_WORD	4.342	n/a	JET	-999.0	6	n/a	n/a	pyFR	2	TJ069
1026.339	1.315	3048599	REC_WORD	5.738	n/a	BARN	-999.0	6	n/a	n/a	pyFR	2	TJ069
1027.654	10.849	3051229	REC_WORD	7.053	n/a	BACK	-999.0	6	n/a	n/a	pyFR	2	TJ069
1038.503	12.959	3072926	REC_WORD	17.902	n/a	WHEEL	-999.0	6	n/a	n/a	pyFR	2	TJ069
1051.462	22.134	3098844	REC_WORD	30.861	n/a	SPRING	-999.0	6	n/a	n/a	pyFR	2	TJ069
1073.596	0.016	3143112	TRIAL	n/a	n/a	n/a	-999.0	7	n/a	n/a	pyFR	2	TJ069
1073.612	1.6	3143144	ORIENT	n/a	n/a	n/a	-999.0	7	n/a	n/a	pyFR	2	TJ069
1076.563	1.6	3149045	WORD	n/a	wordpools/wordpool_EN.txt	PLANT	1.0	7	n/a	n/a	pyFR	2	TJ069
1079.299	1.6	3154517	WORD	n/a	wordpools/wordpool_EN.txt	TANK	2.0	7	n/a	n/a	pyFR	2	TJ069
1082.001	1.6	3159921	WORD	n/a	wordpools/wordpool_EN.txt	BLOOM	3.0	7	n/a	n/a	pyFR	2	TJ069
1084.654	1.6	3165227	WORD	n/a	wordpools/wordpool_EN.txt	ANT	4.0	7	n/a	n/a	pyFR	2	TJ069
1087.155	1.6	3170229	WORD	n/a	wordpools/wordpool_EN.txt	LAWN	5.0	7	n/a	n/a	pyFR	2	TJ069
1089.608	1.6	3175135	WORD	n/a	wordpools/wordpool_EN.txt	DOLL	6.0	7	n/a	n/a	pyFR	2	TJ069
1092.343	1.6	3180605	WORD	n/a	wordpools/wordpool_EN.txt	PIE	7.0	7	n/a	n/a	pyFR	2	TJ069
1095.079	1.6	3186077	WORD	n/a	wordpools/wordpool_EN.txt	GRASS	8.0	7	n/a	n/a	pyFR	2	TJ069
1097.649	1.6	3191217	WORD	n/a	wordpools/wordpool_EN.txt	DAD	9.0	7	n/a	n/a	pyFR	2	TJ069
1100.267	1.6	3196453	WORD	n/a	wordpools/wordpool_EN.txt	FAN	10.0	7	n/a	n/a	pyFR	2	TJ069
1102.786	1.6	3201491	WORD	n/a	wordpools/wordpool_EN.txt	CHIEF	11.0	7	n/a	n/a	pyFR	2	TJ069
1105.454	1.6	3206827	WORD	n/a	wordpools/wordpool_EN.txt	ELF	12.0	7	n/a	n/a	pyFR	2	TJ069
1108.073	1.6	3212065	WORD	n/a	wordpools/wordpool_EN.txt	MAIL	13.0	7	n/a	n/a	pyFR	2	TJ069
1110.676	1.6	3217271	WORD	n/a	wordpools/wordpool_EN.txt	MOUSE	14.0	7	n/a	n/a	pyFR	2	TJ069
1113.411	1.6	3222740	WORD	n/a	wordpools/wordpool_EN.txt	HOOK	15.0	7	n/a	n/a	pyFR	2	TJ069
1115.014	0.982	3225946	START	n/a	n/a	n/a	n/a	7	[-999 -999 -999]	-999.0	pyFR	2	TJ069
1115.996	4.437	3227910	PROB	4.41	n/a	n/a	n/a	7	[6 5 6]	17.0	pyFR	2	TJ069
1120.433	5.655	3236784	PROB	5.621	n/a	n/a	n/a	7	[2 9 4]	15.0	pyFR	2	TJ069
1126.088	4.738	3248094	PROB	4.711	n/a	n/a	n/a	7	[5 5 3]	13.0	pyFR	2	TJ069
1130.826	5.829	3257570	PROB	5.829	n/a	n/a	n/a	7	[9 7 5]	21.0	pyFR	2	TJ069
1136.655	1.178	3269228	STOP	n/a	n/a	n/a	n/a	7	[-999 -999 -999]	-999.0	pyFR	2	TJ069
1137.833	1.367	3271584	REC_START	n/a	n/a	n/a	-999.0	7	n/a	n/a	pyFR	2	TJ069
1139.2	1.265	3274318	REC_WORD	1.367	n/a	DAD	-999.0	7	n/a	n/a	pyFR	2	TJ069
1140.465	1.102	3276848	REC_WORD	2.632	n/a	JET	-999.0	7	n/a	n/a	pyFR	2	TJ069
1141.567	2.399	3279052	REC_WORD	3.734	n/a	ELF	-999.0	7	n/a	n/a	pyFR	2	TJ069
1143.966	2.934	3283850	REC_WORD	6.133	n/a	MOUSE	-999.0	7	n/a	n/a	pyFR	2	TJ069
1146.9	4.107	3289718	REC_WORD	9.067	n/a	FAN	-999.0	7	n/a	n/a	pyFR	2	TJ069
1151.007	6.077	3297932	REC_WORD	13.174	n/a	MAZE	-999.0	7	n/a	n/a	pyFR	2	TJ069
1157.084	3.084	3310085	REC_WORD_VV	19.251	n/a	<>	-999.0	7	n/a	n/a	pyFR	2	TJ069
1160.168	9.485	3316253	REC_WORD	22.335	n/a	HOOK	-999.0	7	n/a	n/a	pyFR	2	TJ069
1169.653	1.0	3335223	REC_WORD	31.82	n/a	SHELF	-999.0	7	n/a	n/a	pyFR	2	TJ069
1170.653	41.025	3337223	REC_WORD_VV	32.82	n/a	<>	-999.0	7	n/a	n/a	pyFR	2	TJ069
1211.678	0.016	3419272	TRIAL	n/a	n/a	n/a	-999.0	8	n/a	n/a	pyFR	2	TJ069
1211.694	1.6	3419304	ORIENT	n/a	n/a	n/a	-999.0	8	n/a	n/a	pyFR	2	TJ069
1214.429	1.6	3424774	WORD	n/a	wordpools/wordpool_EN.txt	CHAIR	1.0	8	n/a	n/a	pyFR	2	TJ069
1217.098	1.6	3430112	WORD	n/a	wordpools/wordpool_EN.txt	CRANE	2.0	8	n/a	n/a	pyFR	2	TJ069
1219.734	1.6	3435384	WORD	n/a	wordpools/wordpool_EN.txt	TRUCK	3.0	8	n/a	n/a	pyFR	2	TJ069
1222.236	1.6	3440388	WORD	n/a	wordpools/wordpool_EN.txt	BUSH	4.0	8	n/a	n/a	pyFR	2	TJ069
1224.689	1.6	3445294	WORD	n/a	wordpools/wordpool_EN.txt	NET	5.0	8	n/a	n/a	pyFR	2	TJ069
1227.34	1.6	3450596	WORD	n/a	wordpools/wordpool_EN.txt	HOOF	6.0	8	n/a	n/a	pyFR	2	TJ069
1229.859	1.6	3455633	WORD	n/a	wordpools/wordpool_EN.txt	RAKE	7.0	8	n/a	n/a	pyFR	2	TJ069
1232.461	1.6	3460837	WORD	n/a	wordpools/wordpool_EN.txt	DOOR	8.0	8	n/a	n/a	pyFR	2	TJ069
1235.146	1.6	3466207	WORD	n/a	wordpools/wordpool_EN.txt	SPONGE	9.0	8	n/a	n/a	pyFR	2	TJ069
1237.616	1.6	3471147	WORD	n/a	wordpools/wordpool_EN.txt	COW	10.0	8	n/a	n/a	pyFR	2	TJ069
1240.334	1.6	3476583	WORD	n/a	wordpools/wordpool_EN.txt	QUEEN	11.0	8	n/a	n/a	pyFR	2	TJ069
1242.77	1.6	3481455	WORD	n/a	wordpools/wordpool_EN.txt	COIN	12.0	8	n/a	n/a	pyFR	2	TJ069
1245.305	1.6	3486525	WORD	n/a	wordpools/wordpool_EN.txt	TRAIN	13.0	8	n/a	n/a	pyFR	2	TJ069
1248.09	1.6	3492095	WORD	n/a	wordpools/wordpool_EN.txt	LEAF	14.0	8	n/a	n/a	pyFR	2	TJ069
1250.677	1.6	3497269	WORD	n/a	wordpools/wordpool_EN.txt	STEM	15.0	8	n/a	n/a	pyFR	2	TJ069
1252.295	0.883	3500505	START	n/a	n/a	n/a	n/a	8	[-999 -999 -999]	-999.0	pyFR	2	TJ069
1253.178	54.26	3502271	PROB	54.26	n/a	n/a	n/a	8	[3 6 9]	18.0	pyFR	2	TJ069
1307.438	1.188	3610789	STOP	n/a	n/a	n/a	n/a	8	[-999 -999 -999]	-999.0	pyFR	2	TJ069
1308.626	12.472	3613165	REC_START	n/a	n/a	n/a	-999.0	8	n/a	n/a	pyFR	2	TJ069
1321.098	2.061	3638109	REC_WORD_VV	12.472	n/a	<>	-999.0	8	n/a	n/a	pyFR	2	TJ069
1323.159	4.925	3642231	REC_WORD_VV	14.533	n/a	<>	-999.0	8	n/a	n/a	pyFR	2	TJ069
1328.084	186.598	3652081	REC_WORD_VV	19.458	n/a	<>	-999.0	8	n/a	n/a	pyFR	2	TJ069
1514.682	0.017	4025272	TRIAL	n/a	n/a	n/a	-999.0	9	n/a	n/a	pyFR	2	TJ069
1514.699	1.6	4025306	ORIENT	n/a	n/a	n/a	-999.0	9	n/a	n/a	pyFR	2	TJ069
1517.35	1.6	4030608	WORD	n/a	wordpools/wordpool_EN.txt	PIN	1.0	9	n/a	n/a	pyFR	2	TJ069
1520.102	1.6	4036112	WORD	n/a	wordpools/wordpool_EN.txt	STOVE	2.0	9	n/a	n/a	pyFR	2	TJ069
1522.855	1.6	4041618	WORD	n/a	wordpools/wordpool_EN.txt	CAPE	3.0	9	n/a	n/a	pyFR	2	TJ069
1525.658	1.6	4047224	WORD	n/a	wordpools/wordpool_EN.txt	CASH	4.0	9	n/a	n/a	pyFR	2	TJ069
1528.359	1.6	4052626	WORD	n/a	wordpools/wordpool_EN.txt	CALF	5.0	9	n/a	n/a	pyFR	2	TJ069
1530.978	1.6	4057864	WORD	n/a	wordpools/wordpool_EN.txt	WHEEL	6.0	9	n/a	n/a	pyFR	2	TJ069
1533.748	1.6	4063404	WORD	n/a	wordpools/wordpool_EN.txt	ZOO	7.0	9	n/a	n/a	pyFR	2	TJ069
1536.366	1.6	4068639	WORD	n/a	wordpools/wordpool_EN.txt	DOG	8.0	9	n/a	n/a	pyFR	2	TJ069
1538.886	1.6	4073679	WORD	n/a	wordpools/wordpool_EN.txt	SKY	9.0	9	n/a	n/a	pyFR	2	TJ069
1541.537	1.6	4078981	WORD	n/a	wordpools/wordpool_EN.txt	WING	10.0	9	n/a	n/a	pyFR	2	TJ069
1544.289	1.6	4084485	WORD	n/a	wordpools/wordpool_EN.txt	FLEA	11.0	9	n/a	n/a	pyFR	2	TJ069
1546.709	1.6	4089325	WORD	n/a	wordpools/wordpool_EN.txt	SPOON	12.0	9	n/a	n/a	pyFR	2	TJ069
1549.227	1.6	4094361	WORD	n/a	wordpools/wordpool_EN.txt	TAIL	13.0	9	n/a	n/a	pyFR	2	TJ069
1551.68	1.6	4099267	WORD	n/a	wordpools/wordpool_EN.txt	STAIR	14.0	9	n/a	n/a	pyFR	2	TJ069
1554.248	1.6	4104403	WORD	n/a	wordpools/wordpool_EN.txt	STRAW	15.0	9	n/a	n/a	pyFR	2	TJ069
1555.851	1.165	4107609	START	n/a	n/a	n/a	n/a	9	[-999 -999 -999]	-999.0	pyFR	2	TJ069
1557.016	7.791	4109939	PROB	7.767	n/a	n/a	n/a	9	[2 1 7]	10.0	pyFR	2	TJ069
1564.807	3.086	4125521	PROB	3.056	n/a	n/a	n/a	9	[8 2 6]	16.0	pyFR	2	TJ069
1567.893	4.203	4131693	PROB	4.177	n/a	n/a	n/a	9	[8 5 2]	15.0	pyFR	2	TJ069
1572.096	3.504	4140099	PROB	3.479	n/a	n/a	n/a	9	[9 7 7]	23.0	pyFR	2	TJ069
1575.6	5.183	4147106	PROB	5.183	n/a	n/a	n/a	9	[2 7 8]	17.0	pyFR	2	TJ069
1580.783	1.039	4157472	STOP	n/a	n/a	n/a	n/a	9	[-999 -999 -999]	-999.0	pyFR	2	TJ069
1581.822	1.569	4159550	REC_START	n/a	n/a	n/a	-999.0	9	n/a	n/a	pyFR	2	TJ069
1583.391	1.236	4162688	REC_WORD	1.569	n/a	DOG	-999.0	9	n/a	n/a	pyFR	2	TJ069
1584.627	1.717	4165160	REC_WORD	2.805	n/a	PIN	-999.0	9	n/a	n/a	pyFR	2	TJ069
1586.344	2.814	4168594	REC_WORD	4.522	n/a	SKY	-999.0	9	n/a	n/a	pyFR	2	TJ069
1589.158	1.0	4174222	REC_WORD	7.336	n/a	STAIR	-999.0	9	n/a	n/a	pyFR	2	TJ069
1590.158	1.143	4176222	REC_WORD_VV	8.336	n/a	<>	-999.0	9	n/a	n/a	pyFR	2	TJ069
1591.301	9.509	4178508	REC_WORD	9.479	n/a	STRAW	-999.0	9	n/a	n/a	pyFR	2	TJ069
1600.81	5.072	4197526	REC_WORD	18.988	n/a	CAR	-999.0	9	n/a	n/a	pyFR	2	TJ069
1605.882	7.337	4207670	REC_WORD	24.06	n/a	PIN	-999.0	9	n/a	n/a	pyFR	2	TJ069
1613.219	6.701	4222343	REC_WORD	31.397	n/a	ANCHOR	-999.0	9	n/a	n/a	pyFR	2	TJ069
1619.92	3.284	4235745	REC_WORD_VV	38.098	n/a	<>	-999.0	9	n/a	n/a	pyFR	2	TJ069
1623.204	1.635	4242313	REC_WORD	41.382	n/a	WING	-999.0	9	n/a	n/a	pyFR	2	TJ069
1624.839	0.453	4245583	REC_WORD_VV	43.017	n/a	<>	-999.0	9	n/a	n/a	pyFR	2	TJ069
1625.292	10.425	4246489	REC_WORD	43.47	n/a	WING	-999.0	9	n/a	n/a	pyFR	2	TJ069
1635.717	0.016	4267339	TRIAL	n/a	n/a	n/a	-999.0	10	n/a	n/a	pyFR	2	TJ069
1635.733	1.6	4267371	ORIENT	n/a	n/a	n/a	-999.0	10	n/a	n/a	pyFR	2	TJ069
1638.368	1.6	4272641	WORD	n/a	wordpools/wordpool_EN.txt	BOOT	1.0	10	n/a	n/a	pyFR	2	TJ069
1641.037	1.6	4277979	WORD	n/a	wordpools/wordpool_EN.txt	SWORD	2.0	10	n/a	n/a	pyFR	2	TJ069
1643.539	1.6	4282983	WORD	n/a	wordpools/wordpool_EN.txt	ARM	3.0	10	n/a	n/a	pyFR	2	TJ069
1646.141	1.6	4288187	WORD	n/a	wordpools/wordpool_EN.txt	GOLD	4.0	10	n/a	n/a	pyFR	2	TJ069
1648.628	1.6	4293161	WORD	n/a	wordpools/wordpool_EN.txt	BRIDGE	5.0	10	n/a	n/a	pyFR	2	TJ069
1651.245	1.6	4298394	WORD	n/a	wordpools/wordpool_EN.txt	STEAK	6.0	10	n/a	n/a	pyFR	2	TJ069
1653.948	1.6	4303800	WORD	n/a	wordpools/wordpool_EN.txt	FENCE	7.0	10	n/a	n/a	pyFR	2	TJ069
1656.4	1.6	4308704	WORD	n/a	wordpools/wordpool_EN.txt	TEETH	8.0	10	n/a	n/a	pyFR	2	TJ069
1658.903	1.6	4313710	WORD	n/a	wordpools/wordpool_EN.txt	HEN	9.0	10	n/a	n/a	pyFR	2	TJ069
1661.538	1.6	4318980	WORD	n/a	wordpools/wordpool_EN.txt	TAPE	10.0	10	n/a	n/a	pyFR	2	TJ069
1663.973	1.6	4323850	WORD	n/a	wordpools/wordpool_EN.txt	SEED	11.0	10	n/a	n/a	pyFR	2	TJ069
1666.709	1.6	4329322	WORD	n/a	wordpools/wordpool_EN.txt	LAND	12.0	10	n/a	n/a	pyFR	2	TJ069
1669.344	1.6	4334592	WORD	n/a	wordpools/wordpool_EN.txt	PRINCE	13.0	10	n/a	n/a	pyFR	2	TJ069
1672.013	1.6	4339930	WORD	n/a	wordpools/wordpool_EN.txt	WHALE	14.0	10	n/a	n/a	pyFR	2	TJ069
1674.783	1.6	4345470	WORD	n/a	wordpools/wordpool_EN.txt	CONE	15.0	10	n/a	n/a	pyFR	2	TJ069
1676.402	1.049	4348708	START	n/a	n/a	n/a	n/a	10	[-999 -999 -999]	-999.0	pyFR	2	TJ069
1677.451	8.907	4350806	PROB	8.875	n/a	n/a	n/a	10	[1 5 9]	15.0	pyFR	2	TJ069
1686.358	2.819	4368620	PROB	2.792	n/a	n/a	n/a	10	[1 2 8]	11.0	pyFR	2	TJ069
1689.177	6.339	4374257	PROB	6.317	n/a	n/a	n/a	10	[4 1 8]	13.0	pyFR	2	TJ069
1695.516	3.962	4386935	PROB	3.962	n/a	n/a	n/a	10	[2 9 2]	13.0	pyFR	2	TJ069
1699.478	1.244	4394859	STOP	n/a	n/a	n/a	n/a	10	[-999 -999 -999]	-999.0	pyFR	2	TJ069
1700.722	2.294	4397347	REC_START	n/a	n/a	n/a	-999.0	10	n/a	n/a	pyFR	2	TJ069
1703.016	1.948	4401935	REC_WORD	2.294	n/a	BOOT	-999.0	10	n/a	n/a	pyFR	2	TJ069
1704.964	6.748	4405831	REC_WORD	4.242	n/a	WHIP	-999.0	10	n/a	n/a	pyFR	2	TJ069
1711.712	9.838	4419327	REC_WORD	10.99	n/a	WITCH	-999.0	10	n/a	n/a	pyFR	2	TJ069
1721.55	2.044	4439003	REC_WORD	20.828	n/a	MAY	-999.0	10	n/a	n/a	pyFR	2	TJ069
1723.594	12.271	4443091	REC_WORD	22.872	n/a	HAVE	-999.0	10	n/a	n/a	pyFR	2	TJ069
1735.865	0.571	4467632	REC_WORD	35.143	n/a	GIVE	-999.0	10	n/a	n/a	pyFR	2	TJ069
1736.436	131.525	4468774	REC_WORD	35.714	n/a	HAVE	-999.0	10	n/a	n/a	pyFR	2	TJ069
1867.961	0.016	4731821	TRIAL	n/a	n/a	n/a	-999.0	11	n/a	n/a	pyFR	2	TJ069
1867.977	1.6	4731853	ORIENT	n/a	n/a	n/a	-999.0	11	n/a	n/a	pyFR	2	TJ069
1870.963	1.6	4737825	WORD	n/a	wordpools/wordpool_EN.txt	SKUNK	1.0	11	n/a	n/a	pyFR	2	TJ069
1873.767	1.6	4743433	WORD	n/a	wordpools/wordpool_EN.txt	ROOT	2.0	11	n/a	n/a	pyFR	2	TJ069
1876.535	1.6	4748969	WORD	n/a	wordpools/wordpool_EN.txt	CLOUD	3.0	11	n/a	n/a	pyFR	2	TJ069
1879.27	1.6	4754439	WORD	n/a	wordpools/wordpool_EN.txt	SEA	4.0	11	n/a	n/a	pyFR	2	TJ069
1881.756	1.6	4759410	WORD	n/a	wordpools/wordpool_EN.txt	BIRD	5.0	11	n/a	n/a	pyFR	2	TJ069
1884.308	1.6	4764514	WORD	n/a	wordpools/wordpool_EN.txt	BEE	6.0	11	n/a	n/a	pyFR	2	TJ069
1886.944	1.6	4769786	WORD	n/a	wordpools/wordpool_EN.txt	WOLF	7.0	11	n/a	n/a	pyFR	2	TJ069
1889.63	1.6	4775158	WORD	n/a	wordpools/wordpool_EN.txt	BOAT	8.0	11	n/a	n/a	pyFR	2	TJ069
1892.098	1.6	4780094	WORD	n/a	wordpools/wordpool_EN.txt	BOWL	9.0	11	n/a	n/a	pyFR	2	TJ069
1894.718	1.6	4785334	WORD	n/a	wordpools/wordpool_EN.txt	DART	10.0	11	n/a	n/a	pyFR	2	TJ069
1897.452	1.6	4790802	WORD	n/a	wordpools/wordpool_EN.txt	CLOWN	11.0	11	n/a	n/a	pyFR	2	TJ069
1900.004	1.6	4795906	WORD	n/a	wordpools/wordpool_EN.txt	FISH	12.0	11	n/a	n/a	pyFR	2	TJ069
1902.473	1.6	4800844	WORD	n/a	wordpools/wordpool_EN.txt	KITE	13.0	11	n/a	n/a	pyFR	2	TJ069
1904.992	1.6	4805882	WORD	n/a	wordpools/wordpool_EN.txt	OWL	14.0	11	n/a	n/a	pyFR	2	TJ069
1907.612	1.6	4811122	WORD	n/a	wordpools/wordpool_EN.txt	SQUARE	15.0	11	n/a	n/a	pyFR	2	TJ069
1909.23	0.883	4814358	START	n/a	n/a	n/a	n/a	11	[-999 -999 -999]	-999.0	pyFR	2	TJ069
1910.113	3.419	4816124	PROB	3.397	n/a	n/a	n/a	11	[5 2 2]	9.0	pyFR	2	TJ069
1913.532	5.672	4822962	PROB	5.643	n/a	n/a	n/a	11	[3 5 8]	13.0	pyFR	2	TJ069
1919.204	3.886	4834305	PROB	3.866	n/a	n/a	n/a	11	[2 5 8]	15.0	pyFR	2	TJ069
1923.09	13.469	4842077	PROB	13.469	n/a	n/a	n/a	11	[3 5 9]	17.0	pyFR	2	TJ069
1936.559	1.195	4869015	STOP	n/a	n/a	n/a	n/a	11	[-999 -999 -999]	-999.0	pyFR	2	TJ069
1937.754	2.494	4871405	REC_START	n/a	n/a	n/a	-999.0	11	n/a	n/a	pyFR	2	TJ069
1940.248	0.334	4876393	REC_WORD_VV	2.494	n/a	<>	-999.0	11	n/a	n/a	pyFR	2	TJ069
1940.582	1.0	4877061	REC_WORD	2.828	n/a	SQUARE	-999.0	11	n/a	n/a	pyFR	2	TJ069
1941.582	0.858	4879061	REC_WORD_VV	3.828	n/a	<>	-999.0	11	n/a	n/a	pyFR	2	TJ069
1942.44	2.245	4880777	REC_WORD	4.686	n/a	SEA	-999.0	11	n/a	n/a	pyFR	2	TJ069
1944.685	2.105	4885267	REC_WORD	6.931	n/a	BOAT	-999.0	11	n/a	n/a	pyFR	2	TJ069
1946.79	2.215	4889477	REC_WORD	9.036	n/a	BIRD	-999.0	11	n/a	n/a	pyFR	2	TJ069
1949.005	1.0	4893907	REC_WORD	11.251	n/a	SKUNK	-999.0	11	n/a	n/a	pyFR	2	TJ069
1950.005	9.011	4895907	REC_WORD_VV	12.251	n/a	<>	-999.0	11	n/a	n/a	pyFR	2	TJ069
1959.016	4.565	4913928	REC_WORD	21.262	n/a	BOA	-999.0	11	n/a	n/a	pyFR	2	TJ069
1963.581	11.964	4923058	REC_WORD	25.827	n/a	BEE	-999.0	11	n/a	n/a	pyFR	2	TJ069
1975.545	101.492	4946986	REC_WORD	37.791	n/a	HUNT	-999.0	11	n/a	n/a	pyFR	2	TJ069
2077.037	0.016	5149967	TRIAL	n/a	n/a	n/a	-999.0	12	n/a	n/a	pyFR	2	TJ069
2077.053	1.6	5149999	ORIENT	n/a	n/a	n/a	-999.0	12	n/a	n/a	pyFR	2	TJ069
2079.923	1.6	5155739	WORD	n/a	wordpools/wordpool_EN.txt	HORN	1.0	12	n/a	n/a	pyFR	2	TJ069
2082.742	1.6	5161377	WORD	n/a	wordpools/wordpool_EN.txt	HOSE	2.0	12	n/a	n/a	pyFR	2	TJ069
2085.276	1.6	5166445	WORD	n/a	wordpools/wordpool_EN.txt	KEY	3.0	12	n/a	n/a	pyFR	2	TJ069
2087.962	1.6	5171817	WORD	n/a	wordpools/wordpool_EN.txt	FILM	4.0	12	n/a	n/a	pyFR	2	TJ069
2090.481	1.6	5176855	WORD	n/a	wordpools/wordpool_EN.txt	HAWK	5.0	12	n/a	n/a	pyFR	2	TJ069
2092.9	1.6	5181693	WORD	n/a	wordpools/wordpool_EN.txt	EEL	6.0	12	n/a	n/a	pyFR	2	TJ069
2095.435	1.6	5186763	WORD	n/a	wordpools/wordpool_EN.txt	STREET	7.0	12	n/a	n/a	pyFR	2	TJ069
2097.938	1.6	5191769	WORD	n/a	wordpools/wordpool_EN.txt	TENT	8.0	12	n/a	n/a	pyFR	2	TJ069
2100.456	1.6	5196805	WORD	n/a	wordpools/wordpool_EN.txt	MAT	9.0	12	n/a	n/a	pyFR	2	TJ069
2103.058	1.6	5202009	WORD	n/a	wordpools/wordpool_EN.txt	DITCH	10.0	12	n/a	n/a	pyFR	2	TJ069
2105.594	1.6	5207081	WORD	n/a	wordpools/wordpool_EN.txt	BAG	11.0	12	n/a	n/a	pyFR	2	TJ069
2108.346	1.6	5212585	WORD	n/a	wordpools/wordpool_EN.txt	MUD	12.0	12	n/a	n/a	pyFR	2	TJ069
2110.998	1.6	5217888	WORD	n/a	wordpools/wordpool_EN.txt	VAN	13.0	12	n/a	n/a	pyFR	2	TJ069
2113.483	1.6	5222858	WORD	n/a	wordpools/wordpool_EN.txt	PARK	14.0	12	n/a	n/a	pyFR	2	TJ069
2115.969	1.6	5227830	WORD	n/a	wordpools/wordpool_EN.txt	AXE	15.0	12	n/a	n/a	pyFR	2	TJ069
2117.572	1.133	5231036	START	n/a	n/a	n/a	n/a	12	[-999 -999 -999]	-999.0	pyFR	2	TJ069
2118.705	3.937	5233302	PROB	3.902	n/a	n/a	n/a	12	[5 3 4]	15.0	pyFR	2	TJ069
2122.642	3.987	5241176	PROB	3.965	n/a	n/a	n/a	12	[7 3 6]	16.0	pyFR	2	TJ069
2126.629	2.935	5249150	PROB	2.913	n/a	n/a	n/a	12	[1 6 6]	13.0	pyFR	2	TJ069
2129.564	3.203	5255020	PROB	3.179	n/a	n/a	n/a	12	[5 4 9]	18.0	pyFR	2	TJ069
2132.767	3.019	5261426	PROB	2.992	n/a	n/a	n/a	12	[7 6 5]	18.0	pyFR	2	TJ069
2135.786	5.348	5267464	PROB	5.348	n/a	n/a	n/a	12	[7 2 3]	12.0	pyFR	2	TJ069
2141.134	1.191	5278160	STOP	n/a	n/a	n/a	n/a	12	[-999 -999 -999]	-999.0	pyFR	2	TJ069
2142.325	1.123	5280542	REC_START	n/a	n/a	n/a	-999.0	12	n/a	n/a	pyFR	2	TJ069
2143.448	1.156	5282788	REC_WORD	1.123	n/a	KEY	-999.0	12	n/a	n/a	pyFR	2	TJ069
2144.604	0.885	5285100	REC_WORD	2.279	n/a	HORN	-999.0	12	n/a	n/a	pyFR	2	TJ069
2145.489	14.312	5286870	REC_WORD	3.164	n/a	HOUSE	-999.0	12	n/a	n/a	pyFR	2	TJ069
2159.801	3.72	5315493	REC_WORD	17.476	n/a	EEL	-999.0	12	n/a	n/a	pyFR	2	TJ069
2163.521	4.109	5322933	REC_WORD	21.196	n/a	HAWK	-999.0	12	n/a	n/a	pyFR	2	TJ069
2167.63	9.908	5331151	REC_WORD	25.305	n/a	OWL	-999.0	12	n/a	n/a	pyFR	2	TJ069
2177.538	54.763	5350967	REC_WORD	35.213	n/a	HUNT	-999.0	12	n/a	n/a	pyFR	2	TJ069
2232.301	0.015	5460491	TRIAL	n/a	n/a	n/a	-999.0	13	n/a	n/a	pyFR	2	TJ069
2232.316	1.6	5460521	ORIENT	n/a	n/a	n/a	-999.0	13	n/a	n/a	pyFR	2	TJ069
2235.252	1.6	5466393	WORD	n/a	wordpools/wordpool_EN.txt	CLAY	1.0	13	n/a	n/a	pyFR	2	TJ069
2237.805	1.6	5471499	WORD	n/a	wordpools/wordpool_EN.txt	BROOM	2.0	13	n/a	n/a	pyFR	2	TJ069
2240.423	1.6	5476735	WORD	n/a	wordpools/wordpool_EN.txt	GOAT	3.0	13	n/a	n/a	pyFR	2	TJ069
2242.959	1.6	5481807	WORD	n/a	wordpools/wordpool_EN.txt	HORSE	4.0	13	n/a	n/a	pyFR	2	TJ069
2245.745	1.6	5487379	WORD	n/a	wordpools/wordpool_EN.txt	SNAIL	5.0	13	n/a	n/a	pyFR	2	TJ069
2248.196	1.6	5492281	WORD	n/a	wordpools/wordpool_EN.txt	BRICK	6.0	13	n/a	n/a	pyFR	2	TJ069
2250.783	1.6	5497455	WORD	n/a	wordpools/wordpool_EN.txt	GIRL	7.0	13	n/a	n/a	pyFR	2	TJ069
2253.468	1.6	5502825	WORD	n/a	wordpools/wordpool_EN.txt	HOLE	8.0	13	n/a	n/a	pyFR	2	TJ069
2255.97	1.6	5507829	WORD	n/a	wordpools/wordpool_EN.txt	OAK	9.0	13	n/a	n/a	pyFR	2	TJ069
2258.69	1.6	5513269	WORD	n/a	wordpools/wordpool_EN.txt	EGG	10.0	13	n/a	n/a	pyFR	2	TJ069
2261.241	1.6	5518371	WORD	n/a	wordpools/wordpool_EN.txt	SMOKE	11.0	13	n/a	n/a	pyFR	2	TJ069
2264.043	1.6	5523975	WORD	n/a	wordpools/wordpool_EN.txt	PEACH	12.0	13	n/a	n/a	pyFR	2	TJ069
2266.613	1.6	5529114	WORD	n/a	wordpools/wordpool_EN.txt	COAT	13.0	13	n/a	n/a	pyFR	2	TJ069
2269.281	1.6	5534450	WORD	n/a	wordpools/wordpool_EN.txt	STONE	14.0	13	n/a	n/a	pyFR	2	TJ069
2271.717	1.6	5539322	WORD	n/a	wordpools/wordpool_EN.txt	NAIL	15.0	13	n/a	n/a	pyFR	2	TJ069
2273.336	0.982	5542560	START	n/a	n/a	n/a	n/a	13	[-999 -999 -999]	-999.0	pyFR	2	TJ069
2274.318	8.157	5544524	PROB	8.136	n/a	n/a	n/a	13	[5 9 2]	18.0	pyFR	2	TJ069
2282.475	6.34	5560838	PROB	6.316	n/a	n/a	n/a	13	[5 5 4]	14.0	pyFR	2	TJ069
2288.815	4.776	5573518	PROB	4.776	n/a	n/a	n/a	13	[1 9 6]	16.0	pyFR	2	TJ069
2293.591	1.213	5583070	STOP	n/a	n/a	n/a	n/a	13	[-999 -999 -999]	-999.0	pyFR	2	TJ069
2294.804	2.513	5585496	REC_START	n/a	n/a	n/a	-999.0	13	n/a	n/a	pyFR	2	TJ069
2297.317	0.902	5590522	REC_WORD_VV	2.513	n/a	<>	-999.0	13	n/a	n/a	pyFR	2	TJ069
2298.219	3.456	5592326	REC_WORD	3.415	n/a	GIRL	-999.0	13	n/a	n/a	pyFR	2	TJ069
2301.675	1.944	5599238	REC_WORD	6.871	n/a	HOLE	-999.0	13	n/a	n/a	pyFR	2	TJ069
2303.619	2.753	5603125	REC_WORD	8.815	n/a	HORSE	-999.0	13	n/a	n/a	pyFR	2	TJ069
2306.372	20.907	5608631	REC_WORD	11.568	n/a	HORN	-999.0	13	n/a	n/a	pyFR	2	TJ069
2327.279	72.379	5650445	REC_WORD	32.475	n/a	OWL	-999.0	13	n/a	n/a	pyFR	2	TJ069
2399.658	0.016	5795201	TRIAL	n/a	n/a	n/a	-999.0	14	n/a	n/a	pyFR	2	TJ069
2399.674	1.6	5795233	ORIENT	n/a	n/a	n/a	-999.0	14	n/a	n/a	pyFR	2	TJ069
2402.559	1.6	5801003	WORD	n/a	wordpools/wordpool_EN.txt	TEA	1.0	14	n/a	n/a	pyFR	2	TJ069
2405.145	1.6	5806175	WORD	n/a	wordpools/wordpool_EN.txt	JAIL	2.0	14	n/a	n/a	pyFR	2	TJ069
2407.698	1.6	5811281	WORD	n/a	wordpools/wordpool_EN.txt	CANE	3.0	14	n/a	n/a	pyFR	2	TJ069
2410.416	1.6	5816717	WORD	n/a	wordpools/wordpool_EN.txt	PURSE	4.0	14	n/a	n/a	pyFR	2	TJ069
2412.852	1.6	5821589	WORD	n/a	wordpools/wordpool_EN.txt	BENCH	5.0	14	n/a	n/a	pyFR	2	TJ069
2415.52	1.6	5826925	WORD	n/a	wordpools/wordpool_EN.txt	FOX	6.0	14	n/a	n/a	pyFR	2	TJ069
2418.239	1.6	5832362	WORD	n/a	wordpools/wordpool_EN.txt	CUBE	7.0	14	n/a	n/a	pyFR	2	TJ069
2420.942	1.6	5837768	WORD	n/a	wordpools/wordpool_EN.txt	PLANE	8.0	14	n/a	n/a	pyFR	2	TJ069
2423.745	1.6	5843374	WORD	n/a	wordpools/wordpool_EN.txt	JUDGE	9.0	14	n/a	n/a	pyFR	2	TJ069
2426.563	1.6	5849010	WORD	n/a	wordpools/wordpool_EN.txt	SKI	10.0	14	n/a	n/a	pyFR	2	TJ069
2429.282	1.6	5854448	WORD	n/a	wordpools/wordpool_EN.txt	ARK	11.0	14	n/a	n/a	pyFR	2	TJ069
2431.918	1.6	5859720	WORD	n/a	wordpools/wordpool_EN.txt	GATE	12.0	14	n/a	n/a	pyFR	2	TJ069
2434.721	1.6	5865326	WORD	n/a	wordpools/wordpool_EN.txt	HEART	13.0	14	n/a	n/a	pyFR	2	TJ069
2437.539	1.6	5870962	WORD	n/a	wordpools/wordpool_EN.txt	TOOL	14.0	14	n/a	n/a	pyFR	2	TJ069
2440.308	1.6	5876500	WORD	n/a	wordpools/wordpool_EN.txt	LAMB	15.0	14	n/a	n/a	pyFR	2	TJ069
2441.911	1.099	5879706	START	n/a	n/a	n/a	n/a	14	[-999 -999 -999]	-999.0	pyFR	2	TJ069
2443.01	4.52	5881904	PROB	4.484	n/a	n/a	n/a	14	[9 5 7]	19.0	pyFR	2	TJ069
2447.53	6.123	5890944	PROB	6.093	n/a	n/a	n/a	14	[2 1 9]	12.0	pyFR	2	TJ069
2453.653	3.669	5903190	PROB	3.633	n/a	n/a	n/a	14	[9 3 6]	18.0	pyFR	2	TJ069
2457.322	5.028	5910527	PROB	5.028	n/a	n/a	n/a	14	[7 5 4]	16.0	pyFR	2	TJ069
2462.35	1.194	5920583	STOP	n/a	n/a	n/a	n/a	14	[-999 -999 -999]	-999.0	pyFR	2	TJ069
2463.544	2.275	5922971	REC_START	n/a	n/a	n/a	-999.0	14	n/a	n/a	pyFR	2	TJ069
2465.819	3.397	5927521	REC_WORD	2.275	n/a	JAIL	-999.0	14	n/a	n/a	pyFR	2	TJ069
2469.216	8.12	5934315	REC_WORD	5.672	n/a	JUDGE	-999.0	14	n/a	n/a	pyFR	2	TJ069
2477.336	13.743	5950555	REC_WORD_VV	13.792	n/a	<>	-999.0	14	n/a	n/a	pyFR	2	TJ069
2491.079	2.971	5978041	REC_WORD	27.535	n/a	QUARTS	-999.0	14	n/a	n/a	pyFR	2	TJ069
2494.05	0.612	5983983	REC_WORD	30.506	n/a	JAIL	-999.0	14	n/a	n/a	pyFR	2	TJ069
2494.662	6.352	5985206	REC_WORD	31.118	n/a	JUDGE	-999.0	14	n/a	n/a	pyFR	2	TJ069
2501.014	12.422	5997910	REC_WORD	37.47	n/a	FLY	-999.0	14	n/a	n/a	pyFR	2	TJ069
2513.436	0.016	6022754	TRIAL	n/a	n/a	n/a	-999.0	15	n/a	n/a	pyFR	2	TJ069
2513.452	1.6	6022786	ORIENT	n/a	n/a	n/a	-999.0	15	n/a	n/a	pyFR	2	TJ069
2516.422	1.6	6028726	WORD	n/a	wordpools/wordpool_EN.txt	SPEAR	1.0	15	n/a	n/a	pyFR	2	TJ069
2518.858	1.6	6033598	WORD	n/a	wordpools/wordpool_EN.txt	CLOTH	2.0	15	n/a	n/a	pyFR	2	TJ069
2521.309	1.6	6038500	WORD	n/a	wordpools/wordpool_EN.txt	MILK	3.0	15	n/a	n/a	pyFR	2	TJ069
2523.762	1.6	6043406	WORD	n/a	wordpools/wordpool_EN.txt	SHARK	4.0	15	n/a	n/a	pyFR	2	TJ069
2526.547	1.6	6048976	WORD	n/a	wordpools/wordpool_EN.txt	WAVE	5.0	15	n/a	n/a	pyFR	2	TJ069
2529.182	1.6	6054246	WORD	n/a	wordpools/wordpool_EN.txt	PEAR	6.0	15	n/a	n/a	pyFR	2	TJ069
2531.785	1.6	6059452	WORD	n/a	wordpools/wordpool_EN.txt	CORN	7.0	15	n/a	n/a	pyFR	2	TJ069
2534.287	1.6	6064455	WORD	n/a	wordpools/wordpool_EN.txt	RICE	8.0	15	n/a	n/a	pyFR	2	TJ069
2536.955	1.6	6069791	WORD	n/a	wordpools/wordpool_EN.txt	CAVE	9.0	15	n/a	n/a	pyFR	2	TJ069
2539.692	1.6	6075265	WORD	n/a	wordpools/wordpool_EN.txt	PEN	10.0	15	n/a	n/a	pyFR	2	TJ069
2542.126	1.6	6080133	WORD	n/a	wordpools/wordpool_EN.txt	SWAMP	11.0	15	n/a	n/a	pyFR	2	TJ069
2544.63	1.6	6085141	WORD	n/a	wordpools/wordpool_EN.txt	STEAM	12.0	15	n/a	n/a	pyFR	2	TJ069
2547.331	1.6	6090543	WORD	n/a	wordpools/wordpool_EN.txt	POOL	13.0	15	n/a	n/a	pyFR	2	TJ069
2549.95	1.6	6095781	WORD	n/a	wordpools/wordpool_EN.txt	FLAG	14.0	15	n/a	n/a	pyFR	2	TJ069
2552.418	1.6	6100717	WORD	n/a	wordpools/wordpool_EN.txt	STORE	15.0	15	n/a	n/a	pyFR	2	TJ069
2554.021	1.2	6103923	START	n/a	n/a	n/a	n/a	15	[-999 -999 -999]	-999.0	pyFR	2	TJ069
2555.221	5.037	6106323	PROB	5.009	n/a	n/a	n/a	15	[3 9 3]	15.0	pyFR	2	TJ069
2560.258	6.105	6116397	PROB	6.076	n/a	n/a	n/a	15	[1 8 7]	16.0	pyFR	2	TJ069
2566.363	3.97	6128607	PROB	3.939	n/a	n/a	n/a	15	[6 1 9]	16.0	pyFR	2	TJ069
2570.333	4.426	6136547	PROB	4.426	n/a	n/a	n/a	15	[1 4 7]	12.0	pyFR	2	TJ069
2574.759	1.164	6145398	STOP	n/a	n/a	n/a	n/a	15	[-999 -999 -999]	-999.0	pyFR	2	TJ069
2575.923	1.102	6147726	REC_START	n/a	n/a	n/a	-999.0	15	n/a	n/a	pyFR	2	TJ069
2577.025	1.503	6149930	REC_WORD	1.102	n/a	STORE	-999.0	15	n/a	n/a	pyFR	2	TJ069
2578.528	1.294	6152936	REC_WORD	2.605	n/a	PIN	-999.0	15	n/a	n/a	pyFR	2	TJ069
2579.822	1.918	6155524	REC_WORD	3.899	n/a	FLAG	-999.0	15	n/a	n/a	pyFR	2	TJ069
2581.74	3.745	6159360	REC_WORD	5.817	n/a	BOOK	-999.0	15	n/a	n/a	pyFR	2	TJ069
2585.485	4.247	6166850	REC_WORD	9.562	n/a	WORK	-999.0	15	n/a	n/a	pyFR	2	TJ069
2589.732	1.0	6175344	REC_WORD	13.809	n/a	FIND	-999.0	15	n/a	n/a	pyFR	2	TJ069
2590.732	6.109	6177344	REC_WORD_VV	14.809	n/a	<>	-999.0	15	n/a	n/a	pyFR	2	TJ069
2596.841	7.107	6189562	REC_WORD	20.918	n/a	ART	-999.0	15	n/a	n/a	pyFR	2	TJ069
2603.948	4.688	6203776	REC_WORD_VV	28.025	n/a	<>	-999.0	15	n/a	n/a	pyFR	2	TJ069
2608.636	1.0	6213152	REC_WORD	32.713	n/a	FILM	-999.0	15	n/a	n/a	pyFR	2	TJ069
2609.636	8.885	6215151	REC_WORD_VV	33.713	n/a	<>	-999.0	15	n/a	n/a	pyFR	2	TJ069
2618.521	1.761	6232921	REC_WORD	42.598	n/a	BOOK	-999.0	15	n/a	n/a	pyFR	2	TJ069
2620.282	8.319	6236443	REC_WORD_VV	44.359	n/a	<>	-999.0	15	n/a	n/a	pyFR	2	TJ069
2628.601	0.016	6253081	TRIAL	n/a	n/a	n/a	-999.0	16	n/a	n/a	pyFR	2	TJ069
2628.617	1.6	6253113	ORIENT	n/a	n/a	n/a	-999.0	16	n/a	n/a	pyFR	2	TJ069
2631.351	1.6	6258581	WORD	n/a	wordpools/wordpool_EN.txt	TOE	1.0	16	n/a	n/a	pyFR	2	TJ069
2633.954	1.6	6263787	WORD	n/a	wordpools/wordpool_EN.txt	DRESS	2.0	16	n/a	n/a	pyFR	2	TJ069
2636.472	1.6	6268823	WORD	n/a	wordpools/wordpool_EN.txt	ROPE	3.0	16	n/a	n/a	pyFR	2	TJ069
2638.991	1.6	6273861	WORD	n/a	wordpools/wordpool_EN.txt	TOAD	4.0	16	n/a	n/a	pyFR	2	TJ069
2641.493	1.6	6278865	WORD	n/a	wordpools/wordpool_EN.txt	WORLD	5.0	16	n/a	n/a	pyFR	2	TJ069
2644.029	1.6	6283937	WORD	n/a	wordpools/wordpool_EN.txt	DIME	6.0	16	n/a	n/a	pyFR	2	TJ069
2646.547	1.6	6288973	WORD	n/a	wordpools/wordpool_EN.txt	CORD	7.0	16	n/a	n/a	pyFR	2	TJ069
2649.166	1.6	6294210	WORD	n/a	wordpools/wordpool_EN.txt	VINE	8.0	16	n/a	n/a	pyFR	2	TJ069
2651.886	1.6	6299650	WORD	n/a	wordpools/wordpool_EN.txt	SLEEVE	9.0	16	n/a	n/a	pyFR	2	TJ069
2654.504	1.6	6304886	WORD	n/a	wordpools/wordpool_EN.txt	BEAK	10.0	16	n/a	n/a	pyFR	2	TJ069
2657.156	1.6	6310190	WORD	n/a	wordpools/wordpool_EN.txt	MULE	11.0	16	n/a	n/a	pyFR	2	TJ069
2659.91	1.6	6315698	WORD	n/a	wordpools/wordpool_EN.txt	PIT	12.0	16	n/a	n/a	pyFR	2	TJ069
2662.695	1.6	6321268	WORD	n/a	wordpools/wordpool_EN.txt	KING	13.0	16	n/a	n/a	pyFR	2	TJ069
2665.163	1.6	6326204	WORD	n/a	wordpools/wordpool_EN.txt	BAND	14.0	16	n/a	n/a	pyFR	2	TJ069
2667.965	1.6	6331808	WORD	n/a	wordpools/wordpool_EN.txt	RIB	15.0	16	n/a	n/a	pyFR	2	TJ069
2669.569	0.915	6335016	START	n/a	n/a	n/a	n/a	16	[-999 -999 -999]	-999.0	pyFR	2	TJ069
2670.484	4.221	6336846	PROB	4.187	n/a	n/a	n/a	16	[4 8 9]	21.0	pyFR	2	TJ069
2674.705	2.169	6345288	PROB	2.142	n/a	n/a	n/a	16	[3 3 6]	12.0	pyFR	2	TJ069
2676.874	1.617	6349626	PROB	1.596	n/a	n/a	n/a	16	[3 4 5]	12.0	pyFR	2	TJ069
2678.491	3.37	6352860	PROB	3.34	n/a	n/a	n/a	16	[1 7 9]	17.0	pyFR	2	TJ069
2681.861	2.652	6359600	PROB	2.625	n/a	n/a	n/a	16	[8 4 3]	15.0	pyFR	2	TJ069
2684.513	2.835	6364904	PROB	2.805	n/a	n/a	n/a	16	[2 2 6]	10.0	pyFR	2	TJ069
2687.348	2.219	6370573	PROB	2.219	n/a	n/a	n/a	16	[1 2 1]	4.0	pyFR	2	TJ069
2689.567	1.186	6375011	STOP	n/a	n/a	n/a	n/a	16	[-999 -999 -999]	-999.0	pyFR	2	TJ069
2690.753	4.05	6377383	REC_START	n/a	n/a	n/a	-999.0	16	n/a	n/a	pyFR	2	TJ069
2694.803	4.526	6385483	REC_WORD	4.05	n/a	TOAD	-999.0	16	n/a	n/a	pyFR	2	TJ069
2699.329	2.001	6394535	REC_WORD	8.576	n/a	DRESS	-999.0	16	n/a	n/a	pyFR	2	TJ069
2701.33	14.472	6398537	REC_WORD	10.577	n/a	STOOL	-999.0	16	n/a	n/a	pyFR	2	TJ069
2715.802	10.654	6427481	REC_WORD	25.049	n/a	HARDY	-999.0	16	n/a	n/a	pyFR	2	TJ069
2726.456	6.97	6448788	REC_WORD	35.703	n/a	PARTNER	-999.0	16	n/a	n/a	pyFR	2	TJ069
2733.426	618.547	6462728	REC_WORD	42.673	n/a	DANCE	-999.0	16	n/a	n/a	pyFR	2	TJ069
3351.973	0.084	7699806	SESS_END	n/a	n/a	n/a	-999.0	16	n/a	n/a	pyFR	2	TJ069
3352.057	0.0	7699974	E	n/a	n/a	n/a	-999.0	16	n/a	n/a	pyFR	2	TJ069
