onset	duration	sample	trial_type	response_time	stim_file	item_name	serialpos	list	test	answer	experiment	session	subject
0.0	0.0	432676	B	n/a	n/a	n/a	-999	-999	n/a	n/a	pyFR	0	TJ037
0.0	67.76	432676	SESS_START	n/a	n/a	n/a	-999	-999	n/a	n/a	pyFR	0	TJ037
67.76	0.037	n/a	START	n/a	n/a	n/a	n/a	0	[-999 -999 -999]	-999	pyFR	0	TJ037
67.797	6.66	n/a	PROB	n/a	n/a	n/a	n/a	0	[3 8 3]	14	pyFR	0	TJ037
74.457	4.539	n/a	PROB	n/a	n/a	n/a	n/a	0	[8 4 8]	20	pyFR	0	TJ037
78.996	4.307	n/a	PROB	n/a	n/a	n/a	n/a	0	[5 2 8]	15	pyFR	0	TJ037
83.303	4.406	n/a	PROB	n/a	n/a	n/a	n/a	0	[4 6 1]	11	pyFR	0	TJ037
87.709	3.605	n/a	PROB	n/a	n/a	n/a	n/a	0	[9 9 7]	25	pyFR	0	TJ037
91.314	3.505	n/a	PROB	n/a	n/a	n/a	n/a	0	[9 6 6]	21	pyFR	0	TJ037
94.819	3.095	n/a	PROB	n/a	n/a	n/a	n/a	0	[9 1 2]	12	pyFR	0	TJ037
97.914	38.715	n/a	STOP	n/a	n/a	n/a	n/a	0	[-999 -999 -999]	-999	pyFR	0	TJ037
136.629	0.016	569305	TRIAL	n/a	n/a	n/a	-999	1	n/a	n/a	pyFR	0	TJ037
136.645	2.654	569321	ORIENT	n/a	n/a	n/a	-999	1	n/a	n/a	pyFR	0	TJ037
139.299	2.669	571975	WORD	n/a	wordpools/wordpool_EN.txt	FUR	1	1	n/a	n/a	pyFR	0	TJ037
141.968	2.755	574644	WORD	n/a	wordpools/wordpool_EN.txt	FLEA	2	1	n/a	n/a	pyFR	0	TJ037
144.723	2.687	577399	WORD	n/a	wordpools/wordpool_EN.txt	BOOK	3	1	n/a	n/a	pyFR	0	TJ037
147.41	2.487	580086	WORD	n/a	wordpools/wordpool_EN.txt	FILM	4	1	n/a	n/a	pyFR	0	TJ037
149.897	2.553	582573	WORD	n/a	wordpools/wordpool_EN.txt	PURSE	5	1	n/a	n/a	pyFR	0	TJ037
152.45	2.82	585126	WORD	n/a	wordpools/wordpool_EN.txt	COAT	6	1	n/a	n/a	pyFR	0	TJ037
155.27	2.655	587946	WORD	n/a	wordpools/wordpool_EN.txt	TANK	7	1	n/a	n/a	pyFR	0	TJ037
157.925	2.72	590601	WORD	n/a	wordpools/wordpool_EN.txt	SHELL	8	1	n/a	n/a	pyFR	0	TJ037
160.645	2.453	593320	WORD	n/a	wordpools/wordpool_EN.txt	BEAN	9	1	n/a	n/a	pyFR	0	TJ037
163.098	2.638	595773	WORD	n/a	wordpools/wordpool_EN.txt	CALF	10	1	n/a	n/a	pyFR	0	TJ037
165.736	2.754	598411	WORD	n/a	wordpools/wordpool_EN.txt	FLAG	11	1	n/a	n/a	pyFR	0	TJ037
168.49	2.703	601165	WORD	n/a	wordpools/wordpool_EN.txt	HILL	12	1	n/a	n/a	pyFR	0	TJ037
171.193	2.704	603868	WORD	n/a	wordpools/wordpool_EN.txt	SHIP	13	1	n/a	n/a	pyFR	0	TJ037
173.897	2.521	606572	WORD	n/a	wordpools/wordpool_EN.txt	SEAT	14	1	n/a	n/a	pyFR	0	TJ037
176.418	1.619	609093	WORD	n/a	wordpools/wordpool_EN.txt	THUMB	15	1	n/a	n/a	pyFR	0	TJ037
178.037	0.834	n/a	START	n/a	n/a	n/a	n/a	1	[-999 -999 -999]	-999	pyFR	0	TJ037
178.871	5.073	n/a	PROB	n/a	n/a	n/a	n/a	1	[2 7 8]	27	pyFR	0	TJ037
183.944	2.571	n/a	PROB	n/a	n/a	n/a	n/a	1	[1 1 1]	3	pyFR	0	TJ037
186.515	7.677	n/a	PROB	n/a	n/a	n/a	n/a	1	[5 1 7]	13	pyFR	0	TJ037
194.192	8.199	n/a	PROB	n/a	n/a	n/a	n/a	1	[5 9 8]	22	pyFR	0	TJ037
202.391	1.099	n/a	STOP	n/a	n/a	n/a	n/a	1	[-999 -999 -999]	-999	pyFR	0	TJ037
203.49	5.756	636165	REC_START	n/a	n/a	n/a	-999	1	n/a	n/a	pyFR	0	TJ037
209.246	1.0	641921	REC_WORD_VV	1.0	n/a	VV	-999	1	n/a	n/a	pyFR	0	TJ037
210.246	1.0	642921	REC_WORD_VV	1.0	n/a	VV	-999	1	n/a	n/a	pyFR	0	TJ037
211.246	1.0	643921	REC_WORD_VV	1.0	n/a	VV	-999	1	n/a	n/a	pyFR	0	TJ037
212.246	11.922	644921	REC_WORD_VV	11.922	n/a	VV	-999	1	n/a	n/a	pyFR	0	TJ037
224.168	1.0	656843	REC_WORD_VV	1.0	n/a	VV	-999	1	n/a	n/a	pyFR	0	TJ037
225.168	1.0	657843	REC_WORD_VV	1.0	n/a	VV	-999	1	n/a	n/a	pyFR	0	TJ037
226.168	1.0	658843	REC_WORD_VV	1.0	n/a	VV	-999	1	n/a	n/a	pyFR	0	TJ037
227.168	1.0	659843	REC_WORD_VV	1.0	n/a	VV	-999	1	n/a	n/a	pyFR	0	TJ037
228.168	1.0	660843	REC_WORD_VV	1.0	n/a	VV	-999	1	n/a	n/a	pyFR	0	TJ037
229.168	1.0	661843	REC_WORD_VV	1.0	n/a	VV	-999	1	n/a	n/a	pyFR	0	TJ037
230.168	0.827	662843	REC_WORD_VV	0.827	n/a	VV	-999	1	n/a	n/a	pyFR	0	TJ037
230.995	2.467	663670	REC_WORD	2.467	n/a	THUMB	-999	1	n/a	n/a	pyFR	0	TJ037
233.462	0.566	666137	REC_WORD	0.566	n/a	SHIP	-999	1	n/a	n/a	pyFR	0	TJ037
234.028	1.0	666703	REC_WORD	1.0	n/a	FLAG	-999	1	n/a	n/a	pyFR	0	TJ037
235.028	7.216	667703	REC_WORD_VV	7.216	n/a	VV	-999	1	n/a	n/a	pyFR	0	TJ037
242.244	1.0	674919	REC_WORD_VV	1.0	n/a	VV	-999	1	n/a	n/a	pyFR	0	TJ037
243.244	1.0	675919	REC_WORD_VV	1.0	n/a	VV	-999	1	n/a	n/a	pyFR	0	TJ037
244.244	3.746	676919	REC_WORD_VV	3.746	n/a	VV	-999	1	n/a	n/a	pyFR	0	TJ037
247.99	9.293	680665	REC_WORD_VV	9.293	n/a	VV	-999	1	n/a	n/a	pyFR	0	TJ037
257.283	0.016	689958	TRIAL	n/a	n/a	n/a	-999	2	n/a	n/a	pyFR	0	TJ037
257.299	3.021	689974	ORIENT	n/a	n/a	n/a	-999	2	n/a	n/a	pyFR	0	TJ037
260.32	2.636	692995	WORD	n/a	wordpools/wordpool_EN.txt	DRESS	1	2	n/a	n/a	pyFR	0	TJ037
262.956	2.705	695631	WORD	n/a	wordpools/wordpool_EN.txt	PEAR	2	2	n/a	n/a	pyFR	0	TJ037
265.661	2.452	698336	WORD	n/a	wordpools/wordpool_EN.txt	DITCH	3	2	n/a	n/a	pyFR	0	TJ037
268.113	2.538	700788	WORD	n/a	wordpools/wordpool_EN.txt	SUN	4	2	n/a	n/a	pyFR	0	TJ037
270.651	2.586	703326	WORD	n/a	wordpools/wordpool_EN.txt	MOOSE	5	2	n/a	n/a	pyFR	0	TJ037
273.237	2.555	705912	WORD	n/a	wordpools/wordpool_EN.txt	HOOK	6	2	n/a	n/a	pyFR	0	TJ037
275.792	2.52	708467	WORD	n/a	wordpools/wordpool_EN.txt	FROG	7	2	n/a	n/a	pyFR	0	TJ037
278.312	2.803	710987	WORD	n/a	wordpools/wordpool_EN.txt	ARK	8	2	n/a	n/a	pyFR	0	TJ037
281.115	2.688	713790	WORD	n/a	wordpools/wordpool_EN.txt	CLOWN	9	2	n/a	n/a	pyFR	0	TJ037
283.803	2.721	716478	WORD	n/a	wordpools/wordpool_EN.txt	LAMP	10	2	n/a	n/a	pyFR	0	TJ037
286.524	2.77	719199	WORD	n/a	wordpools/wordpool_EN.txt	WEB	11	2	n/a	n/a	pyFR	0	TJ037
289.294	2.82	721969	WORD	n/a	wordpools/wordpool_EN.txt	THREAD	12	2	n/a	n/a	pyFR	0	TJ037
292.114	2.504	724789	WORD	n/a	wordpools/wordpool_EN.txt	STORE	13	2	n/a	n/a	pyFR	0	TJ037
294.618	2.62	727293	WORD	n/a	wordpools/wordpool_EN.txt	BROOM	14	2	n/a	n/a	pyFR	0	TJ037
297.238	1.621	729913	WORD	n/a	wordpools/wordpool_EN.txt	SPRING	15	2	n/a	n/a	pyFR	0	TJ037
298.859	1.199	n/a	START	n/a	n/a	n/a	n/a	2	[-999 -999 -999]	-999	pyFR	0	TJ037
300.058	4.241	n/a	PROB	n/a	n/a	n/a	n/a	2	[4 2 2]	8	pyFR	0	TJ037
304.299	4.122	n/a	PROB	n/a	n/a	n/a	n/a	2	[1 5 7]	13	pyFR	0	TJ037
308.421	4.223	n/a	PROB	n/a	n/a	n/a	n/a	2	[4 9 7]	20	pyFR	0	TJ037
312.644	3.655	n/a	PROB	n/a	n/a	n/a	n/a	2	[9 5 1]	15	pyFR	0	TJ037
316.299	4.112	n/a	PROB	n/a	n/a	n/a	n/a	2	[4 3 2]	9	pyFR	0	TJ037
320.411	1.079	n/a	STOP	n/a	n/a	n/a	n/a	2	[-999 -999 -999]	-999	pyFR	0	TJ037
321.49	3.145	754164	REC_START	n/a	n/a	n/a	-999	2	n/a	n/a	pyFR	0	TJ037
324.635	0.789	757309	REC_WORD	0.789	n/a	FLAG	-999	2	n/a	n/a	pyFR	0	TJ037
325.424	0.67	758098	REC_WORD	0.67	n/a	SHIP	-999	2	n/a	n/a	pyFR	0	TJ037
326.094	1.0	758768	REC_WORD	1.0	n/a	WEB	-999	2	n/a	n/a	pyFR	0	TJ037
327.094	1.132	759768	REC_WORD_VV	1.132	n/a	VV	-999	2	n/a	n/a	pyFR	0	TJ037
328.226	1.822	760900	REC_WORD	1.822	n/a	THREAD	-999	2	n/a	n/a	pyFR	0	TJ037
330.048	5.429	762722	REC_WORD_VV	5.429	n/a	VV	-999	2	n/a	n/a	pyFR	0	TJ037
335.477	0.671	768151	REC_WORD	0.671	n/a	THRONE	-999	2	n/a	n/a	pyFR	0	TJ037
336.148	2.787	768822	REC_WORD	2.787	n/a	BOAT	-999	2	n/a	n/a	pyFR	0	TJ037
338.935	1.689	771609	REC_WORD_VV	1.689	n/a	VV	-999	2	n/a	n/a	pyFR	0	TJ037
340.624	1.0	773298	REC_WORD_VV	1.0	n/a	VV	-999	2	n/a	n/a	pyFR	0	TJ037
341.624	1.0	774298	REC_WORD_VV	1.0	n/a	VV	-999	2	n/a	n/a	pyFR	0	TJ037
342.624	1.0	775298	REC_WORD_VV	1.0	n/a	VV	-999	2	n/a	n/a	pyFR	0	TJ037
343.624	1.0	776298	REC_WORD_VV	1.0	n/a	VV	-999	2	n/a	n/a	pyFR	0	TJ037
344.624	1.0	777298	REC_WORD_VV	1.0	n/a	VV	-999	2	n/a	n/a	pyFR	0	TJ037
345.624	1.0	778298	REC_WORD_VV	1.0	n/a	VV	-999	2	n/a	n/a	pyFR	0	TJ037
346.624	1.0	779298	REC_WORD_VV	1.0	n/a	VV	-999	2	n/a	n/a	pyFR	0	TJ037
347.624	1.0	780298	REC_WORD_VV	1.0	n/a	VV	-999	2	n/a	n/a	pyFR	0	TJ037
348.624	9.408	781298	REC_WORD_VV	9.408	n/a	VV	-999	2	n/a	n/a	pyFR	0	TJ037
358.032	1.0	790706	REC_WORD_VV	1.0	n/a	VV	-999	2	n/a	n/a	pyFR	0	TJ037
359.032	1.0	791706	REC_WORD_VV	1.0	n/a	VV	-999	2	n/a	n/a	pyFR	0	TJ037
360.032	1.0	792706	REC_WORD_VV	1.0	n/a	VV	-999	2	n/a	n/a	pyFR	0	TJ037
361.032	1.0	793706	REC_WORD_VV	1.0	n/a	VV	-999	2	n/a	n/a	pyFR	0	TJ037
362.032	6.342	794706	REC_WORD_VV	6.342	n/a	VV	-999	2	n/a	n/a	pyFR	0	TJ037
368.374	0.015	801048	TRIAL	n/a	n/a	n/a	-999	3	n/a	n/a	pyFR	0	TJ037
368.389	2.971	801063	ORIENT	n/a	n/a	n/a	-999	3	n/a	n/a	pyFR	0	TJ037
371.36	2.52	804034	WORD	n/a	wordpools/wordpool_EN.txt	SEA	1	3	n/a	n/a	pyFR	0	TJ037
373.88	2.604	806554	WORD	n/a	wordpools/wordpool_EN.txt	SOCK	2	3	n/a	n/a	pyFR	0	TJ037
376.484	2.586	809158	WORD	n/a	wordpools/wordpool_EN.txt	FRUIT	3	3	n/a	n/a	pyFR	0	TJ037
379.07	2.638	811744	WORD	n/a	wordpools/wordpool_EN.txt	CROW	4	3	n/a	n/a	pyFR	0	TJ037
381.708	2.654	814382	WORD	n/a	wordpools/wordpool_EN.txt	WHALE	5	3	n/a	n/a	pyFR	0	TJ037
384.362	2.47	817036	WORD	n/a	wordpools/wordpool_EN.txt	WALL	6	3	n/a	n/a	pyFR	0	TJ037
386.832	2.671	819506	WORD	n/a	wordpools/wordpool_EN.txt	SAIL	7	3	n/a	n/a	pyFR	0	TJ037
389.503	2.469	822177	WORD	n/a	wordpools/wordpool_EN.txt	MAT	8	3	n/a	n/a	pyFR	0	TJ037
391.972	2.771	824646	WORD	n/a	wordpools/wordpool_EN.txt	WING	9	3	n/a	n/a	pyFR	0	TJ037
394.743	2.554	827417	WORD	n/a	wordpools/wordpool_EN.txt	PEN	10	3	n/a	n/a	pyFR	0	TJ037
397.297	2.77	829971	WORD	n/a	wordpools/wordpool_EN.txt	DESK	11	3	n/a	n/a	pyFR	0	TJ037
400.067	2.805	832741	WORD	n/a	wordpools/wordpool_EN.txt	POLE	12	3	n/a	n/a	pyFR	0	TJ037
402.872	2.787	835546	WORD	n/a	wordpools/wordpool_EN.txt	CONE	13	3	n/a	n/a	pyFR	0	TJ037
405.659	2.486	838333	WORD	n/a	wordpools/wordpool_EN.txt	BOWL	14	3	n/a	n/a	pyFR	0	TJ037
408.145	1.621	840819	WORD	n/a	wordpools/wordpool_EN.txt	GUARD	15	3	n/a	n/a	pyFR	0	TJ037
409.766	1.15	n/a	START	n/a	n/a	n/a	n/a	3	[-999 -999 -999]	-999	pyFR	0	TJ037
410.916	4.272	n/a	PROB	n/a	n/a	n/a	n/a	3	[6 4 9]	19	pyFR	0	TJ037
415.188	3.071	n/a	PROB	n/a	n/a	n/a	n/a	3	[1 2 1]	4	pyFR	0	TJ037
418.259	3.439	n/a	PROB	n/a	n/a	n/a	n/a	3	[3 4 2]	9	pyFR	0	TJ037
421.698	3.989	n/a	PROB	n/a	n/a	n/a	n/a	3	[5 6 8]	19	pyFR	0	TJ037
425.687	3.287	n/a	PROB	n/a	n/a	n/a	n/a	3	[1 1 2]	4	pyFR	0	TJ037
428.974	3.905	n/a	PROB	n/a	n/a	n/a	n/a	3	[6 8 7]	21	pyFR	0	TJ037
432.879	1.12	n/a	STOP	n/a	n/a	n/a	n/a	3	[-999 -999 -999]	-999	pyFR	0	TJ037
433.999	1.874	866673	REC_START	n/a	n/a	n/a	-999	3	n/a	n/a	pyFR	0	TJ037
435.873	0.287	868547	REC_WORD	0.287	n/a	BOAT	-999	3	n/a	n/a	pyFR	0	TJ037
436.16	1.721	868834	REC_WORD	1.721	n/a	SHIP	-999	3	n/a	n/a	pyFR	0	TJ037
437.881	1.328	870555	REC_WORD_VV	1.328	n/a	VV	-999	3	n/a	n/a	pyFR	0	TJ037
439.209	1.354	871883	REC_WORD	1.354	n/a	THRONE	-999	3	n/a	n/a	pyFR	0	TJ037
440.563	5.687	873237	REC_WORD	5.687	n/a	WHALE	-999	3	n/a	n/a	pyFR	0	TJ037
446.25	0.626	878924	REC_WORD_VV	0.626	n/a	VV	-999	3	n/a	n/a	pyFR	0	TJ037
446.876	0.581	879550	REC_WORD	0.581	n/a	WEIGHT	-999	3	n/a	n/a	pyFR	0	TJ037
447.457	3.57	880131	REC_WORD	3.57	n/a	WATCH	-999	3	n/a	n/a	pyFR	0	TJ037
451.027	14.898	883701	REC_WORD_VV	14.898	n/a	VV	-999	3	n/a	n/a	pyFR	0	TJ037
465.925	6.645	898599	REC_WORD_VV	6.645	n/a	VV	-999	3	n/a	n/a	pyFR	0	TJ037
472.57	0.575	905244	REC_WORD	0.575	n/a	SHIP	-999	3	n/a	n/a	pyFR	0	TJ037
473.145	0.464	905819	REC_WORD	0.464	n/a	BOAT	-999	3	n/a	n/a	pyFR	0	TJ037
473.609	1.0	906283	REC_WORD	1.0	n/a	PLUS	-999	3	n/a	n/a	pyFR	0	TJ037
474.609	1.0	907283	REC_WORD_VV	1.0	n/a	VV	-999	3	n/a	n/a	pyFR	0	TJ037
475.609	5.64	908283	REC_WORD_VV	5.64	n/a	VV	-999	3	n/a	n/a	pyFR	0	TJ037
481.249	0.016	913922	TRIAL	n/a	n/a	n/a	-999	4	n/a	n/a	pyFR	0	TJ037
481.265	2.655	913938	ORIENT	n/a	n/a	n/a	-999	4	n/a	n/a	pyFR	0	TJ037
483.92	2.637	916593	WORD	n/a	wordpools/wordpool_EN.txt	SLUSH	1	4	n/a	n/a	pyFR	0	TJ037
486.557	2.686	919230	WORD	n/a	wordpools/wordpool_EN.txt	CAR	2	4	n/a	n/a	pyFR	0	TJ037
489.243	2.655	921916	WORD	n/a	wordpools/wordpool_EN.txt	LAND	3	4	n/a	n/a	pyFR	0	TJ037
491.898	2.637	924571	WORD	n/a	wordpools/wordpool_EN.txt	TRASH	4	4	n/a	n/a	pyFR	0	TJ037
494.535	2.552	927208	WORD	n/a	wordpools/wordpool_EN.txt	JEEP	5	4	n/a	n/a	pyFR	0	TJ037
497.087	2.438	929760	WORD	n/a	wordpools/wordpool_EN.txt	NEST	6	4	n/a	n/a	pyFR	0	TJ037
499.525	2.653	932198	WORD	n/a	wordpools/wordpool_EN.txt	ROAD	7	4	n/a	n/a	pyFR	0	TJ037
502.178	2.654	934851	WORD	n/a	wordpools/wordpool_EN.txt	PLANE	8	4	n/a	n/a	pyFR	0	TJ037
504.832	2.537	937505	WORD	n/a	wordpools/wordpool_EN.txt	CAPE	9	4	n/a	n/a	pyFR	0	TJ037
507.369	2.737	940042	WORD	n/a	wordpools/wordpool_EN.txt	SHEET	10	4	n/a	n/a	pyFR	0	TJ037
510.106	2.454	942779	WORD	n/a	wordpools/wordpool_EN.txt	RAIN	11	4	n/a	n/a	pyFR	0	TJ037
512.56	2.519	945233	WORD	n/a	wordpools/wordpool_EN.txt	ANT	12	4	n/a	n/a	pyFR	0	TJ037
515.079	2.672	947752	WORD	n/a	wordpools/wordpool_EN.txt	SLEEVE	13	4	n/a	n/a	pyFR	0	TJ037
517.751	2.553	950424	WORD	n/a	wordpools/wordpool_EN.txt	BOX	14	4	n/a	n/a	pyFR	0	TJ037
520.304	1.604	952977	WORD	n/a	wordpools/wordpool_EN.txt	CARD	15	4	n/a	n/a	pyFR	0	TJ037
521.908	0.983	n/a	START	n/a	n/a	n/a	n/a	4	[-999 -999 -999]	-999	pyFR	0	TJ037
522.891	3.973	n/a	PROB	n/a	n/a	n/a	n/a	4	[3 3 5]	11	pyFR	0	TJ037
526.864	3.638	n/a	PROB	n/a	n/a	n/a	n/a	4	[1 7 5]	13	pyFR	0	TJ037
530.502	5.825	n/a	PROB	n/a	n/a	n/a	n/a	4	[4 4 8]	16	pyFR	0	TJ037
536.327	4.54	n/a	PROB	n/a	n/a	n/a	n/a	4	[5 2 9]	16	pyFR	0	TJ037
540.867	4.112	n/a	PROB	n/a	n/a	n/a	n/a	4	[8 6 3]	17	pyFR	0	TJ037
544.979	1.061	n/a	STOP	n/a	n/a	n/a	n/a	4	[-999 -999 -999]	-999	pyFR	0	TJ037
546.04	2.533	978713	REC_START	n/a	n/a	n/a	-999	4	n/a	n/a	pyFR	0	TJ037
548.573	0.642	981246	REC_WORD_VV	0.642	n/a	VV	-999	4	n/a	n/a	pyFR	0	TJ037
549.215	0.429	981888	REC_WORD	0.429	n/a	CAR	-999	4	n/a	n/a	pyFR	0	TJ037
549.644	0.997	982317	REC_WORD	0.997	n/a	SHORE	-999	4	n/a	n/a	pyFR	0	TJ037
550.641	2.269	983314	REC_WORD	2.269	n/a	SEA	-999	4	n/a	n/a	pyFR	0	TJ037
552.91	3.631	985583	REC_WORD_VV	3.631	n/a	VV	-999	4	n/a	n/a	pyFR	0	TJ037
556.541	7.252	989214	REC_WORD_VV	7.252	n/a	VV	-999	4	n/a	n/a	pyFR	0	TJ037
563.793	0.993	996466	REC_WORD	0.993	n/a	BAIT	-999	4	n/a	n/a	pyFR	0	TJ037
564.786	28.089	997459	REC_WORD	28.089	n/a	SHOP	-999	4	n/a	n/a	pyFR	0	TJ037
592.875	0.015	1025548	TRIAL	n/a	n/a	n/a	-999	5	n/a	n/a	pyFR	0	TJ037
592.89	2.788	1025563	ORIENT	n/a	n/a	n/a	-999	5	n/a	n/a	pyFR	0	TJ037
595.678	2.519	1028351	WORD	n/a	wordpools/wordpool_EN.txt	PEACH	1	5	n/a	n/a	pyFR	0	TJ037
598.197	2.571	1030870	WORD	n/a	wordpools/wordpool_EN.txt	BALL	2	5	n/a	n/a	pyFR	0	TJ037
600.768	2.787	1033441	WORD	n/a	wordpools/wordpool_EN.txt	ARM	3	5	n/a	n/a	pyFR	0	TJ037
603.555	2.738	1036228	WORD	n/a	wordpools/wordpool_EN.txt	WHEEL	4	5	n/a	n/a	pyFR	0	TJ037
606.293	2.753	1038966	WORD	n/a	wordpools/wordpool_EN.txt	SWORD	5	5	n/a	n/a	pyFR	0	TJ037
609.046	2.454	1041719	WORD	n/a	wordpools/wordpool_EN.txt	FACE	6	5	n/a	n/a	pyFR	0	TJ037
611.5	2.753	1044173	WORD	n/a	wordpools/wordpool_EN.txt	DEER	7	5	n/a	n/a	pyFR	0	TJ037
614.253	2.538	1046926	WORD	n/a	wordpools/wordpool_EN.txt	CANE	8	5	n/a	n/a	pyFR	0	TJ037
616.791	2.67	1049464	WORD	n/a	wordpools/wordpool_EN.txt	LOCK	9	5	n/a	n/a	pyFR	0	TJ037
619.461	2.586	1052134	WORD	n/a	wordpools/wordpool_EN.txt	BOAT	10	5	n/a	n/a	pyFR	0	TJ037
622.047	2.488	1054720	WORD	n/a	wordpools/wordpool_EN.txt	SMOKE	11	5	n/a	n/a	pyFR	0	TJ037
624.535	2.586	1057208	WORD	n/a	wordpools/wordpool_EN.txt	CORN	12	5	n/a	n/a	pyFR	0	TJ037
627.121	2.572	1059794	WORD	n/a	wordpools/wordpool_EN.txt	SWAMP	13	5	n/a	n/a	pyFR	0	TJ037
629.693	2.469	1062366	WORD	n/a	wordpools/wordpool_EN.txt	CASH	14	5	n/a	n/a	pyFR	0	TJ037
632.162	1.605	1064835	WORD	n/a	wordpools/wordpool_EN.txt	BEE	15	5	n/a	n/a	pyFR	0	TJ037
633.767	1.083	n/a	START	n/a	n/a	n/a	n/a	5	[-999 -999 -999]	-999	pyFR	0	TJ037
634.85	4.49	n/a	PROB	n/a	n/a	n/a	n/a	5	[9 7 7]	23	pyFR	0	TJ037
639.34	4.573	n/a	PROB	n/a	n/a	n/a	n/a	5	[8 1 8]	17	pyFR	0	TJ037
643.913	3.989	n/a	PROB	n/a	n/a	n/a	n/a	5	[6 7 6]	19	pyFR	0	TJ037
647.902	3.186	n/a	PROB	n/a	n/a	n/a	n/a	5	[2 4 3]	9	pyFR	0	TJ037
651.088	3.887	n/a	PROB	n/a	n/a	n/a	n/a	5	[7 3 6]	16	pyFR	0	TJ037
654.975	1.155	n/a	STOP	n/a	n/a	n/a	n/a	5	[-999 -999 -999]	-999	pyFR	0	TJ037
656.13	2.015	1088802	REC_START	n/a	n/a	n/a	-999	5	n/a	n/a	pyFR	0	TJ037
658.145	0.685	1090817	REC_WORD	0.685	n/a	CORN	-999	5	n/a	n/a	pyFR	0	TJ037
658.83	0.608	1091502	REC_WORD	0.608	n/a	FISH	-999	5	n/a	n/a	pyFR	0	TJ037
659.438	1.0	1092110	REC_WORD	1.0	n/a	JEEP	-999	5	n/a	n/a	pyFR	0	TJ037
660.438	1.0	1093110	REC_WORD_VV	1.0	n/a	VV	-999	5	n/a	n/a	pyFR	0	TJ037
661.438	2.373	1094110	REC_WORD_VV	2.373	n/a	VV	-999	5	n/a	n/a	pyFR	0	TJ037
663.811	1.5	1096483	REC_WORD	1.5	n/a	SHALLOW	-999	5	n/a	n/a	pyFR	0	TJ037
665.311	7.417	1097983	REC_WORD_VV	7.417	n/a	VV	-999	5	n/a	n/a	pyFR	0	TJ037
672.728	2.334	1105400	REC_WORD_VV	2.334	n/a	VV	-999	5	n/a	n/a	pyFR	0	TJ037
675.062	3.703	1107734	REC_WORD_VV	3.703	n/a	VV	-999	5	n/a	n/a	pyFR	0	TJ037
678.765	1.0	1111437	REC_WORD_VV	1.0	n/a	VV	-999	5	n/a	n/a	pyFR	0	TJ037
679.765	23.332	1112437	REC_WORD_VV	23.332	n/a	VV	-999	5	n/a	n/a	pyFR	0	TJ037
703.097	0.015	1135769	TRIAL	n/a	n/a	n/a	-999	6	n/a	n/a	pyFR	0	TJ037
703.112	2.954	1135784	ORIENT	n/a	n/a	n/a	-999	6	n/a	n/a	pyFR	0	TJ037
706.066	2.472	1138738	WORD	n/a	wordpools/wordpool_EN.txt	MILK	1	6	n/a	n/a	pyFR	0	TJ037
708.538	2.519	1141210	WORD	n/a	wordpools/wordpool_EN.txt	PASTE	2	6	n/a	n/a	pyFR	0	TJ037
711.057	2.471	1143729	WORD	n/a	wordpools/wordpool_EN.txt	DOLL	3	6	n/a	n/a	pyFR	0	TJ037
713.528	2.754	1146200	WORD	n/a	wordpools/wordpool_EN.txt	CROWN	4	6	n/a	n/a	pyFR	0	TJ037
716.282	2.686	1148954	WORD	n/a	wordpools/wordpool_EN.txt	ELF	5	6	n/a	n/a	pyFR	0	TJ037
718.968	2.655	1151640	WORD	n/a	wordpools/wordpool_EN.txt	FOX	6	6	n/a	n/a	pyFR	0	TJ037
721.623	2.619	1154295	WORD	n/a	wordpools/wordpool_EN.txt	TOOTH	7	6	n/a	n/a	pyFR	0	TJ037
724.242	2.505	1156914	WORD	n/a	wordpools/wordpool_EN.txt	LAWN	8	6	n/a	n/a	pyFR	0	TJ037
726.747	2.587	1159419	WORD	n/a	wordpools/wordpool_EN.txt	KITE	9	6	n/a	n/a	pyFR	0	TJ037
729.334	2.587	1162006	WORD	n/a	wordpools/wordpool_EN.txt	SUIT	10	6	n/a	n/a	pyFR	0	TJ037
731.921	2.503	1164593	WORD	n/a	wordpools/wordpool_EN.txt	BRANCH	11	6	n/a	n/a	pyFR	0	TJ037
734.424	2.504	1167096	WORD	n/a	wordpools/wordpool_EN.txt	TOY	12	6	n/a	n/a	pyFR	0	TJ037
736.928	2.503	1169600	WORD	n/a	wordpools/wordpool_EN.txt	BAT	13	6	n/a	n/a	pyFR	0	TJ037
739.431	2.519	1172103	WORD	n/a	wordpools/wordpool_EN.txt	WAVE	14	6	n/a	n/a	pyFR	0	TJ037
741.95	1.622	1174622	WORD	n/a	wordpools/wordpool_EN.txt	SOUP	15	6	n/a	n/a	pyFR	0	TJ037
743.572	0.933	n/a	START	n/a	n/a	n/a	n/a	6	[-999 -999 -999]	-999	pyFR	0	TJ037
744.505	3.822	n/a	PROB	n/a	n/a	n/a	n/a	6	[7 2 7]	16	pyFR	0	TJ037
748.327	3.288	n/a	PROB	n/a	n/a	n/a	n/a	6	[8 5 2]	15	pyFR	0	TJ037
751.615	4.824	n/a	PROB	n/a	n/a	n/a	n/a	6	[9 6 6]	21	pyFR	0	TJ037
756.439	5.607	n/a	PROB	n/a	n/a	n/a	n/a	6	[4 7 5]	16	pyFR	0	TJ037
762.046	5.125	n/a	PROB	n/a	n/a	n/a	n/a	6	[8 4 5]	17	pyFR	0	TJ037
767.171	1.152	n/a	STOP	n/a	n/a	n/a	n/a	6	[-999 -999 -999]	-999	pyFR	0	TJ037
768.323	0.865	1200995	REC_START	n/a	n/a	n/a	-999	6	n/a	n/a	pyFR	0	TJ037
769.188	0.48	1201860	REC_WORD	0.48	n/a	MILK	-999	6	n/a	n/a	pyFR	0	TJ037
769.668	0.458	1202340	REC_WORD	0.458	n/a	PASTE	-999	6	n/a	n/a	pyFR	0	TJ037
770.126	0.523	1202798	REC_WORD	0.523	n/a	DOG	-999	6	n/a	n/a	pyFR	0	TJ037
770.649	0.83	1203321	REC_WORD	0.83	n/a	CROWN	-999	6	n/a	n/a	pyFR	0	TJ037
771.479	0.634	1204151	REC_WORD	0.634	n/a	DOVE	-999	6	n/a	n/a	pyFR	0	TJ037
772.113	2.295	1204785	REC_WORD	2.295	n/a	WHITE	-999	6	n/a	n/a	pyFR	0	TJ037
774.408	1.0	1207080	REC_WORD_VV	1.0	n/a	VV	-999	6	n/a	n/a	pyFR	0	TJ037
775.408	4.348	1208080	REC_WORD_VV	4.348	n/a	VV	-999	6	n/a	n/a	pyFR	0	TJ037
779.756	1.0	1212428	REC_WORD_VV	1.0	n/a	VV	-999	6	n/a	n/a	pyFR	0	TJ037
780.756	11.037	1213428	REC_WORD_VV	11.037	n/a	VV	-999	6	n/a	n/a	pyFR	0	TJ037
791.793	22.996	1224465	REC_WORD_VV	22.996	n/a	VV	-999	6	n/a	n/a	pyFR	0	TJ037
814.789	0.016	1247460	TRIAL	n/a	n/a	n/a	-999	7	n/a	n/a	pyFR	0	TJ037
814.805	2.653	1247476	ORIENT	n/a	n/a	n/a	-999	7	n/a	n/a	pyFR	0	TJ037
817.458	2.803	1250129	WORD	n/a	wordpools/wordpool_EN.txt	BLOOM	1	7	n/a	n/a	pyFR	0	TJ037
820.261	2.671	1252932	WORD	n/a	wordpools/wordpool_EN.txt	STAR	2	7	n/a	n/a	pyFR	0	TJ037
822.932	2.705	1255603	WORD	n/a	wordpools/wordpool_EN.txt	SNAIL	3	7	n/a	n/a	pyFR	0	TJ037
825.637	2.703	1258308	WORD	n/a	wordpools/wordpool_EN.txt	COUCH	4	7	n/a	n/a	pyFR	0	TJ037
828.34	2.62	1261011	WORD	n/a	wordpools/wordpool_EN.txt	MOLE	5	7	n/a	n/a	pyFR	0	TJ037
830.96	2.738	1263631	WORD	n/a	wordpools/wordpool_EN.txt	GRASS	6	7	n/a	n/a	pyFR	0	TJ037
833.698	2.536	1266369	WORD	n/a	wordpools/wordpool_EN.txt	GLOVE	7	7	n/a	n/a	pyFR	0	TJ037
836.234	2.454	1268905	WORD	n/a	wordpools/wordpool_EN.txt	STREET	8	7	n/a	n/a	pyFR	0	TJ037
838.688	2.621	1271359	WORD	n/a	wordpools/wordpool_EN.txt	DOOR	9	7	n/a	n/a	pyFR	0	TJ037
841.309	2.47	1273980	WORD	n/a	wordpools/wordpool_EN.txt	COIN	10	7	n/a	n/a	pyFR	0	TJ037
843.779	2.737	1276450	WORD	n/a	wordpools/wordpool_EN.txt	YARD	11	7	n/a	n/a	pyFR	0	TJ037
846.516	2.469	1279187	WORD	n/a	wordpools/wordpool_EN.txt	STAIR	12	7	n/a	n/a	pyFR	0	TJ037
848.985	2.622	1281656	WORD	n/a	wordpools/wordpool_EN.txt	CHEEK	13	7	n/a	n/a	pyFR	0	TJ037
851.607	2.552	1284278	WORD	n/a	wordpools/wordpool_EN.txt	STOOL	14	7	n/a	n/a	pyFR	0	TJ037
854.159	1.622	1286830	WORD	n/a	wordpools/wordpool_EN.txt	EEL	15	7	n/a	n/a	pyFR	0	TJ037
855.781	1.083	n/a	START	n/a	n/a	n/a	n/a	7	[-999 -999 -999]	-999	pyFR	0	TJ037
856.864	4.507	n/a	PROB	n/a	n/a	n/a	n/a	7	[4 2 4]	10	pyFR	0	TJ037
861.371	3.972	n/a	PROB	n/a	n/a	n/a	n/a	7	[5 8 7]	20	pyFR	0	TJ037
865.343	3.388	n/a	PROB	n/a	n/a	n/a	n/a	7	[3 2 7]	12	pyFR	0	TJ037
868.731	3.304	n/a	PROB	n/a	n/a	n/a	n/a	7	[5 8 5]	18	pyFR	0	TJ037
872.035	2.688	n/a	PROB	n/a	n/a	n/a	n/a	7	[1 7 3]	11	pyFR	0	TJ037
874.723	3.598	n/a	PROB	n/a	n/a	n/a	n/a	7	[9 5 1]	15	pyFR	0	TJ037
878.321	1.193	n/a	STOP	n/a	n/a	n/a	n/a	7	[-999 -999 -999]	-999	pyFR	0	TJ037
879.514	1.502	1312185	REC_START	n/a	n/a	n/a	-999	7	n/a	n/a	pyFR	0	TJ037
881.016	0.491	1313687	REC_WORD	0.491	n/a	OAK	-999	7	n/a	n/a	pyFR	0	TJ037
881.507	0.645	1314178	REC_WORD	0.645	n/a	CREEK	-999	7	n/a	n/a	pyFR	0	TJ037
882.152	0.945	1314823	REC_WORD_VV	0.945	n/a	VV	-999	7	n/a	n/a	pyFR	0	TJ037
883.097	2.188	1315768	REC_WORD	2.188	n/a	COUCH	-999	7	n/a	n/a	pyFR	0	TJ037
885.285	0.445	1317956	REC_WORD_VV	0.445	n/a	VV	-999	7	n/a	n/a	pyFR	0	TJ037
885.73	1.891	1318401	REC_WORD	1.891	n/a	STOOL	-999	7	n/a	n/a	pyFR	0	TJ037
887.621	3.124	1320292	REC_WORD_VV	3.124	n/a	VV	-999	7	n/a	n/a	pyFR	0	TJ037
890.745	1.251	1323416	REC_WORD_VV	1.251	n/a	VV	-999	7	n/a	n/a	pyFR	0	TJ037
891.996	1.04	1324667	REC_WORD	1.04	n/a	INK	-999	7	n/a	n/a	pyFR	0	TJ037
893.036	0.577	1325707	REC_WORD	0.577	n/a	COUCH	-999	7	n/a	n/a	pyFR	0	TJ037
893.613	6.43	1326284	REC_WORD	6.43	n/a	STOOL	-999	7	n/a	n/a	pyFR	0	TJ037
900.043	5.22	1332714	REC_WORD	5.22	n/a	TOUCH	-999	7	n/a	n/a	pyFR	0	TJ037
905.263	1.07	1337934	REC_WORD	1.07	n/a	TAKE	-999	7	n/a	n/a	pyFR	0	TJ037
906.333	1.0	1339004	REC_WORD_VV	1.0	n/a	VV	-999	7	n/a	n/a	pyFR	0	TJ037
907.333	1.0	1340004	REC_WORD_VV	1.0	n/a	VV	-999	7	n/a	n/a	pyFR	0	TJ037
908.333	4.676	1341004	REC_WORD_VV	4.676	n/a	VV	-999	7	n/a	n/a	pyFR	0	TJ037
913.009	1.0	1345680	REC_WORD_VV	1.0	n/a	VV	-999	7	n/a	n/a	pyFR	0	TJ037
914.009	1.0	1346680	REC_WORD_VV	1.0	n/a	VV	-999	7	n/a	n/a	pyFR	0	TJ037
915.009	1.0	1347680	REC_WORD_VV	1.0	n/a	VV	-999	7	n/a	n/a	pyFR	0	TJ037
916.009	1.0	1348680	REC_WORD_VV	1.0	n/a	VV	-999	7	n/a	n/a	pyFR	0	TJ037
917.009	1.0	1349680	REC_WORD_VV	1.0	n/a	VV	-999	7	n/a	n/a	pyFR	0	TJ037
918.009	1.0	1350680	REC_WORD_VV	1.0	n/a	VV	-999	7	n/a	n/a	pyFR	0	TJ037
919.009	1.0	1351680	REC_WORD_VV	1.0	n/a	VV	-999	7	n/a	n/a	pyFR	0	TJ037
920.009	1.0	1352680	REC_WORD_VV	1.0	n/a	VV	-999	7	n/a	n/a	pyFR	0	TJ037
921.009	1.0	1353680	REC_WORD_VV	1.0	n/a	VV	-999	7	n/a	n/a	pyFR	0	TJ037
922.009	1.0	1354680	REC_WORD_VV	1.0	n/a	VV	-999	7	n/a	n/a	pyFR	0	TJ037
923.009	1.0	1355680	REC_WORD_VV	1.0	n/a	VV	-999	7	n/a	n/a	pyFR	0	TJ037
924.009	3.021	1356680	REC_WORD_VV	3.021	n/a	VV	-999	7	n/a	n/a	pyFR	0	TJ037
927.03	0.016	1359701	TRIAL	n/a	n/a	n/a	-999	8	n/a	n/a	pyFR	0	TJ037
927.046	2.937	1359717	ORIENT	n/a	n/a	n/a	-999	8	n/a	n/a	pyFR	0	TJ037
929.983	2.822	1362654	WORD	n/a	wordpools/wordpool_EN.txt	SEAL	1	8	n/a	n/a	pyFR	0	TJ037
932.805	2.687	1365476	WORD	n/a	wordpools/wordpool_EN.txt	MOUTH	2	8	n/a	n/a	pyFR	0	TJ037
935.492	2.804	1368163	WORD	n/a	wordpools/wordpool_EN.txt	GIRL	3	8	n/a	n/a	pyFR	0	TJ037
938.296	2.537	1370967	WORD	n/a	wordpools/wordpool_EN.txt	CUBE	4	8	n/a	n/a	pyFR	0	TJ037
940.833	2.821	1373504	WORD	n/a	wordpools/wordpool_EN.txt	TRAY	5	8	n/a	n/a	pyFR	0	TJ037
943.654	2.469	1376325	WORD	n/a	wordpools/wordpool_EN.txt	TRUCK	6	8	n/a	n/a	pyFR	0	TJ037
946.123	2.721	1378794	WORD	n/a	wordpools/wordpool_EN.txt	CLAY	7	8	n/a	n/a	pyFR	0	TJ037
948.844	2.621	1381515	WORD	n/a	wordpools/wordpool_EN.txt	RIB	8	8	n/a	n/a	pyFR	0	TJ037
951.465	2.82	1384136	WORD	n/a	wordpools/wordpool_EN.txt	BEACH	9	8	n/a	n/a	pyFR	0	TJ037
954.285	2.703	1386956	WORD	n/a	wordpools/wordpool_EN.txt	KING	10	8	n/a	n/a	pyFR	0	TJ037
956.988	2.455	1389659	WORD	n/a	wordpools/wordpool_EN.txt	GEESE	11	8	n/a	n/a	pyFR	0	TJ037
959.443	2.819	1392114	WORD	n/a	wordpools/wordpool_EN.txt	RICE	12	8	n/a	n/a	pyFR	0	TJ037
962.262	2.738	1394933	WORD	n/a	wordpools/wordpool_EN.txt	CAGE	13	8	n/a	n/a	pyFR	0	TJ037
965.0	2.621	1397670	WORD	n/a	wordpools/wordpool_EN.txt	HOSE	14	8	n/a	n/a	pyFR	0	TJ037
967.621	1.62	1400291	WORD	n/a	wordpools/wordpool_EN.txt	CLOCK	15	8	n/a	n/a	pyFR	0	TJ037
969.241	1.016	n/a	START	n/a	n/a	n/a	n/a	8	[-999 -999 -999]	-999	pyFR	0	TJ037
970.257	4.824	n/a	PROB	n/a	n/a	n/a	n/a	8	[9 7 8]	24	pyFR	0	TJ037
975.081	4.657	n/a	PROB	n/a	n/a	n/a	n/a	8	[4 7 5]	16	pyFR	0	TJ037
979.738	3.922	n/a	PROB	n/a	n/a	n/a	n/a	8	[7 6 7]	20	pyFR	0	TJ037
983.66	3.739	n/a	PROB	n/a	n/a	n/a	n/a	8	[4 1 8]	13	pyFR	0	TJ037
987.399	2.926	n/a	PROB	n/a	n/a	n/a	n/a	8	[6 3 2]	11	pyFR	0	TJ037
990.325	1.064	n/a	STOP	n/a	n/a	n/a	n/a	8	[-999 -999 -999]	-999	pyFR	0	TJ037
991.389	0.741	1424059	REC_START	n/a	n/a	n/a	-999	8	n/a	n/a	pyFR	0	TJ037
992.13	0.815	1424800	REC_WORD	0.815	n/a	SEAL	-999	8	n/a	n/a	pyFR	0	TJ037
992.945	0.668	1425615	REC_WORD	0.668	n/a	MOUTH	-999	8	n/a	n/a	pyFR	0	TJ037
993.613	0.61	1426283	REC_WORD	0.61	n/a	GIRL	-999	8	n/a	n/a	pyFR	0	TJ037
994.223	0.613	1426893	REC_WORD	0.613	n/a	CUBE	-999	8	n/a	n/a	pyFR	0	TJ037
994.836	0.744	1427506	REC_WORD	0.744	n/a	TRAY	-999	8	n/a	n/a	pyFR	0	TJ037
995.58	1.53	1428250	REC_WORD	1.53	n/a	TAPE	-999	8	n/a	n/a	pyFR	0	TJ037
997.11	4.62	1429780	REC_WORD	4.62	n/a	FROG	-999	8	n/a	n/a	pyFR	0	TJ037
1001.73	1.525	1434400	REC_WORD	1.525	n/a	DOOR	-999	8	n/a	n/a	pyFR	0	TJ037
1003.255	0.381	1435925	REC_WORD_VV	0.381	n/a	VV	-999	8	n/a	n/a	pyFR	0	TJ037
1003.636	5.625	1436306	REC_WORD	5.625	n/a	MAT	-999	8	n/a	n/a	pyFR	0	TJ037
1009.261	31.398	1441931	REC_WORD_VV	31.398	n/a	VV	-999	8	n/a	n/a	pyFR	0	TJ037
1040.659	0.015	1473329	TRIAL	n/a	n/a	n/a	-999	9	n/a	n/a	pyFR	0	TJ037
1040.674	2.688	1473344	ORIENT	n/a	n/a	n/a	-999	9	n/a	n/a	pyFR	0	TJ037
1043.362	2.569	1476032	WORD	n/a	wordpools/wordpool_EN.txt	DART	1	9	n/a	n/a	pyFR	0	TJ037
1045.931	2.772	1478601	WORD	n/a	wordpools/wordpool_EN.txt	BOY	2	9	n/a	n/a	pyFR	0	TJ037
1048.703	2.703	1481373	WORD	n/a	wordpools/wordpool_EN.txt	VAN	3	9	n/a	n/a	pyFR	0	TJ037
1051.406	2.753	1484076	WORD	n/a	wordpools/wordpool_EN.txt	OAK	4	9	n/a	n/a	pyFR	0	TJ037
1054.159	2.771	1486829	WORD	n/a	wordpools/wordpool_EN.txt	SNOW	5	9	n/a	n/a	pyFR	0	TJ037
1056.93	2.705	1489600	WORD	n/a	wordpools/wordpool_EN.txt	FLOOR	6	9	n/a	n/a	pyFR	0	TJ037
1059.635	2.72	1492305	WORD	n/a	wordpools/wordpool_EN.txt	FAN	7	9	n/a	n/a	pyFR	0	TJ037
1062.355	2.437	1495025	WORD	n/a	wordpools/wordpool_EN.txt	BRUSH	8	9	n/a	n/a	pyFR	0	TJ037
1064.792	2.804	1497462	WORD	n/a	wordpools/wordpool_EN.txt	MOTH	9	9	n/a	n/a	pyFR	0	TJ037
1067.596	2.653	1500266	WORD	n/a	wordpools/wordpool_EN.txt	OWL	10	9	n/a	n/a	pyFR	0	TJ037
1070.249	2.687	1502919	WORD	n/a	wordpools/wordpool_EN.txt	SMILE	11	9	n/a	n/a	pyFR	0	TJ037
1072.936	2.505	1505606	WORD	n/a	wordpools/wordpool_EN.txt	FORT	12	9	n/a	n/a	pyFR	0	TJ037
1075.441	2.686	1508111	WORD	n/a	wordpools/wordpool_EN.txt	HORN	13	9	n/a	n/a	pyFR	0	TJ037
1078.127	2.571	1510797	WORD	n/a	wordpools/wordpool_EN.txt	CLOTH	14	9	n/a	n/a	pyFR	0	TJ037
1080.698	1.62	1513368	WORD	n/a	wordpools/wordpool_EN.txt	GATE	15	9	n/a	n/a	pyFR	0	TJ037
1082.318	0.949	n/a	START	n/a	n/a	n/a	n/a	9	[-999 -999 -999]	-999	pyFR	0	TJ037
1083.267	3.59	n/a	PROB	n/a	n/a	n/a	n/a	9	[2 5 6]	13	pyFR	0	TJ037
1086.857	10.313	n/a	PROB	n/a	n/a	n/a	n/a	9	[8 7 8]	22	pyFR	0	TJ037
1097.17	5.902	n/a	PROB	n/a	n/a	n/a	n/a	9	[3 3 9]	15	pyFR	0	TJ037
1103.072	1.227	n/a	STOP	n/a	n/a	n/a	n/a	9	[-999 -999 -999]	-999	pyFR	0	TJ037
1104.299	1.579	1536969	REC_START	n/a	n/a	n/a	-999	9	n/a	n/a	pyFR	0	TJ037
1105.878	2.74	1538548	REC_WORD_VV	2.74	n/a	VV	-999	9	n/a	n/a	pyFR	0	TJ037
1108.618	0.814	1541288	REC_WORD	0.814	n/a	SNOW	-999	9	n/a	n/a	pyFR	0	TJ037
1109.432	0.952	1542102	REC_WORD	0.952	n/a	MAT	-999	9	n/a	n/a	pyFR	0	TJ037
1110.384	1.0	1543054	REC_WORD_VV	1.0	n/a	VV	-999	9	n/a	n/a	pyFR	0	TJ037
1111.384	1.0	1544054	REC_WORD_VV	1.0	n/a	VV	-999	9	n/a	n/a	pyFR	0	TJ037
1112.384	1.0	1545054	REC_WORD_VV	1.0	n/a	VV	-999	9	n/a	n/a	pyFR	0	TJ037
1113.384	1.0	1546054	REC_WORD_VV	1.0	n/a	VV	-999	9	n/a	n/a	pyFR	0	TJ037
1114.384	2.294	1547054	REC_WORD_VV	2.294	n/a	VV	-999	9	n/a	n/a	pyFR	0	TJ037
1116.678	0.797	1549348	REC_WORD	0.797	n/a	SNOW	-999	9	n/a	n/a	pyFR	0	TJ037
1117.475	1.0	1550145	REC_WORD	1.0	n/a	MAT	-999	9	n/a	n/a	pyFR	0	TJ037
1118.475	6.383	1551145	REC_WORD_VV	6.383	n/a	VV	-999	9	n/a	n/a	pyFR	0	TJ037
1124.858	5.64	1557527	REC_WORD	5.64	n/a	BOY	-999	9	n/a	n/a	pyFR	0	TJ037
1130.498	5.755	1563167	REC_WORD	5.755	n/a	OWL	-999	9	n/a	n/a	pyFR	0	TJ037
1136.253	6.756	1568922	REC_WORD_VV	6.756	n/a	VV	-999	9	n/a	n/a	pyFR	0	TJ037
1143.009	1.391	1575678	REC_WORD	1.391	n/a	HURT	-999	9	n/a	n/a	pyFR	0	TJ037
1144.4	1.0	1577069	REC_WORD_VV	1.0	n/a	VV	-999	9	n/a	n/a	pyFR	0	TJ037
1145.4	0.308	1578069	REC_WORD_VV	0.308	n/a	VV	-999	9	n/a	n/a	pyFR	0	TJ037
1145.708	1.0	1578377	REC_WORD	1.0	n/a	PAIN	-999	9	n/a	n/a	pyFR	0	TJ037
1146.708	4.758	1579377	REC_WORD_VV	4.758	n/a	VV	-999	9	n/a	n/a	pyFR	0	TJ037
1151.466	0.015	1584135	TRIAL	n/a	n/a	n/a	-999	10	n/a	n/a	pyFR	0	TJ037
1151.481	2.854	1584150	ORIENT	n/a	n/a	n/a	-999	10	n/a	n/a	pyFR	0	TJ037
1154.335	2.521	1587004	WORD	n/a	wordpools/wordpool_EN.txt	FOOT	1	10	n/a	n/a	pyFR	0	TJ037
1156.856	2.754	1589525	WORD	n/a	wordpools/wordpool_EN.txt	JAIL	2	10	n/a	n/a	pyFR	0	TJ037
1159.61	2.552	1592279	WORD	n/a	wordpools/wordpool_EN.txt	CAT	3	10	n/a	n/a	pyFR	0	TJ037
1162.162	2.455	1594831	WORD	n/a	wordpools/wordpool_EN.txt	RAKE	4	10	n/a	n/a	pyFR	0	TJ037
1164.617	2.519	1597286	WORD	n/a	wordpools/wordpool_EN.txt	WORM	5	10	n/a	n/a	pyFR	0	TJ037
1167.136	2.605	1599805	WORD	n/a	wordpools/wordpool_EN.txt	BOARD	6	10	n/a	n/a	pyFR	0	TJ037
1169.741	2.687	1602410	WORD	n/a	wordpools/wordpool_EN.txt	STEAK	7	10	n/a	n/a	pyFR	0	TJ037
1172.428	2.437	1605097	WORD	n/a	wordpools/wordpool_EN.txt	MAIL	8	10	n/a	n/a	pyFR	0	TJ037
1174.865	2.453	1607534	WORD	n/a	wordpools/wordpool_EN.txt	BAG	9	10	n/a	n/a	pyFR	0	TJ037
1177.318	2.636	1609987	WORD	n/a	wordpools/wordpool_EN.txt	STOVE	10	10	n/a	n/a	pyFR	0	TJ037
1179.954	2.438	1612623	WORD	n/a	wordpools/wordpool_EN.txt	FLUTE	11	10	n/a	n/a	pyFR	0	TJ037
1182.392	2.503	1615061	WORD	n/a	wordpools/wordpool_EN.txt	SHEEP	12	10	n/a	n/a	pyFR	0	TJ037
1184.895	2.721	1617564	WORD	n/a	wordpools/wordpool_EN.txt	BENCH	13	10	n/a	n/a	pyFR	0	TJ037
1187.616	2.586	1620285	WORD	n/a	wordpools/wordpool_EN.txt	SPOON	14	10	n/a	n/a	pyFR	0	TJ037
1190.202	1.621	1622871	WORD	n/a	wordpools/wordpool_EN.txt	TENT	15	10	n/a	n/a	pyFR	0	TJ037
1191.823	1.166	n/a	START	n/a	n/a	n/a	n/a	10	[-999 -999 -999]	-999	pyFR	0	TJ037
1192.989	5.274	n/a	PROB	n/a	n/a	n/a	n/a	10	[4 8 6]	18	pyFR	0	TJ037
1198.263	4.641	n/a	PROB	n/a	n/a	n/a	n/a	10	[6 7 2]	15	pyFR	0	TJ037
1202.904	4.138	n/a	PROB	n/a	n/a	n/a	n/a	10	[4 1 1]	6	pyFR	0	TJ037
1207.042	4.073	n/a	PROB	n/a	n/a	n/a	n/a	10	[4 8 5]	17	pyFR	0	TJ037
1211.115	3.267	n/a	PROB	n/a	n/a	n/a	n/a	10	[5 4 4]	13	pyFR	0	TJ037
1214.382	1.091	n/a	STOP	n/a	n/a	n/a	n/a	10	[-999 -999 -999]	-999	pyFR	0	TJ037
1215.473	0.427	1648142	REC_START	n/a	n/a	n/a	-999	10	n/a	n/a	pyFR	0	TJ037
1215.9	0.741	1648569	REC_WORD	0.741	n/a	FOOT	-999	10	n/a	n/a	pyFR	0	TJ037
1216.641	1.566	1649310	REC_WORD_VV	1.566	n/a	VV	-999	10	n/a	n/a	pyFR	0	TJ037
1218.207	0.431	1650876	REC_WORD	0.431	n/a	FOOT	-999	10	n/a	n/a	pyFR	0	TJ037
1218.638	0.496	1651307	REC_WORD	0.496	n/a	RAKE	-999	10	n/a	n/a	pyFR	0	TJ037
1219.134	0.447	1651803	REC_WORD	0.447	n/a	CAT	-999	10	n/a	n/a	pyFR	0	TJ037
1219.581	0.771	1652250	REC_WORD	0.771	n/a	CUBE	-999	10	n/a	n/a	pyFR	0	TJ037
1220.352	0.649	1653021	REC_WORD	0.649	n/a	CAT	-999	10	n/a	n/a	pyFR	0	TJ037
1221.001	1.581	1653670	REC_WORD	1.581	n/a	WHEEL	-999	10	n/a	n/a	pyFR	0	TJ037
1222.582	0.668	1655251	REC_WORD	0.668	n/a	RAKE	-999	10	n/a	n/a	pyFR	0	TJ037
1223.25	0.81	1655919	REC_WORD	0.81	n/a	WORM	-999	10	n/a	n/a	pyFR	0	TJ037
1224.06	1.522	1656729	REC_WORD	1.522	n/a	RAKE	-999	10	n/a	n/a	pyFR	0	TJ037
1225.582	5.618	1658251	REC_WORD_VV	5.618	n/a	VV	-999	10	n/a	n/a	pyFR	0	TJ037
1231.2	3.973	1663869	REC_WORD	3.973	n/a	PEN	-999	10	n/a	n/a	pyFR	0	TJ037
1235.173	1.0	1667842	REC_WORD_VV	1.0	n/a	VV	-999	10	n/a	n/a	pyFR	0	TJ037
1236.173	27.034	1668842	REC_WORD_VV	27.034	n/a	VV	-999	10	n/a	n/a	pyFR	0	TJ037
1263.207	0.015	1695876	TRIAL	n/a	n/a	n/a	-999	11	n/a	n/a	pyFR	0	TJ037
1263.222	2.954	1695891	ORIENT	n/a	n/a	n/a	-999	11	n/a	n/a	pyFR	0	TJ037
1266.176	2.488	1698845	WORD	n/a	wordpools/wordpool_EN.txt	TOAST	1	11	n/a	n/a	pyFR	0	TJ037
1268.664	2.754	1701333	WORD	n/a	wordpools/wordpool_EN.txt	HOLE	2	11	n/a	n/a	pyFR	0	TJ037
1271.418	2.519	1704087	WORD	n/a	wordpools/wordpool_EN.txt	PIT	3	11	n/a	n/a	pyFR	0	TJ037
1273.937	2.471	1706606	WORD	n/a	wordpools/wordpool_EN.txt	FORK	4	11	n/a	n/a	pyFR	0	TJ037
1276.408	2.753	1709077	WORD	n/a	wordpools/wordpool_EN.txt	PANTS	5	11	n/a	n/a	pyFR	0	TJ037
1279.161	2.788	1711830	WORD	n/a	wordpools/wordpool_EN.txt	WAND	6	11	n/a	n/a	pyFR	0	TJ037
1281.949	2.688	1714618	WORD	n/a	wordpools/wordpool_EN.txt	BUSH	7	11	n/a	n/a	pyFR	0	TJ037
1284.637	2.502	1717306	WORD	n/a	wordpools/wordpool_EN.txt	MULE	8	11	n/a	n/a	pyFR	0	TJ037
1287.139	2.638	1719807	WORD	n/a	wordpools/wordpool_EN.txt	SKI	9	11	n/a	n/a	pyFR	0	TJ037
1289.777	2.704	1722445	WORD	n/a	wordpools/wordpool_EN.txt	GLASS	10	11	n/a	n/a	pyFR	0	TJ037
1292.481	2.586	1725149	WORD	n/a	wordpools/wordpool_EN.txt	CHIN	11	11	n/a	n/a	pyFR	0	TJ037
1295.067	2.705	1727735	WORD	n/a	wordpools/wordpool_EN.txt	HEN	12	11	n/a	n/a	pyFR	0	TJ037
1297.772	2.787	1730440	WORD	n/a	wordpools/wordpool_EN.txt	SNAKE	13	11	n/a	n/a	pyFR	0	TJ037
1300.559	2.67	1733227	WORD	n/a	wordpools/wordpool_EN.txt	BATH	14	11	n/a	n/a	pyFR	0	TJ037
1303.229	1.605	1735897	WORD	n/a	wordpools/wordpool_EN.txt	CHIEF	15	11	n/a	n/a	pyFR	0	TJ037
1304.834	1.083	n/a	START	n/a	n/a	n/a	n/a	11	[-999 -999 -999]	-999	pyFR	0	TJ037
1305.917	6.224	n/a	PROB	n/a	n/a	n/a	n/a	11	[9 7 2]	18	pyFR	0	TJ037
1312.141	4.424	n/a	PROB	n/a	n/a	n/a	n/a	11	[6 3 9]	18	pyFR	0	TJ037
1316.565	4.123	n/a	PROB	n/a	n/a	n/a	n/a	11	[9 6 1]	16	pyFR	0	TJ037
1320.688	5.186	n/a	PROB	n/a	n/a	n/a	n/a	11	[6 9 2]	17	pyFR	0	TJ037
1325.874	1.206	n/a	STOP	n/a	n/a	n/a	n/a	11	[-999 -999 -999]	-999	pyFR	0	TJ037
1327.08	1.069	1759748	REC_START	n/a	n/a	n/a	-999	11	n/a	n/a	pyFR	0	TJ037
1328.149	0.646	1760817	REC_WORD	0.646	n/a	TOAST	-999	11	n/a	n/a	pyFR	0	TJ037
1328.795	0.387	1761463	REC_WORD	0.387	n/a	PIT	-999	11	n/a	n/a	pyFR	0	TJ037
1329.182	1.0	1761850	REC_WORD	1.0	n/a	HOLE	-999	11	n/a	n/a	pyFR	0	TJ037
1330.182	0.05	1762850	REC_WORD_VV	0.05	n/a	VV	-999	11	n/a	n/a	pyFR	0	TJ037
1330.232	2.735	1762900	REC_WORD	2.735	n/a	BREAK	-999	11	n/a	n/a	pyFR	0	TJ037
1332.967	0.718	1765635	REC_WORD	0.718	n/a	FORK	-999	11	n/a	n/a	pyFR	0	TJ037
1333.685	8.139	1766353	REC_WORD	8.139	n/a	PANTS	-999	11	n/a	n/a	pyFR	0	TJ037
1341.824	1.914	1774492	REC_WORD	1.914	n/a	PEN	-999	11	n/a	n/a	pyFR	0	TJ037
1343.738	1.658	1776406	REC_WORD_VV	1.658	n/a	VV	-999	11	n/a	n/a	pyFR	0	TJ037
1345.396	1.0	1778064	REC_WORD_VV	1.0	n/a	VV	-999	11	n/a	n/a	pyFR	0	TJ037
1346.396	1.0	1779064	REC_WORD_VV	1.0	n/a	VV	-999	11	n/a	n/a	pyFR	0	TJ037
1347.396	1.0	1780064	REC_WORD_VV	1.0	n/a	VV	-999	11	n/a	n/a	pyFR	0	TJ037
1348.396	20.073	1781064	REC_WORD_VV	20.073	n/a	VV	-999	11	n/a	n/a	pyFR	0	TJ037
1368.469	1.0	1801137	REC_WORD	1.0	n/a	KNEES	-999	11	n/a	n/a	pyFR	0	TJ037
1369.469	0.675	1802137	REC_WORD_VV	0.675	n/a	VV	-999	11	n/a	n/a	pyFR	0	TJ037
1370.144	1.0	1802812	REC_WORD	1.0	n/a	SHOE	-999	11	n/a	n/a	pyFR	0	TJ037
1371.144	4.038	1803812	REC_WORD_VV	4.038	n/a	VV	-999	11	n/a	n/a	pyFR	0	TJ037
1375.182	0.015	1807850	TRIAL	n/a	n/a	n/a	-999	12	n/a	n/a	pyFR	0	TJ037
1375.197	2.821	1807865	ORIENT	n/a	n/a	n/a	-999	12	n/a	n/a	pyFR	0	TJ037
1378.018	2.722	1810686	WORD	n/a	wordpools/wordpool_EN.txt	CART	1	12	n/a	n/a	pyFR	0	TJ037
1380.74	2.586	1813408	WORD	n/a	wordpools/wordpool_EN.txt	ROSE	2	12	n/a	n/a	pyFR	0	TJ037
1383.326	2.72	1815994	WORD	n/a	wordpools/wordpool_EN.txt	FARM	3	12	n/a	n/a	pyFR	0	TJ037
1386.046	2.755	1818714	WORD	n/a	wordpools/wordpool_EN.txt	TEA	4	12	n/a	n/a	pyFR	0	TJ037
1388.801	2.637	1821469	WORD	n/a	wordpools/wordpool_EN.txt	BARN	5	12	n/a	n/a	pyFR	0	TJ037
1391.438	2.487	1824106	WORD	n/a	wordpools/wordpool_EN.txt	RAT	6	12	n/a	n/a	pyFR	0	TJ037
1393.925	2.804	1826593	WORD	n/a	wordpools/wordpool_EN.txt	TOOL	7	12	n/a	n/a	pyFR	0	TJ037
1396.729	2.737	1829397	WORD	n/a	wordpools/wordpool_EN.txt	BRICK	8	12	n/a	n/a	pyFR	0	TJ037
1399.466	2.669	1832134	WORD	n/a	wordpools/wordpool_EN.txt	QUEEN	9	12	n/a	n/a	pyFR	0	TJ037
1402.135	2.789	1834803	WORD	n/a	wordpools/wordpool_EN.txt	RUG	10	12	n/a	n/a	pyFR	0	TJ037
1404.924	2.754	1837592	WORD	n/a	wordpools/wordpool_EN.txt	HOUSE	11	12	n/a	n/a	pyFR	0	TJ037
1407.678	2.737	1840346	WORD	n/a	wordpools/wordpool_EN.txt	PET	12	12	n/a	n/a	pyFR	0	TJ037
1410.415	2.636	1843083	WORD	n/a	wordpools/wordpool_EN.txt	TREE	13	12	n/a	n/a	pyFR	0	TJ037
1413.051	2.755	1845719	WORD	n/a	wordpools/wordpool_EN.txt	CHALK	14	12	n/a	n/a	pyFR	0	TJ037
1415.806	1.604	1848474	WORD	n/a	wordpools/wordpool_EN.txt	ROOM	15	12	n/a	n/a	pyFR	0	TJ037
1417.41	1.066	n/a	START	n/a	n/a	n/a	n/a	12	[-999 -999 -999]	-999	pyFR	0	TJ037
1418.476	3.705	n/a	PROB	n/a	n/a	n/a	n/a	12	[9 8 2]	19	pyFR	0	TJ037
1422.181	3.222	n/a	PROB	n/a	n/a	n/a	n/a	12	[1 9 5]	15	pyFR	0	TJ037
1425.403	3.687	n/a	PROB	n/a	n/a	n/a	n/a	12	[3 7 7]	17	pyFR	0	TJ037
1429.09	2.921	n/a	PROB	n/a	n/a	n/a	n/a	12	[3 2 7]	12	pyFR	0	TJ037
1432.011	3.289	n/a	PROB	n/a	n/a	n/a	n/a	12	[5 5 3]	13	pyFR	0	TJ037
1435.3	3.938	n/a	PROB	n/a	n/a	n/a	n/a	12	[6 7 8]	21	pyFR	0	TJ037
1439.238	1.203	n/a	STOP	n/a	n/a	n/a	n/a	12	[-999 -999 -999]	-999	pyFR	0	TJ037
1440.441	1.117	1873109	REC_START	n/a	n/a	n/a	-999	12	n/a	n/a	pyFR	0	TJ037
1441.558	0.638	1874226	REC_WORD	0.638	n/a	CHALK	-999	12	n/a	n/a	pyFR	0	TJ037
1442.196	1.133	1874864	REC_WORD	1.133	n/a	COURT	-999	12	n/a	n/a	pyFR	0	TJ037
1443.329	0.861	1875997	REC_WORD	0.861	n/a	KNEES	-999	12	n/a	n/a	pyFR	0	TJ037
1444.19	0.63	1876858	REC_WORD	0.63	n/a	PALM	-999	12	n/a	n/a	pyFR	0	TJ037
1444.82	0.509	1877488	REC_WORD	0.509	n/a	FORK	-999	12	n/a	n/a	pyFR	0	TJ037
1445.329	1.45	1877997	REC_WORD	1.45	n/a	FIG	-999	12	n/a	n/a	pyFR	0	TJ037
1446.779	2.609	1879447	REC_WORD_VV	2.609	n/a	VV	-999	12	n/a	n/a	pyFR	0	TJ037
1449.388	6.791	1882055	REC_WORD_VV	6.791	n/a	VV	-999	12	n/a	n/a	pyFR	0	TJ037
1456.179	4.177	1888846	REC_WORD	4.177	n/a	KNEES	-999	12	n/a	n/a	pyFR	0	TJ037
1460.356	3.089	1893023	REC_WORD	3.089	n/a	PIT	-999	12	n/a	n/a	pyFR	0	TJ037
1463.445	1.514	1896112	REC_WORD	1.514	n/a	HOLE	-999	12	n/a	n/a	pyFR	0	TJ037
1464.959	1.0	1897626	REC_WORD_VV	1.0	n/a	VV	-999	12	n/a	n/a	pyFR	0	TJ037
1465.959	22.049	1898626	REC_WORD_VV	22.049	n/a	VV	-999	12	n/a	n/a	pyFR	0	TJ037
1488.008	0.016	1920675	TRIAL	n/a	n/a	n/a	-999	13	n/a	n/a	pyFR	0	TJ037
1488.024	2.937	1920691	ORIENT	n/a	n/a	n/a	-999	13	n/a	n/a	pyFR	0	TJ037
1490.961	2.455	1923628	WORD	n/a	wordpools/wordpool_EN.txt	LAMB	1	13	n/a	n/a	pyFR	0	TJ037
1493.416	2.586	1926083	WORD	n/a	wordpools/wordpool_EN.txt	FOOD	2	13	n/a	n/a	pyFR	0	TJ037
1496.002	2.471	1928669	WORD	n/a	wordpools/wordpool_EN.txt	PEA	3	13	n/a	n/a	pyFR	0	TJ037
1498.473	2.703	1931140	WORD	n/a	wordpools/wordpool_EN.txt	SALT	4	13	n/a	n/a	pyFR	0	TJ037
1501.176	2.621	1933843	WORD	n/a	wordpools/wordpool_EN.txt	TOE	5	13	n/a	n/a	pyFR	0	TJ037
1503.797	2.419	1936464	WORD	n/a	wordpools/wordpool_EN.txt	CUP	6	13	n/a	n/a	pyFR	0	TJ037
1506.216	2.655	1938883	WORD	n/a	wordpools/wordpool_EN.txt	LEAF	7	13	n/a	n/a	pyFR	0	TJ037
1508.871	2.42	1941538	WORD	n/a	wordpools/wordpool_EN.txt	BEAK	8	13	n/a	n/a	pyFR	0	TJ037
1511.291	2.504	1943958	WORD	n/a	wordpools/wordpool_EN.txt	ROPE	9	13	n/a	n/a	pyFR	0	TJ037
1513.795	2.687	1946462	WORD	n/a	wordpools/wordpool_EN.txt	MUD	10	13	n/a	n/a	pyFR	0	TJ037
1516.482	2.502	1949149	WORD	n/a	wordpools/wordpool_EN.txt	DUCK	11	13	n/a	n/a	pyFR	0	TJ037
1518.984	2.705	1951651	WORD	n/a	wordpools/wordpool_EN.txt	PALM	12	13	n/a	n/a	pyFR	0	TJ037
1521.689	2.536	1954356	WORD	n/a	wordpools/wordpool_EN.txt	CAVE	13	13	n/a	n/a	pyFR	0	TJ037
1524.225	2.605	1956892	WORD	n/a	wordpools/wordpool_EN.txt	BANK	14	13	n/a	n/a	pyFR	0	TJ037
1526.83	1.604	1959497	WORD	n/a	wordpools/wordpool_EN.txt	COW	15	13	n/a	n/a	pyFR	0	TJ037
1528.434	0.832	n/a	START	n/a	n/a	n/a	n/a	13	[-999 -999 -999]	-999	pyFR	0	TJ037
1529.266	10.081	n/a	PROB	n/a	n/a	n/a	n/a	13	[8 9 8]	25	pyFR	0	TJ037
1539.347	10.024	n/a	PROB	n/a	n/a	n/a	n/a	13	[8 8 6]	22	pyFR	0	TJ037
1549.371	1.21	n/a	STOP	n/a	n/a	n/a	n/a	13	[-999 -999 -999]	-999	pyFR	0	TJ037
1550.581	1.542	1983248	REC_START	n/a	n/a	n/a	-999	13	n/a	n/a	pyFR	0	TJ037
1552.123	1.859	1984790	REC_WORD	1.859	n/a	LAMB	-999	13	n/a	n/a	pyFR	0	TJ037
1553.982	0.821	1986649	REC_WORD	0.821	n/a	FOOD	-999	13	n/a	n/a	pyFR	0	TJ037
1554.803	3.612	1987470	REC_WORD	3.612	n/a	SALT	-999	13	n/a	n/a	pyFR	0	TJ037
1558.415	1.205	1991082	REC_WORD_VV	1.205	n/a	VV	-999	13	n/a	n/a	pyFR	0	TJ037
1559.62	0.515	1992287	REC_WORD	0.515	n/a	LAMB	-999	13	n/a	n/a	pyFR	0	TJ037
1560.135	0.35	1992802	REC_WORD	0.35	n/a	FOOD	-999	13	n/a	n/a	pyFR	0	TJ037
1560.485	4.366	1993152	REC_WORD	4.366	n/a	SALT	-999	13	n/a	n/a	pyFR	0	TJ037
1564.851	0.975	1997518	REC_WORD	0.975	n/a	HALL	-999	13	n/a	n/a	pyFR	0	TJ037
1565.826	6.812	1998493	REC_WORD	6.812	n/a	CAKE	-999	13	n/a	n/a	pyFR	0	TJ037
1572.638	7.082	2005305	REC_WORD	7.082	n/a	HOLE	-999	13	n/a	n/a	pyFR	0	TJ037
1579.72	17.928	2012387	REC_WORD	17.928	n/a	FORK	-999	13	n/a	n/a	pyFR	0	TJ037
1597.648	0.015	2030315	TRIAL	n/a	n/a	n/a	-999	14	n/a	n/a	pyFR	0	TJ037
1597.663	2.771	2030330	ORIENT	n/a	n/a	n/a	-999	14	n/a	n/a	pyFR	0	TJ037
1600.434	2.669	2033101	WORD	n/a	wordpools/wordpool_EN.txt	FOAM	1	14	n/a	n/a	pyFR	0	TJ037
1603.103	2.805	2035770	WORD	n/a	wordpools/wordpool_EN.txt	CRANE	2	14	n/a	n/a	pyFR	0	TJ037
1605.908	2.788	2038575	WORD	n/a	wordpools/wordpool_EN.txt	BOOT	3	14	n/a	n/a	pyFR	0	TJ037
1608.696	2.72	2041362	WORD	n/a	wordpools/wordpool_EN.txt	PIG	4	14	n/a	n/a	pyFR	0	TJ037
1611.416	2.487	2044082	WORD	n/a	wordpools/wordpool_EN.txt	TRAIN	5	14	n/a	n/a	pyFR	0	TJ037
1613.903	2.587	2046569	WORD	n/a	wordpools/wordpool_EN.txt	SHARK	6	14	n/a	n/a	pyFR	0	TJ037
1616.49	2.736	2049156	WORD	n/a	wordpools/wordpool_EN.txt	BAND	7	14	n/a	n/a	pyFR	0	TJ037
1619.226	2.738	2051892	WORD	n/a	wordpools/wordpool_EN.txt	WORLD	8	14	n/a	n/a	pyFR	0	TJ037
1621.964	2.437	2054630	WORD	n/a	wordpools/wordpool_EN.txt	SEED	9	14	n/a	n/a	pyFR	0	TJ037
1624.401	2.787	2057067	WORD	n/a	wordpools/wordpool_EN.txt	PRINCE	10	14	n/a	n/a	pyFR	0	TJ037
1627.188	2.471	2059854	WORD	n/a	wordpools/wordpool_EN.txt	CHAIR	11	14	n/a	n/a	pyFR	0	TJ037
1629.659	2.77	2062325	WORD	n/a	wordpools/wordpool_EN.txt	CLOUD	12	14	n/a	n/a	pyFR	0	TJ037
1632.429	2.52	2065095	WORD	n/a	wordpools/wordpool_EN.txt	MAP	13	14	n/a	n/a	pyFR	0	TJ037
1634.949	2.504	2067615	WORD	n/a	wordpools/wordpool_EN.txt	PLANT	14	14	n/a	n/a	pyFR	0	TJ037
1637.453	1.603	2070119	WORD	n/a	wordpools/wordpool_EN.txt	VEST	15	14	n/a	n/a	pyFR	0	TJ037
1639.056	1.083	n/a	START	n/a	n/a	n/a	n/a	14	[-999 -999 -999]	-999	pyFR	0	TJ037
1640.139	3.923	n/a	PROB	n/a	n/a	n/a	n/a	14	[4 5 7]	16	pyFR	0	TJ037
1644.062	3.823	n/a	PROB	n/a	n/a	n/a	n/a	14	[4 9 3]	16	pyFR	0	TJ037
1647.885	5.223	n/a	PROB	n/a	n/a	n/a	n/a	14	[2 5 1]	8	pyFR	0	TJ037
1653.108	8.106	n/a	PROB	n/a	n/a	n/a	n/a	14	[1 4 1]	6	pyFR	0	TJ037
1661.214	1.158	n/a	STOP	n/a	n/a	n/a	n/a	14	[-999 -999 -999]	-999	pyFR	0	TJ037
1662.372	1.359	2095038	REC_START	n/a	n/a	n/a	-999	14	n/a	n/a	pyFR	0	TJ037
1663.731	0.561	2096397	REC_WORD_VV	0.561	n/a	VV	-999	14	n/a	n/a	pyFR	0	TJ037
1664.292	1.979	2096958	REC_WORD	1.979	n/a	FOOD	-999	14	n/a	n/a	pyFR	0	TJ037
1666.271	0.465	2098937	REC_WORD	0.465	n/a	FOOD	-999	14	n/a	n/a	pyFR	0	TJ037
1666.736	0.984	2099402	REC_WORD	0.984	n/a	CRANE	-999	14	n/a	n/a	pyFR	0	TJ037
1667.72	1.333	2100386	REC_WORD	1.333	n/a	PLATE	-999	14	n/a	n/a	pyFR	0	TJ037
1669.053	4.497	2101719	REC_WORD	4.497	n/a	FIG	-999	14	n/a	n/a	pyFR	0	TJ037
1673.55	7.291	2106216	REC_WORD	7.291	n/a	TRACK	-999	14	n/a	n/a	pyFR	0	TJ037
1680.841	1.639	2113507	REC_WORD	1.639	n/a	EDGE	-999	14	n/a	n/a	pyFR	0	TJ037
1682.48	6.383	2115146	REC_WORD	6.383	n/a	CRANE	-999	14	n/a	n/a	pyFR	0	TJ037
1688.863	0.236	2121529	REC_WORD_VV	0.236	n/a	VV	-999	14	n/a	n/a	pyFR	0	TJ037
1689.099	7.841	2121765	REC_WORD	7.841	n/a	OWL	-999	14	n/a	n/a	pyFR	0	TJ037
1696.94	1.0	2129606	REC_WORD	1.0	n/a	PLATE	-999	14	n/a	n/a	pyFR	0	TJ037
1697.94	0.748	2130606	REC_WORD_VV	0.748	n/a	VV	-999	14	n/a	n/a	pyFR	0	TJ037
1698.688	1.0	2131354	REC_WORD	1.0	n/a	PLATE	-999	14	n/a	n/a	pyFR	0	TJ037
1699.688	1.0	2132354	REC_WORD_VV	1.0	n/a	VV	-999	14	n/a	n/a	pyFR	0	TJ037
1700.688	15.828	2133354	REC_WORD_VV	15.828	n/a	VV	-999	14	n/a	n/a	pyFR	0	TJ037
1716.516	0.016	2149182	TRIAL	n/a	n/a	n/a	-999	15	n/a	n/a	pyFR	0	TJ037
1716.532	2.954	2149198	ORIENT	n/a	n/a	n/a	-999	15	n/a	n/a	pyFR	0	TJ037
1719.486	2.519	2152152	WORD	n/a	wordpools/wordpool_EN.txt	BREAD	1	15	n/a	n/a	pyFR	0	TJ037
1722.005	2.455	2154671	WORD	n/a	wordpools/wordpool_EN.txt	STRING	2	15	n/a	n/a	pyFR	0	TJ037
1724.46	2.552	2157126	WORD	n/a	wordpools/wordpool_EN.txt	STEAM	3	15	n/a	n/a	pyFR	0	TJ037
1727.012	2.672	2159678	WORD	n/a	wordpools/wordpool_EN.txt	STONE	4	15	n/a	n/a	pyFR	0	TJ037
1729.684	2.604	2162350	WORD	n/a	wordpools/wordpool_EN.txt	JUDGE	5	15	n/a	n/a	pyFR	0	TJ037
1732.288	2.603	2164954	WORD	n/a	wordpools/wordpool_EN.txt	GOLD	6	15	n/a	n/a	pyFR	0	TJ037
1734.891	2.537	2167557	WORD	n/a	wordpools/wordpool_EN.txt	HEART	7	15	n/a	n/a	pyFR	0	TJ037
1737.428	2.487	2170094	WORD	n/a	wordpools/wordpool_EN.txt	ROOT	8	15	n/a	n/a	pyFR	0	TJ037
1739.915	2.804	2172581	WORD	n/a	wordpools/wordpool_EN.txt	VASE	9	15	n/a	n/a	pyFR	0	TJ037
1742.719	2.587	2175385	WORD	n/a	wordpools/wordpool_EN.txt	BRIDGE	10	15	n/a	n/a	pyFR	0	TJ037
1745.306	2.503	2177972	WORD	n/a	wordpools/wordpool_EN.txt	JAR	11	15	n/a	n/a	pyFR	0	TJ037
1747.809	2.604	2180475	WORD	n/a	wordpools/wordpool_EN.txt	WEED	12	15	n/a	n/a	pyFR	0	TJ037
1750.413	2.586	2183079	WORD	n/a	wordpools/wordpool_EN.txt	BLUSH	13	15	n/a	n/a	pyFR	0	TJ037
1752.999	2.605	2185665	WORD	n/a	wordpools/wordpool_EN.txt	FOG	14	15	n/a	n/a	pyFR	0	TJ037
1755.604	1.619	2188270	WORD	n/a	wordpools/wordpool_EN.txt	FLAME	15	15	n/a	n/a	pyFR	0	TJ037
1757.223	0.817	n/a	START	n/a	n/a	n/a	n/a	15	[-999 -999 -999]	-999	pyFR	0	TJ037
1758.04	3.439	n/a	PROB	n/a	n/a	n/a	n/a	15	[3 8 3]	14	pyFR	0	TJ037
1761.479	3.571	n/a	PROB	n/a	n/a	n/a	n/a	15	[5 6 8]	19	pyFR	0	TJ037
1765.05	3.922	n/a	PROB	n/a	n/a	n/a	n/a	15	[9 2 7]	18	pyFR	0	TJ037
1768.972	2.938	n/a	PROB	n/a	n/a	n/a	n/a	15	[9 5 4]	18	pyFR	0	TJ037
1771.91	7.462	n/a	PROB	n/a	n/a	n/a	n/a	15	[9 8 7]	24	pyFR	0	TJ037
1779.372	1.29	n/a	STOP	n/a	n/a	n/a	n/a	15	[-999 -999 -999]	-999	pyFR	0	TJ037
1780.662	1.095	2213327	REC_START	n/a	n/a	n/a	-999	15	n/a	n/a	pyFR	0	TJ037
1781.757	1.0	2214422	REC_WORD_VV	1.0	n/a	VV	-999	15	n/a	n/a	pyFR	0	TJ037
1782.757	1.769	2215422	REC_WORD_VV	1.769	n/a	VV	-999	15	n/a	n/a	pyFR	0	TJ037
1784.526	0.524	2217191	REC_WORD	0.524	n/a	JOB	-999	15	n/a	n/a	pyFR	0	TJ037
1785.05	5.382	2217715	REC_WORD	5.382	n/a	HOLE	-999	15	n/a	n/a	pyFR	0	TJ037
1790.432	2.063	2223097	REC_WORD_VV	2.063	n/a	VV	-999	15	n/a	n/a	pyFR	0	TJ037
1792.495	1.374	2225160	REC_WORD	1.374	n/a	SILK	-999	15	n/a	n/a	pyFR	0	TJ037
1793.869	3.228	2226534	REC_WORD	3.228	n/a	WEED	-999	15	n/a	n/a	pyFR	0	TJ037
1797.097	4.714	2229762	REC_WORD_VV	4.714	n/a	VV	-999	15	n/a	n/a	pyFR	0	TJ037
1801.811	0.546	2234476	REC_WORD	0.546	n/a	CRANE	-999	15	n/a	n/a	pyFR	0	TJ037
1802.357	0.867	2235022	REC_WORD	0.867	n/a	SKILL	-999	15	n/a	n/a	pyFR	0	TJ037
1803.224	5.624	2235889	REC_WORD	5.624	n/a	PLATE	-999	15	n/a	n/a	pyFR	0	TJ037
1808.848	4.854	2241513	REC_WORD_VV	4.854	n/a	VV	-999	15	n/a	n/a	pyFR	0	TJ037
1813.702	1.0	2246367	REC_WORD_VV	1.0	n/a	VV	-999	15	n/a	n/a	pyFR	0	TJ037
1814.702	13.271	2247367	REC_WORD_VV	13.271	n/a	VV	-999	15	n/a	n/a	pyFR	0	TJ037
1827.973	0.016	2260638	TRIAL	n/a	n/a	n/a	-999	16	n/a	n/a	pyFR	0	TJ037
1827.989	2.888	2260654	ORIENT	n/a	n/a	n/a	-999	16	n/a	n/a	pyFR	0	TJ037
1830.877	2.721	2263542	WORD	n/a	wordpools/wordpool_EN.txt	NET	1	16	n/a	n/a	pyFR	0	TJ037
1833.598	2.669	2266263	WORD	n/a	wordpools/wordpool_EN.txt	DIME	2	16	n/a	n/a	pyFR	0	TJ037
1836.267	2.638	2268932	WORD	n/a	wordpools/wordpool_EN.txt	TOAD	3	16	n/a	n/a	pyFR	0	TJ037
1838.905	2.454	2271570	WORD	n/a	wordpools/wordpool_EN.txt	NOSE	4	16	n/a	n/a	pyFR	0	TJ037
1841.359	2.786	2274024	WORD	n/a	wordpools/wordpool_EN.txt	SIGN	5	16	n/a	n/a	pyFR	0	TJ037
1844.145	2.438	2276810	WORD	n/a	wordpools/wordpool_EN.txt	TEETH	6	16	n/a	n/a	pyFR	0	TJ037
1846.583	2.787	2279248	WORD	n/a	wordpools/wordpool_EN.txt	ZOO	7	16	n/a	n/a	pyFR	0	TJ037
1849.37	2.736	2282035	WORD	n/a	wordpools/wordpool_EN.txt	STEM	8	16	n/a	n/a	pyFR	0	TJ037
1852.106	2.655	2284771	WORD	n/a	wordpools/wordpool_EN.txt	PLATE	9	16	n/a	n/a	pyFR	0	TJ037
1854.761	2.721	2287426	WORD	n/a	wordpools/wordpool_EN.txt	SPONGE	10	16	n/a	n/a	pyFR	0	TJ037
1857.482	2.736	2290147	WORD	n/a	wordpools/wordpool_EN.txt	BIRD	11	16	n/a	n/a	pyFR	0	TJ037
1860.218	2.737	2292883	WORD	n/a	wordpools/wordpool_EN.txt	APE	12	16	n/a	n/a	pyFR	0	TJ037
1862.955	2.705	2295620	WORD	n/a	wordpools/wordpool_EN.txt	PHONE	13	16	n/a	n/a	pyFR	0	TJ037
1865.66	2.837	2298325	WORD	n/a	wordpools/wordpool_EN.txt	HOOF	14	16	n/a	n/a	pyFR	0	TJ037
1868.497	1.603	2301162	WORD	n/a	wordpools/wordpool_EN.txt	PARK	15	16	n/a	n/a	pyFR	0	TJ037
1870.1	0.933	n/a	START	n/a	n/a	n/a	n/a	16	[-999 -999 -999]	-999	pyFR	0	TJ037
1871.033	3.639	n/a	PROB	n/a	n/a	n/a	n/a	16	[7 9 9]	25	pyFR	0	TJ037
1874.672	3.672	n/a	PROB	n/a	n/a	n/a	n/a	16	[9 7 4]	20	pyFR	0	TJ037
1878.344	3.872	n/a	PROB	n/a	n/a	n/a	n/a	16	[7 4 6]	17	pyFR	0	TJ037
1882.216	5.125	n/a	PROB	n/a	n/a	n/a	n/a	16	[1 8 7]	26	pyFR	0	TJ037
1887.341	4.283	n/a	PROB	n/a	n/a	n/a	n/a	16	[6 4 5]	15	pyFR	0	TJ037
1891.624	1.225	n/a	STOP	n/a	n/a	n/a	n/a	16	[-999 -999 -999]	-999	pyFR	0	TJ037
1892.849	0.54	2325514	REC_START	n/a	n/a	n/a	-999	16	n/a	n/a	pyFR	0	TJ037
1893.389	0.55	2326054	REC_WORD	0.55	n/a	NET	-999	16	n/a	n/a	pyFR	0	TJ037
1893.939	1.509	2326604	REC_WORD	1.509	n/a	DIME	-999	16	n/a	n/a	pyFR	0	TJ037
1895.448	0.508	2328113	REC_WORD	0.508	n/a	HOSE	-999	16	n/a	n/a	pyFR	0	TJ037
1895.956	0.465	2328621	REC_WORD	0.465	n/a	TOAD	-999	16	n/a	n/a	pyFR	0	TJ037
1896.421	3.287	2329086	REC_WORD	3.287	n/a	NOSE	-999	16	n/a	n/a	pyFR	0	TJ037
1899.708	2.911	2332373	REC_WORD_VV	2.911	n/a	VV	-999	16	n/a	n/a	pyFR	0	TJ037
1902.619	9.026	2335284	REC_WORD	9.026	n/a	FLOAT	-999	16	n/a	n/a	pyFR	0	TJ037
1911.645	2.599	2344310	REC_WORD	2.599	n/a	CAR	-999	16	n/a	n/a	pyFR	0	TJ037
1914.244	6.054	2346909	REC_WORD	6.054	n/a	CRATE	-999	16	n/a	n/a	pyFR	0	TJ037
1920.298	1.0	2352963	REC_WORD_VV	1.0	n/a	VV	-999	16	n/a	n/a	pyFR	0	TJ037
1921.298	564.292	2353963	REC_WORD_VV	564.292	n/a	VV	-999	16	n/a	n/a	pyFR	0	TJ037
2485.59	0.139	2918251	SESS_END	n/a	n/a	n/a	-999	-999	n/a	n/a	pyFR	0	TJ037
2485.729	0.0	2918390	E	n/a	n/a	n/a	-999	-999	n/a	n/a	pyFR	0	TJ037
