onset	duration	sample	trial_type	response_time	stim_file	item_name	serialpos	list	test	answer	experiment	session	subject
0.0	0.001	627004	B	n/a	n/a	n/a	-999	-999	n/a	n/a	pyFR	2	TJ048
0.001	145.538	627005	SESS_START	n/a	n/a	n/a	-999	-999	n/a	n/a	pyFR	2	TJ048
145.539	0.033	772542	START	n/a	n/a	n/a	n/a	0	[-999 -999 -999]	-999	pyFR	2	TJ048
145.572	28.556	772575	PROB	n/a	n/a	n/a	n/a	0	[9 9 8]	27	pyFR	2	TJ048
174.128	7.054	801131	PROB	n/a	n/a	n/a	n/a	0	[2 8 8]	18	pyFR	2	TJ048
181.182	25.195	808185	STOP	n/a	n/a	n/a	n/a	0	[-999 -999 -999]	-999	pyFR	2	TJ048
206.377	0.016	833380	TRIAL	n/a	n/a	n/a	-999	1	n/a	n/a	pyFR	2	TJ048
206.393	2.806	833396	ORIENT	n/a	n/a	n/a	-999	1	n/a	n/a	pyFR	2	TJ048
209.199	2.688	836202	WORD	n/a	wordpools/wordpool_EN.txt	SIGN	1	1	n/a	n/a	pyFR	2	TJ048
211.887	2.455	838890	WORD	n/a	wordpools/wordpool_EN.txt	EAR	2	1	n/a	n/a	pyFR	2	TJ048
214.342	2.722	841345	WORD	n/a	wordpools/wordpool_EN.txt	DRUM	3	1	n/a	n/a	pyFR	2	TJ048
217.064	2.739	844067	WORD	n/a	wordpools/wordpool_EN.txt	SPRING	4	1	n/a	n/a	pyFR	2	TJ048
219.803	2.723	846806	WORD	n/a	wordpools/wordpool_EN.txt	BANK	5	1	n/a	n/a	pyFR	2	TJ048
222.526	2.755	849529	WORD	n/a	wordpools/wordpool_EN.txt	FARM	6	1	n/a	n/a	pyFR	2	TJ048
225.281	2.805	852284	WORD	n/a	wordpools/wordpool_EN.txt	TRASH	7	1	n/a	n/a	pyFR	2	TJ048
228.086	2.723	855089	WORD	n/a	wordpools/wordpool_EN.txt	SHRIMP	8	1	n/a	n/a	pyFR	2	TJ048
230.809	2.455	857812	WORD	n/a	wordpools/wordpool_EN.txt	MOUTH	9	1	n/a	n/a	pyFR	2	TJ048
233.264	2.722	860267	WORD	n/a	wordpools/wordpool_EN.txt	SOAP	10	1	n/a	n/a	pyFR	2	TJ048
235.986	2.755	862988	WORD	n/a	wordpools/wordpool_EN.txt	BLUSH	11	1	n/a	n/a	pyFR	2	TJ048
238.741	2.622	865743	WORD	n/a	wordpools/wordpool_EN.txt	LAWN	12	1	n/a	n/a	pyFR	2	TJ048
241.363	2.689	868365	WORD	n/a	wordpools/wordpool_EN.txt	TRAY	13	1	n/a	n/a	pyFR	2	TJ048
244.052	2.655	871054	WORD	n/a	wordpools/wordpool_EN.txt	PEARL	14	1	n/a	n/a	pyFR	2	TJ048
246.707	1.621	873709	WORD	n/a	wordpools/wordpool_EN.txt	ROOF	15	1	n/a	n/a	pyFR	2	TJ048
248.328	1.068	875330	START	n/a	n/a	n/a	n/a	1	[-999 -999 -999]	-999	pyFR	2	TJ048
249.396	4.676	876398	PROB	n/a	n/a	n/a	n/a	1	[8 8 8]	24	pyFR	2	TJ048
254.072	4.926	881074	PROB	n/a	n/a	n/a	n/a	1	[4 8 8]	20	pyFR	2	TJ048
258.998	2.288	886000	PROB	n/a	n/a	n/a	n/a	1	[9 9 4]	22	pyFR	2	TJ048
261.286	3.424	888288	PROB	n/a	n/a	n/a	n/a	1	[2 7 9]	18	pyFR	2	TJ048
264.71	3.006	891712	PROB	n/a	n/a	n/a	n/a	1	[7 2 8]	17	pyFR	2	TJ048
267.716	1.744	894718	PROB	n/a	n/a	n/a	n/a	1	[2 8 2]	12	pyFR	2	TJ048
269.46	1.246	896462	STOP	n/a	n/a	n/a	n/a	1	[-999 -999 -999]	-999	pyFR	2	TJ048
270.706	1.212	897708	REC_START	n/a	n/a	n/a	-999	1	n/a	n/a	pyFR	2	TJ048
271.918	1.211	898920	REC_WORD_VV	1.211	n/a	<>	-999	1	n/a	n/a	pyFR	2	TJ048
273.129	1.392	900131	REC_WORD	1.392	n/a	SIGN	-999	1	n/a	n/a	pyFR	2	TJ048
274.521	0.712	901523	REC_WORD	0.712	n/a	EAR	-999	1	n/a	n/a	pyFR	2	TJ048
275.233	0.757	902235	REC_WORD	0.757	n/a	BANK	-999	1	n/a	n/a	pyFR	2	TJ048
275.99	2.504	902992	REC_WORD	2.504	n/a	ROOF	-999	1	n/a	n/a	pyFR	2	TJ048
278.494	10.022	905496	REC_WORD_VV	10.022	n/a	<>	-999	1	n/a	n/a	pyFR	2	TJ048
288.516	4.712	915518	REC_WORD_VV	4.712	n/a	<>	-999	1	n/a	n/a	pyFR	2	TJ048
293.228	18.136	920230	REC_WORD_VV	18.136	n/a	<>	-999	1	n/a	n/a	pyFR	2	TJ048
311.364	18.294	938366	REC_WORD_VV	18.294	n/a	<>	-999	1	n/a	n/a	pyFR	2	TJ048
329.658	0.015	956660	TRIAL	n/a	n/a	n/a	-999	2	n/a	n/a	pyFR	2	TJ048
329.673	2.807	956675	ORIENT	n/a	n/a	n/a	-999	2	n/a	n/a	pyFR	2	TJ048
332.48	2.754	959482	WORD	n/a	wordpools/wordpool_EN.txt	MOON	1	2	n/a	n/a	pyFR	2	TJ048
335.234	2.773	962236	WORD	n/a	wordpools/wordpool_EN.txt	ROPE	2	2	n/a	n/a	pyFR	2	TJ048
338.007	2.722	965009	WORD	n/a	wordpools/wordpool_EN.txt	FORT	3	2	n/a	n/a	pyFR	2	TJ048
340.729	2.688	967731	WORD	n/a	wordpools/wordpool_EN.txt	QUEEN	4	2	n/a	n/a	pyFR	2	TJ048
343.417	2.572	970419	WORD	n/a	wordpools/wordpool_EN.txt	SHELL	5	2	n/a	n/a	pyFR	2	TJ048
345.989	2.455	972991	WORD	n/a	wordpools/wordpool_EN.txt	FORK	6	2	n/a	n/a	pyFR	2	TJ048
348.444	2.689	975446	WORD	n/a	wordpools/wordpool_EN.txt	HORSE	7	2	n/a	n/a	pyFR	2	TJ048
351.133	2.439	978135	WORD	n/a	wordpools/wordpool_EN.txt	SNOW	8	2	n/a	n/a	pyFR	2	TJ048
353.572	2.487	980574	WORD	n/a	wordpools/wordpool_EN.txt	SNAIL	9	2	n/a	n/a	pyFR	2	TJ048
356.059	2.572	983061	WORD	n/a	wordpools/wordpool_EN.txt	VEST	10	2	n/a	n/a	pyFR	2	TJ048
358.631	2.706	985633	WORD	n/a	wordpools/wordpool_EN.txt	FENCE	11	2	n/a	n/a	pyFR	2	TJ048
361.337	2.755	988339	WORD	n/a	wordpools/wordpool_EN.txt	BATH	12	2	n/a	n/a	pyFR	2	TJ048
364.092	2.622	991094	WORD	n/a	wordpools/wordpool_EN.txt	SAIL	13	2	n/a	n/a	pyFR	2	TJ048
366.714	2.639	993716	WORD	n/a	wordpools/wordpool_EN.txt	SOUP	14	2	n/a	n/a	pyFR	2	TJ048
369.353	1.621	996355	WORD	n/a	wordpools/wordpool_EN.txt	LEAF	15	2	n/a	n/a	pyFR	2	TJ048
370.974	0.917	997976	START	n/a	n/a	n/a	n/a	2	[-999 -999 -999]	-999	pyFR	2	TJ048
371.891	3.592	998893	PROB	n/a	n/a	n/a	n/a	2	[8 9 5]	22	pyFR	2	TJ048
375.483	2.888	1002485	PROB	n/a	n/a	n/a	n/a	2	[8 4 1]	13	pyFR	2	TJ048
378.371	3.607	1005373	PROB	n/a	n/a	n/a	n/a	2	[4 1 3]	8	pyFR	2	TJ048
381.978	3.273	1008980	PROB	n/a	n/a	n/a	n/a	2	[7 1 4]	12	pyFR	2	TJ048
385.251	4.276	1012253	PROB	n/a	n/a	n/a	n/a	2	[4 9 9]	22	pyFR	2	TJ048
389.527	3.049	1016529	PROB	n/a	n/a	n/a	n/a	2	[1 9 8]	18	pyFR	2	TJ048
392.576	1.093	1019578	STOP	n/a	n/a	n/a	n/a	2	[-999 -999 -999]	-999	pyFR	2	TJ048
393.669	1.34	1020671	REC_START	n/a	n/a	n/a	-999	2	n/a	n/a	pyFR	2	TJ048
395.009	2.302	1022010	REC_WORD	2.302	n/a	QUEEN	-999	2	n/a	n/a	pyFR	2	TJ048
397.311	1.597	1024312	REC_WORD_VV	1.597	n/a	<>	-999	2	n/a	n/a	pyFR	2	TJ048
398.908	1.25	1025909	REC_WORD	1.25	n/a	FENCE	-999	2	n/a	n/a	pyFR	2	TJ048
400.158	4.291	1027159	REC_WORD	4.291	n/a	SAIL	-999	2	n/a	n/a	pyFR	2	TJ048
404.449	3.947	1031450	REC_WORD_VV	3.947	n/a	<>	-999	2	n/a	n/a	pyFR	2	TJ048
408.396	1.0	1035397	REC_WORD_VV	1.0	n/a	<>	-999	2	n/a	n/a	pyFR	2	TJ048
409.396	2.524	1036397	REC_WORD_VV	2.524	n/a	<>	-999	2	n/a	n/a	pyFR	2	TJ048
411.92	5.17	1038921	REC_WORD	5.17	n/a	SHELL	-999	2	n/a	n/a	pyFR	2	TJ048
417.09	2.172	1044091	REC_WORD	2.172	n/a	HORSE	-999	2	n/a	n/a	pyFR	2	TJ048
419.262	14.587	1046263	REC_WORD	14.587	n/a	FENCE	-999	2	n/a	n/a	pyFR	2	TJ048
433.849	7.399	1060850	REC_WORD_VV	7.399	n/a	<>	-999	2	n/a	n/a	pyFR	2	TJ048
441.248	0.015	1068249	TRIAL	n/a	n/a	n/a	-999	3	n/a	n/a	pyFR	2	TJ048
441.263	2.672	1068264	ORIENT	n/a	n/a	n/a	-999	3	n/a	n/a	pyFR	2	TJ048
443.935	2.823	1070936	WORD	n/a	wordpools/wordpool_EN.txt	RAT	1	3	n/a	n/a	pyFR	2	TJ048
446.758	2.655	1073759	WORD	n/a	wordpools/wordpool_EN.txt	GUARD	2	3	n/a	n/a	pyFR	2	TJ048
449.413	2.622	1076414	WORD	n/a	wordpools/wordpool_EN.txt	PIE	3	3	n/a	n/a	pyFR	2	TJ048
452.035	2.456	1079036	WORD	n/a	wordpools/wordpool_EN.txt	ARM	4	3	n/a	n/a	pyFR	2	TJ048
454.491	2.521	1081492	WORD	n/a	wordpools/wordpool_EN.txt	HEART	5	3	n/a	n/a	pyFR	2	TJ048
457.012	2.539	1084013	WORD	n/a	wordpools/wordpool_EN.txt	DOOR	6	3	n/a	n/a	pyFR	2	TJ048
459.551	2.521	1086552	WORD	n/a	wordpools/wordpool_EN.txt	FLEA	7	3	n/a	n/a	pyFR	2	TJ048
462.072	2.822	1089073	WORD	n/a	wordpools/wordpool_EN.txt	GOAT	8	3	n/a	n/a	pyFR	2	TJ048
464.894	2.488	1091895	WORD	n/a	wordpools/wordpool_EN.txt	LIP	9	3	n/a	n/a	pyFR	2	TJ048
467.382	2.622	1094383	WORD	n/a	wordpools/wordpool_EN.txt	CAKE	10	3	n/a	n/a	pyFR	2	TJ048
470.004	2.589	1097005	WORD	n/a	wordpools/wordpool_EN.txt	POND	11	3	n/a	n/a	pyFR	2	TJ048
472.593	2.672	1099594	WORD	n/a	wordpools/wordpool_EN.txt	MAT	12	3	n/a	n/a	pyFR	2	TJ048
475.265	2.488	1102266	WORD	n/a	wordpools/wordpool_EN.txt	LAKE	13	3	n/a	n/a	pyFR	2	TJ048
477.753	2.773	1104754	WORD	n/a	wordpools/wordpool_EN.txt	THUMB	14	3	n/a	n/a	pyFR	2	TJ048
480.526	1.62	1107527	WORD	n/a	wordpools/wordpool_EN.txt	GIRL	15	3	n/a	n/a	pyFR	2	TJ048
482.146	1.135	1109147	START	n/a	n/a	n/a	n/a	3	[-999 -999 -999]	-999	pyFR	2	TJ048
483.281	2.956	1110282	PROB	n/a	n/a	n/a	n/a	3	[3 6 1]	10	pyFR	2	TJ048
486.237	4.074	1113238	PROB	n/a	n/a	n/a	n/a	3	[7 1 5]	16	pyFR	2	TJ048
490.311	5.612	1117312	PROB	n/a	n/a	n/a	n/a	3	[2 9 8]	19	pyFR	2	TJ048
495.923	1.92	1122924	PROB	n/a	n/a	n/a	n/a	3	[1 4 6]	11	pyFR	2	TJ048
497.843	2.789	1124844	PROB	n/a	n/a	n/a	n/a	3	[3 1 6]	10	pyFR	2	TJ048
500.632	2.708	1127633	PROB	n/a	n/a	n/a	n/a	3	[9 8 2]	19	pyFR	2	TJ048
503.34	1.084	1130341	STOP	n/a	n/a	n/a	n/a	3	[-999 -999 -999]	-999	pyFR	2	TJ048
504.424	1.163	1131425	REC_START	n/a	n/a	n/a	-999	3	n/a	n/a	pyFR	2	TJ048
505.587	0.824	1132588	REC_WORD_VV	0.824	n/a	<>	-999	3	n/a	n/a	pyFR	2	TJ048
506.411	5.705	1133412	REC_WORD	5.705	n/a	DOOR	-999	3	n/a	n/a	pyFR	2	TJ048
512.116	1.0	1139117	REC_WORD_VV	1.0	n/a	<>	-999	3	n/a	n/a	pyFR	2	TJ048
513.116	4.397	1140117	REC_WORD_VV	4.397	n/a	<>	-999	3	n/a	n/a	pyFR	2	TJ048
517.513	0.548	1144514	REC_WORD	0.548	n/a	DOOR	-999	3	n/a	n/a	pyFR	2	TJ048
518.061	0.68	1145062	REC_WORD	0.68	n/a	RAT	-999	3	n/a	n/a	pyFR	2	TJ048
518.741	3.024	1145742	REC_WORD	3.024	n/a	MAT	-999	3	n/a	n/a	pyFR	2	TJ048
521.765	6.354	1148766	REC_WORD_VV	6.354	n/a	<>	-999	3	n/a	n/a	pyFR	2	TJ048
528.119	2.37	1155120	REC_WORD_VV	2.37	n/a	<>	-999	3	n/a	n/a	pyFR	2	TJ048
530.489	10.737	1157490	REC_WORD	10.737	n/a	SHELL	-999	3	n/a	n/a	pyFR	2	TJ048
541.226	11.127	1168227	REC_WORD_VV	11.127	n/a	<>	-999	3	n/a	n/a	pyFR	2	TJ048
552.353	0.016	1179354	TRIAL	n/a	n/a	n/a	-999	4	n/a	n/a	pyFR	2	TJ048
552.369	2.789	1179370	ORIENT	n/a	n/a	n/a	-999	4	n/a	n/a	pyFR	2	TJ048
555.158	2.755	1182158	WORD	n/a	wordpools/wordpool_EN.txt	ROSE	1	4	n/a	n/a	pyFR	2	TJ048
557.913	2.472	1184913	WORD	n/a	wordpools/wordpool_EN.txt	RUG	2	4	n/a	n/a	pyFR	2	TJ048
560.385	2.839	1187385	WORD	n/a	wordpools/wordpool_EN.txt	STAIR	3	4	n/a	n/a	pyFR	2	TJ048
563.224	2.772	1190224	WORD	n/a	wordpools/wordpool_EN.txt	SHIRT	4	4	n/a	n/a	pyFR	2	TJ048
565.996	2.706	1192996	WORD	n/a	wordpools/wordpool_EN.txt	BUSH	5	4	n/a	n/a	pyFR	2	TJ048
568.702	2.538	1195702	WORD	n/a	wordpools/wordpool_EN.txt	VINE	6	4	n/a	n/a	pyFR	2	TJ048
571.24	2.806	1198240	WORD	n/a	wordpools/wordpool_EN.txt	SPONGE	7	4	n/a	n/a	pyFR	2	TJ048
574.046	2.739	1201046	WORD	n/a	wordpools/wordpool_EN.txt	DART	8	4	n/a	n/a	pyFR	2	TJ048
576.785	2.805	1203785	WORD	n/a	wordpools/wordpool_EN.txt	STREET	9	4	n/a	n/a	pyFR	2	TJ048
579.59	2.539	1206590	WORD	n/a	wordpools/wordpool_EN.txt	PURSE	10	4	n/a	n/a	pyFR	2	TJ048
582.129	2.555	1209129	WORD	n/a	wordpools/wordpool_EN.txt	MUG	11	4	n/a	n/a	pyFR	2	TJ048
584.684	2.605	1211684	WORD	n/a	wordpools/wordpool_EN.txt	SHEET	12	4	n/a	n/a	pyFR	2	TJ048
587.289	2.538	1214289	WORD	n/a	wordpools/wordpool_EN.txt	SHEEP	13	4	n/a	n/a	pyFR	2	TJ048
589.827	2.806	1216827	WORD	n/a	wordpools/wordpool_EN.txt	CLOCK	14	4	n/a	n/a	pyFR	2	TJ048
592.633	1.621	1219633	WORD	n/a	wordpools/wordpool_EN.txt	DOG	15	4	n/a	n/a	pyFR	2	TJ048
594.254	0.851	1221254	START	n/a	n/a	n/a	n/a	4	[-999 -999 -999]	-999	pyFR	2	TJ048
595.105	2.154	1222105	PROB	n/a	n/a	n/a	n/a	4	[1 2 8]	11	pyFR	2	TJ048
597.259	2.639	1224259	PROB	n/a	n/a	n/a	n/a	4	[4 5 2]	11	pyFR	2	TJ048
599.898	1.604	1226898	PROB	n/a	n/a	n/a	n/a	4	[3 5 5]	13	pyFR	2	TJ048
601.502	2.303	1228502	PROB	n/a	n/a	n/a	n/a	4	[8 4 6]	18	pyFR	2	TJ048
603.805	3.14	1230805	PROB	n/a	n/a	n/a	n/a	4	[2 2 3]	7	pyFR	2	TJ048
606.945	2.254	1233945	PROB	n/a	n/a	n/a	n/a	4	[4 3 2]	9	pyFR	2	TJ048
609.199	2.373	1236199	PROB	n/a	n/a	n/a	n/a	4	[7 6 4]	17	pyFR	2	TJ048
611.572	3.596	1238572	PROB	n/a	n/a	n/a	n/a	4	[2 4 2]	8	pyFR	2	TJ048
615.168	1.23	1242168	STOP	n/a	n/a	n/a	n/a	4	[-999 -999 -999]	-999	pyFR	2	TJ048
616.398	1.394	1243398	REC_START	n/a	n/a	n/a	-999	4	n/a	n/a	pyFR	2	TJ048
617.792	2.507	1244792	REC_WORD_VV	2.507	n/a	<>	-999	4	n/a	n/a	pyFR	2	TJ048
620.299	2.346	1247299	REC_WORD	2.346	n/a	ROSE	-999	4	n/a	n/a	pyFR	2	TJ048
622.645	1.123	1249645	REC_WORD	1.123	n/a	BUSH	-999	4	n/a	n/a	pyFR	2	TJ048
623.768	0.737	1250768	REC_WORD_VV	0.737	n/a	<>	-999	4	n/a	n/a	pyFR	2	TJ048
624.505	2.477	1251505	REC_WORD	2.477	n/a	VINE	-999	4	n/a	n/a	pyFR	2	TJ048
626.982	4.37	1253982	REC_WORD	4.37	n/a	SPONGE	-999	4	n/a	n/a	pyFR	2	TJ048
631.352	4.642	1258352	REC_WORD_VV	4.642	n/a	<>	-999	4	n/a	n/a	pyFR	2	TJ048
635.994	2.458	1262994	REC_WORD_VV	2.458	n/a	<>	-999	4	n/a	n/a	pyFR	2	TJ048
638.452	1.0	1265452	REC_WORD	1.0	n/a	SHEET	-999	4	n/a	n/a	pyFR	2	TJ048
639.452	0.899	1266452	REC_WORD_VV	0.899	n/a	<>	-999	4	n/a	n/a	pyFR	2	TJ048
640.351	7.731	1267351	REC_WORD	7.731	n/a	MUG	-999	4	n/a	n/a	pyFR	2	TJ048
648.082	12.441	1275082	REC_WORD_VV	12.441	n/a	<>	-999	4	n/a	n/a	pyFR	2	TJ048
660.523	5.09	1287523	REC_WORD_VV	5.09	n/a	<>	-999	4	n/a	n/a	pyFR	2	TJ048
665.613	0.016	1292613	TRIAL	n/a	n/a	n/a	-999	5	n/a	n/a	pyFR	2	TJ048
665.629	2.655	1292629	ORIENT	n/a	n/a	n/a	-999	5	n/a	n/a	pyFR	2	TJ048
668.284	2.606	1295284	WORD	n/a	wordpools/wordpool_EN.txt	CANE	1	5	n/a	n/a	pyFR	2	TJ048
670.89	2.673	1297890	WORD	n/a	wordpools/wordpool_EN.txt	DEER	2	5	n/a	n/a	pyFR	2	TJ048
673.563	2.654	1300563	WORD	n/a	wordpools/wordpool_EN.txt	BELL	3	5	n/a	n/a	pyFR	2	TJ048
676.217	2.822	1303217	WORD	n/a	wordpools/wordpool_EN.txt	JAIL	4	5	n/a	n/a	pyFR	2	TJ048
679.039	2.756	1306039	WORD	n/a	wordpools/wordpool_EN.txt	ZOO	5	5	n/a	n/a	pyFR	2	TJ048
681.795	2.555	1308795	WORD	n/a	wordpools/wordpool_EN.txt	KITE	6	5	n/a	n/a	pyFR	2	TJ048
684.35	2.639	1311350	WORD	n/a	wordpools/wordpool_EN.txt	CUBE	7	5	n/a	n/a	pyFR	2	TJ048
686.989	2.489	1313989	WORD	n/a	wordpools/wordpool_EN.txt	RICE	8	5	n/a	n/a	pyFR	2	TJ048
689.478	2.738	1316478	WORD	n/a	wordpools/wordpool_EN.txt	COUCH	9	5	n/a	n/a	pyFR	2	TJ048
692.216	2.622	1319216	WORD	n/a	wordpools/wordpool_EN.txt	COIN	10	5	n/a	n/a	pyFR	2	TJ048
694.838	2.706	1321838	WORD	n/a	wordpools/wordpool_EN.txt	FUDGE	11	5	n/a	n/a	pyFR	2	TJ048
697.544	2.771	1324544	WORD	n/a	wordpools/wordpool_EN.txt	HOOF	12	5	n/a	n/a	pyFR	2	TJ048
700.315	2.672	1327315	WORD	n/a	wordpools/wordpool_EN.txt	CAVE	13	5	n/a	n/a	pyFR	2	TJ048
702.987	2.672	1329987	WORD	n/a	wordpools/wordpool_EN.txt	TOAST	14	5	n/a	n/a	pyFR	2	TJ048
705.659	1.621	1332659	WORD	n/a	wordpools/wordpool_EN.txt	CAPE	15	5	n/a	n/a	pyFR	2	TJ048
707.28	1.186	1334280	START	n/a	n/a	n/a	n/a	5	[-999 -999 -999]	-999	pyFR	2	TJ048
708.466	3.389	1335466	PROB	n/a	n/a	n/a	n/a	5	[6 3 6]	15	pyFR	2	TJ048
711.855	3.206	1338855	PROB	n/a	n/a	n/a	n/a	5	[8 5 7]	20	pyFR	2	TJ048
715.061	5.678	1342060	PROB	n/a	n/a	n/a	n/a	5	[7 5 8]	20	pyFR	2	TJ048
720.739	5.712	1347738	PROB	n/a	n/a	n/a	n/a	5	[6 2 7]	15	pyFR	2	TJ048
726.451	2.457	1353450	PROB	n/a	n/a	n/a	n/a	5	[4 4 4]	12	pyFR	2	TJ048
728.908	1.101	1355907	STOP	n/a	n/a	n/a	n/a	5	[-999 -999 -999]	-999	pyFR	2	TJ048
730.009	1.215	1357008	REC_START	n/a	n/a	n/a	-999	5	n/a	n/a	pyFR	2	TJ048
731.224	5.594	1358223	REC_WORD_VV	5.594	n/a	<>	-999	5	n/a	n/a	pyFR	2	TJ048
736.818	11.629	1363817	REC_WORD_VV	11.629	n/a	<>	-999	5	n/a	n/a	pyFR	2	TJ048
748.447	10.539	1375446	REC_WORD_VV	10.539	n/a	<>	-999	5	n/a	n/a	pyFR	2	TJ048
758.986	1.0	1385985	REC_WORD_VV	1.0	n/a	<>	-999	5	n/a	n/a	pyFR	2	TJ048
759.986	1.0	1386985	REC_WORD_VV	1.0	n/a	<>	-999	5	n/a	n/a	pyFR	2	TJ048
760.986	10.145	1387985	REC_WORD_VV	10.145	n/a	<>	-999	5	n/a	n/a	pyFR	2	TJ048
771.131	1.0	1398130	REC_WORD_VV	1.0	n/a	<>	-999	5	n/a	n/a	pyFR	2	TJ048
772.131	8.079	1399130	REC_WORD_VV	8.079	n/a	<>	-999	5	n/a	n/a	pyFR	2	TJ048
780.21	0.015	1407209	TRIAL	n/a	n/a	n/a	-999	6	n/a	n/a	pyFR	2	TJ048
780.225	2.873	1407224	ORIENT	n/a	n/a	n/a	-999	6	n/a	n/a	pyFR	2	TJ048
783.098	2.688	1410097	WORD	n/a	wordpools/wordpool_EN.txt	GRASS	1	6	n/a	n/a	pyFR	2	TJ048
785.786	2.539	1412785	WORD	n/a	wordpools/wordpool_EN.txt	BRICK	2	6	n/a	n/a	pyFR	2	TJ048
788.325	2.655	1415324	WORD	n/a	wordpools/wordpool_EN.txt	CROWN	3	6	n/a	n/a	pyFR	2	TJ048
790.98	2.639	1417979	WORD	n/a	wordpools/wordpool_EN.txt	ROOM	4	6	n/a	n/a	pyFR	2	TJ048
793.619	2.805	1420618	WORD	n/a	wordpools/wordpool_EN.txt	WEED	5	6	n/a	n/a	pyFR	2	TJ048
796.424	2.472	1423423	WORD	n/a	wordpools/wordpool_EN.txt	INK	6	6	n/a	n/a	pyFR	2	TJ048
798.896	2.505	1425895	WORD	n/a	wordpools/wordpool_EN.txt	CROW	7	6	n/a	n/a	pyFR	2	TJ048
801.401	2.739	1428400	WORD	n/a	wordpools/wordpool_EN.txt	GLASS	8	6	n/a	n/a	pyFR	2	TJ048
804.14	2.705	1431139	WORD	n/a	wordpools/wordpool_EN.txt	FRUIT	9	6	n/a	n/a	pyFR	2	TJ048
806.845	2.455	1433844	WORD	n/a	wordpools/wordpool_EN.txt	BOX	10	6	n/a	n/a	pyFR	2	TJ048
809.3	2.438	1436299	WORD	n/a	wordpools/wordpool_EN.txt	MAIL	11	6	n/a	n/a	pyFR	2	TJ048
811.738	2.774	1438737	WORD	n/a	wordpools/wordpool_EN.txt	HORN	12	6	n/a	n/a	pyFR	2	TJ048
814.512	2.771	1441511	WORD	n/a	wordpools/wordpool_EN.txt	CLOWN	13	6	n/a	n/a	pyFR	2	TJ048
817.283	2.555	1444282	WORD	n/a	wordpools/wordpool_EN.txt	ELF	14	6	n/a	n/a	pyFR	2	TJ048
819.838	1.622	1446837	WORD	n/a	wordpools/wordpool_EN.txt	MILK	15	6	n/a	n/a	pyFR	2	TJ048
821.46	1.017	1448459	START	n/a	n/a	n/a	n/a	6	[-999 -999 -999]	-999	pyFR	2	TJ048
822.477	5.978	1449476	PROB	n/a	n/a	n/a	n/a	6	[6 9 7]	22	pyFR	2	TJ048
828.455	6.413	1455454	PROB	n/a	n/a	n/a	n/a	6	[9 8 9]	26	pyFR	2	TJ048
834.868	2.488	1461867	PROB	n/a	n/a	n/a	n/a	6	[6 4 8]	18	pyFR	2	TJ048
837.356	5.637	1464355	PROB	n/a	n/a	n/a	n/a	6	[1 4 3]	8	pyFR	2	TJ048
842.993	1.144	1469992	STOP	n/a	n/a	n/a	n/a	6	[-999 -999 -999]	-999	pyFR	2	TJ048
844.137	1.451	1471136	REC_START	n/a	n/a	n/a	-999	6	n/a	n/a	pyFR	2	TJ048
845.588	4.252	1472587	REC_WORD	4.252	n/a	CROWN	-999	6	n/a	n/a	pyFR	2	TJ048
849.84	4.02	1476839	REC_WORD_VV	4.02	n/a	<>	-999	6	n/a	n/a	pyFR	2	TJ048
853.86	1.506	1480859	REC_WORD	1.506	n/a	GRASS	-999	6	n/a	n/a	pyFR	2	TJ048
855.366	4.543	1482365	REC_WORD	4.543	n/a	WEED	-999	6	n/a	n/a	pyFR	2	TJ048
859.909	4.817	1486908	REC_WORD_VV	4.817	n/a	<>	-999	6	n/a	n/a	pyFR	2	TJ048
864.726	1.837	1491725	REC_WORD_VV	1.837	n/a	<>	-999	6	n/a	n/a	pyFR	2	TJ048
866.563	1.0	1493562	REC_WORD_VV	1.0	n/a	<>	-999	6	n/a	n/a	pyFR	2	TJ048
867.563	2.781	1494562	REC_WORD_VV	2.781	n/a	<>	-999	6	n/a	n/a	pyFR	2	TJ048
870.344	8.897	1497343	REC_WORD_VV	8.897	n/a	<>	-999	6	n/a	n/a	pyFR	2	TJ048
879.241	21.76	1506239	REC_WORD	21.76	n/a	JEWEL	-999	6	n/a	n/a	pyFR	2	TJ048
901.001	0.016	1527999	TRIAL	n/a	n/a	n/a	-999	7	n/a	n/a	pyFR	2	TJ048
901.017	2.839	1528015	ORIENT	n/a	n/a	n/a	-999	7	n/a	n/a	pyFR	2	TJ048
903.856	2.555	1530854	WORD	n/a	wordpools/wordpool_EN.txt	BROOM	1	7	n/a	n/a	pyFR	2	TJ048
906.411	2.722	1533409	WORD	n/a	wordpools/wordpool_EN.txt	WORLD	2	7	n/a	n/a	pyFR	2	TJ048
909.133	2.639	1536131	WORD	n/a	wordpools/wordpool_EN.txt	STORM	3	7	n/a	n/a	pyFR	2	TJ048
911.772	2.74	1538770	WORD	n/a	wordpools/wordpool_EN.txt	FLOOR	4	7	n/a	n/a	pyFR	2	TJ048
914.512	2.738	1541510	WORD	n/a	wordpools/wordpool_EN.txt	SUIT	5	7	n/a	n/a	pyFR	2	TJ048
917.25	2.822	1544248	WORD	n/a	wordpools/wordpool_EN.txt	SHARK	6	7	n/a	n/a	pyFR	2	TJ048
920.072	2.822	1547070	WORD	n/a	wordpools/wordpool_EN.txt	FOG	7	7	n/a	n/a	pyFR	2	TJ048
922.894	2.689	1549892	WORD	n/a	wordpools/wordpool_EN.txt	MOLE	8	7	n/a	n/a	pyFR	2	TJ048
925.583	2.555	1552581	WORD	n/a	wordpools/wordpool_EN.txt	SMILE	9	7	n/a	n/a	pyFR	2	TJ048
928.138	2.555	1555136	WORD	n/a	wordpools/wordpool_EN.txt	YARD	10	7	n/a	n/a	pyFR	2	TJ048
930.693	2.555	1557691	WORD	n/a	wordpools/wordpool_EN.txt	NOSE	11	7	n/a	n/a	pyFR	2	TJ048
933.248	2.706	1560246	WORD	n/a	wordpools/wordpool_EN.txt	NEST	12	7	n/a	n/a	pyFR	2	TJ048
935.954	2.522	1562952	WORD	n/a	wordpools/wordpool_EN.txt	JAR	13	7	n/a	n/a	pyFR	2	TJ048
938.476	2.438	1565474	WORD	n/a	wordpools/wordpool_EN.txt	STEAM	14	7	n/a	n/a	pyFR	2	TJ048
940.914	1.622	1567912	WORD	n/a	wordpools/wordpool_EN.txt	CASH	15	7	n/a	n/a	pyFR	2	TJ048
942.536	0.916	1569534	START	n/a	n/a	n/a	n/a	7	[-999 -999 -999]	-999	pyFR	2	TJ048
943.452	3.574	1570450	PROB	n/a	n/a	n/a	n/a	7	[9 3 6]	18	pyFR	2	TJ048
947.026	2.421	1574024	PROB	n/a	n/a	n/a	n/a	7	[9 9 4]	22	pyFR	2	TJ048
949.447	3.825	1576445	PROB	n/a	n/a	n/a	n/a	7	[7 6 6]	19	pyFR	2	TJ048
953.272	8.082	1580270	PROB	n/a	n/a	n/a	n/a	7	[1 6 8]	15	pyFR	2	TJ048
961.354	2.603	1588352	PROB	n/a	n/a	n/a	n/a	7	[1 3 3]	7	pyFR	2	TJ048
963.957	1.206	1590955	STOP	n/a	n/a	n/a	n/a	7	[-999 -999 -999]	-999	pyFR	2	TJ048
965.163	1.433	1592161	REC_START	n/a	n/a	n/a	-999	7	n/a	n/a	pyFR	2	TJ048
966.596	0.779	1593594	REC_WORD_VV	0.779	n/a	<>	-999	7	n/a	n/a	pyFR	2	TJ048
967.375	3.737	1594373	REC_WORD	3.737	n/a	YARD	-999	7	n/a	n/a	pyFR	2	TJ048
971.112	8.066	1598110	REC_WORD_VV	8.066	n/a	<>	-999	7	n/a	n/a	pyFR	2	TJ048
979.178	8.169	1606176	REC_WORD	8.169	n/a	YARD	-999	7	n/a	n/a	pyFR	2	TJ048
987.347	3.006	1614345	REC_WORD_VV	3.006	n/a	<>	-999	7	n/a	n/a	pyFR	2	TJ048
990.353	4.953	1617351	REC_WORD_VV	4.953	n/a	<>	-999	7	n/a	n/a	pyFR	2	TJ048
995.306	17.203	1622304	REC_WORD	17.203	n/a	SEED	-999	7	n/a	n/a	pyFR	2	TJ048
1012.509	0.016	1639507	TRIAL	n/a	n/a	n/a	-999	8	n/a	n/a	pyFR	2	TJ048
1012.525	2.704	1639523	ORIENT	n/a	n/a	n/a	-999	8	n/a	n/a	pyFR	2	TJ048
1015.229	2.589	1642227	WORD	n/a	wordpools/wordpool_EN.txt	JUICE	1	8	n/a	n/a	pyFR	2	TJ048
1017.818	2.706	1644816	WORD	n/a	wordpools/wordpool_EN.txt	TOOTH	2	8	n/a	n/a	pyFR	2	TJ048
1020.524	2.688	1647522	WORD	n/a	wordpools/wordpool_EN.txt	PRINCE	3	8	n/a	n/a	pyFR	2	TJ048
1023.212	2.772	1650210	WORD	n/a	wordpools/wordpool_EN.txt	HOOK	4	8	n/a	n/a	pyFR	2	TJ048
1025.984	2.556	1652982	WORD	n/a	wordpools/wordpool_EN.txt	CALF	5	8	n/a	n/a	pyFR	2	TJ048
1028.54	2.521	1655538	WORD	n/a	wordpools/wordpool_EN.txt	LEG	6	8	n/a	n/a	pyFR	2	TJ048
1031.061	2.839	1658059	WORD	n/a	wordpools/wordpool_EN.txt	SCHOOL	7	8	n/a	n/a	pyFR	2	TJ048
1033.9	2.673	1660897	WORD	n/a	wordpools/wordpool_EN.txt	CART	8	8	n/a	n/a	pyFR	2	TJ048
1036.573	2.788	1663570	WORD	n/a	wordpools/wordpool_EN.txt	ROOT	9	8	n/a	n/a	pyFR	2	TJ048
1039.361	2.505	1666358	WORD	n/a	wordpools/wordpool_EN.txt	LAMP	10	8	n/a	n/a	pyFR	2	TJ048
1041.866	2.572	1668863	WORD	n/a	wordpools/wordpool_EN.txt	BADGE	11	8	n/a	n/a	pyFR	2	TJ048
1044.438	2.471	1671435	WORD	n/a	wordpools/wordpool_EN.txt	BRIDGE	12	8	n/a	n/a	pyFR	2	TJ048
1046.909	2.539	1673906	WORD	n/a	wordpools/wordpool_EN.txt	EGG	13	8	n/a	n/a	pyFR	2	TJ048
1049.448	2.705	1676445	WORD	n/a	wordpools/wordpool_EN.txt	PALM	14	8	n/a	n/a	pyFR	2	TJ048
1052.153	1.621	1679150	WORD	n/a	wordpools/wordpool_EN.txt	SKY	15	8	n/a	n/a	pyFR	2	TJ048
1053.774	0.834	1680771	START	n/a	n/a	n/a	n/a	8	[-999 -999 -999]	-999	pyFR	2	TJ048
1054.608	1.955	1681605	PROB	n/a	n/a	n/a	n/a	8	[2 1 9]	12	pyFR	2	TJ048
1056.563	1.752	1683560	PROB	n/a	n/a	n/a	n/a	8	[4 6 3]	13	pyFR	2	TJ048
1058.315	3.991	1685312	PROB	n/a	n/a	n/a	n/a	8	[5 6 2]	13	pyFR	2	TJ048
1062.306	1.704	1689303	PROB	n/a	n/a	n/a	n/a	8	[3 7 2]	12	pyFR	2	TJ048
1064.01	3.59	1691007	PROB	n/a	n/a	n/a	n/a	8	[2 6 7]	15	pyFR	2	TJ048
1067.6	3.307	1694597	PROB	n/a	n/a	n/a	n/a	8	[6 1 8]	15	pyFR	2	TJ048
1070.907	2.873	1697904	PROB	n/a	n/a	n/a	n/a	8	[1 3 2]	6	pyFR	2	TJ048
1073.78	1.573	1700777	PROB	n/a	n/a	n/a	n/a	8	[8 3 2]	13	pyFR	2	TJ048
1075.353	1.217	1702350	STOP	n/a	n/a	n/a	n/a	8	[-999 -999 -999]	-999	pyFR	2	TJ048
1076.57	0.466	1703567	REC_START	n/a	n/a	n/a	-999	8	n/a	n/a	pyFR	2	TJ048
1077.036	1.557	1704033	REC_WORD_VV	1.557	n/a	<>	-999	8	n/a	n/a	pyFR	2	TJ048
1078.593	2.759	1705590	REC_WORD	2.759	n/a	PRINCE	-999	8	n/a	n/a	pyFR	2	TJ048
1081.352	4.562	1708349	REC_WORD	4.562	n/a	ROOT	-999	8	n/a	n/a	pyFR	2	TJ048
1085.914	7.879	1712911	REC_WORD_VV	7.879	n/a	<>	-999	8	n/a	n/a	pyFR	2	TJ048
1093.793	1.246	1720790	REC_WORD_VV	1.246	n/a	<>	-999	8	n/a	n/a	pyFR	2	TJ048
1095.039	3.611	1722036	REC_WORD	3.611	n/a	ROOT	-999	8	n/a	n/a	pyFR	2	TJ048
1098.65	26.082	1725647	REC_WORD_VV	26.082	n/a	<>	-999	8	n/a	n/a	pyFR	2	TJ048
1124.732	0.016	1751729	TRIAL	n/a	n/a	n/a	-999	9	n/a	n/a	pyFR	2	TJ048
1124.748	3.023	1751745	ORIENT	n/a	n/a	n/a	-999	9	n/a	n/a	pyFR	2	TJ048
1127.771	2.839	1754768	WORD	n/a	wordpools/wordpool_EN.txt	STEAK	1	9	n/a	n/a	pyFR	2	TJ048
1130.61	2.722	1757607	WORD	n/a	wordpools/wordpool_EN.txt	BOARD	2	9	n/a	n/a	pyFR	2	TJ048
1133.332	2.722	1760329	WORD	n/a	wordpools/wordpool_EN.txt	WEB	3	9	n/a	n/a	pyFR	2	TJ048
1136.054	2.605	1763051	WORD	n/a	wordpools/wordpool_EN.txt	TOAD	4	9	n/a	n/a	pyFR	2	TJ048
1138.659	2.539	1765656	WORD	n/a	wordpools/wordpool_EN.txt	TOOL	5	9	n/a	n/a	pyFR	2	TJ048
1141.198	2.522	1768195	WORD	n/a	wordpools/wordpool_EN.txt	NAIL	6	9	n/a	n/a	pyFR	2	TJ048
1143.72	2.705	1770717	WORD	n/a	wordpools/wordpool_EN.txt	GOLD	7	9	n/a	n/a	pyFR	2	TJ048
1146.425	2.555	1773422	WORD	n/a	wordpools/wordpool_EN.txt	SHOE	8	9	n/a	n/a	pyFR	2	TJ048
1148.98	2.806	1775977	WORD	n/a	wordpools/wordpool_EN.txt	TEA	9	9	n/a	n/a	pyFR	2	TJ048
1151.786	2.538	1778783	WORD	n/a	wordpools/wordpool_EN.txt	BOWL	10	9	n/a	n/a	pyFR	2	TJ048
1154.324	2.739	1781321	WORD	n/a	wordpools/wordpool_EN.txt	HOSE	11	9	n/a	n/a	pyFR	2	TJ048
1157.063	2.538	1784060	WORD	n/a	wordpools/wordpool_EN.txt	TOE	12	9	n/a	n/a	pyFR	2	TJ048
1159.601	2.589	1786598	WORD	n/a	wordpools/wordpool_EN.txt	PASTE	13	9	n/a	n/a	pyFR	2	TJ048
1162.19	2.822	1789187	WORD	n/a	wordpools/wordpool_EN.txt	STAR	14	9	n/a	n/a	pyFR	2	TJ048
1165.012	1.622	1792009	WORD	n/a	wordpools/wordpool_EN.txt	DESK	15	9	n/a	n/a	pyFR	2	TJ048
1166.634	1.084	1793631	START	n/a	n/a	n/a	n/a	9	[-999 -999 -999]	-999	pyFR	2	TJ048
1167.718	2.438	1794715	PROB	n/a	n/a	n/a	n/a	9	[2 1 8]	11	pyFR	2	TJ048
1170.156	1.82	1797153	PROB	n/a	n/a	n/a	n/a	9	[9 1 5]	15	pyFR	2	TJ048
1171.976	1.904	1798973	PROB	n/a	n/a	n/a	n/a	9	[7 2 2]	11	pyFR	2	TJ048
1173.88	2.154	1800877	PROB	n/a	n/a	n/a	n/a	9	[3 3 1]	7	pyFR	2	TJ048
1176.034	3.34	1803031	PROB	n/a	n/a	n/a	n/a	9	[2 2 7]	11	pyFR	2	TJ048
1179.374	1.487	1806371	PROB	n/a	n/a	n/a	n/a	9	[2 5 5]	12	pyFR	2	TJ048
1180.861	5.36	1807858	PROB	n/a	n/a	n/a	n/a	9	[2 5 6]	13	pyFR	2	TJ048
1186.221	2.185	1813218	PROB	n/a	n/a	n/a	n/a	9	[3 7 8]	18	pyFR	2	TJ048
1188.406	1.24	1815403	STOP	n/a	n/a	n/a	n/a	9	[-999 -999 -999]	-999	pyFR	2	TJ048
1189.646	0.92	1816643	REC_START	n/a	n/a	n/a	-999	9	n/a	n/a	pyFR	2	TJ048
1190.566	20.388	1817563	REC_WORD_VV	20.388	n/a	<>	-999	9	n/a	n/a	pyFR	2	TJ048
1210.954	5.428	1837950	REC_WORD_VV	5.428	n/a	<>	-999	9	n/a	n/a	pyFR	2	TJ048
1216.382	5.249	1843378	REC_WORD	5.249	n/a	WEB	-999	9	n/a	n/a	pyFR	2	TJ048
1221.631	4.568	1848627	REC_WORD	4.568	n/a	LAMP	-999	9	n/a	n/a	pyFR	2	TJ048
1226.199	1.14	1853195	REC_WORD	1.14	n/a	SHOE	-999	9	n/a	n/a	pyFR	2	TJ048
1227.339	0.73	1854335	REC_WORD	0.73	n/a	TOE	-999	9	n/a	n/a	pyFR	2	TJ048
1228.069	9.424	1855065	REC_WORD	9.424	n/a	BOWL	-999	9	n/a	n/a	pyFR	2	TJ048
1237.493	0.015	1864489	TRIAL	n/a	n/a	n/a	-999	10	n/a	n/a	pyFR	2	TJ048
1237.508	2.688	1864504	ORIENT	n/a	n/a	n/a	-999	10	n/a	n/a	pyFR	2	TJ048
1240.196	2.722	1867192	WORD	n/a	wordpools/wordpool_EN.txt	SINK	1	10	n/a	n/a	pyFR	2	TJ048
1242.918	2.706	1869914	WORD	n/a	wordpools/wordpool_EN.txt	CUP	2	10	n/a	n/a	pyFR	2	TJ048
1245.624	2.672	1872620	WORD	n/a	wordpools/wordpool_EN.txt	SLIME	3	10	n/a	n/a	pyFR	2	TJ048
1248.296	2.572	1875292	WORD	n/a	wordpools/wordpool_EN.txt	HAWK	4	10	n/a	n/a	pyFR	2	TJ048
1250.868	2.538	1877864	WORD	n/a	wordpools/wordpool_EN.txt	PLANE	5	10	n/a	n/a	pyFR	2	TJ048
1253.406	2.488	1880402	WORD	n/a	wordpools/wordpool_EN.txt	SNAKE	6	10	n/a	n/a	pyFR	2	TJ048
1255.894	2.623	1882890	WORD	n/a	wordpools/wordpool_EN.txt	DITCH	7	10	n/a	n/a	pyFR	2	TJ048
1258.517	2.738	1885513	WORD	n/a	wordpools/wordpool_EN.txt	WOOD	8	10	n/a	n/a	pyFR	2	TJ048
1261.255	2.739	1888251	WORD	n/a	wordpools/wordpool_EN.txt	JEEP	9	10	n/a	n/a	pyFR	2	TJ048
1263.994	2.672	1890990	WORD	n/a	wordpools/wordpool_EN.txt	PEA	10	10	n/a	n/a	pyFR	2	TJ048
1266.666	2.505	1893662	WORD	n/a	wordpools/wordpool_EN.txt	CLIFF	11	10	n/a	n/a	pyFR	2	TJ048
1269.171	2.755	1896167	WORD	n/a	wordpools/wordpool_EN.txt	WORM	12	10	n/a	n/a	pyFR	2	TJ048
1271.926	2.59	1898922	WORD	n/a	wordpools/wordpool_EN.txt	GLOVE	13	10	n/a	n/a	pyFR	2	TJ048
1274.516	2.604	1901512	WORD	n/a	wordpools/wordpool_EN.txt	SOCK	14	10	n/a	n/a	pyFR	2	TJ048
1277.12	1.621	1904116	WORD	n/a	wordpools/wordpool_EN.txt	CAGE	15	10	n/a	n/a	pyFR	2	TJ048
1278.741	1.001	1905737	START	n/a	n/a	n/a	n/a	10	[-999 -999 -999]	-999	pyFR	2	TJ048
1279.742	2.271	1906738	PROB	n/a	n/a	n/a	n/a	10	[7 3 8]	18	pyFR	2	TJ048
1282.013	8.083	1909009	PROB	n/a	n/a	n/a	n/a	10	[8 9 7]	24	pyFR	2	TJ048
1290.096	4.342	1917092	PROB	n/a	n/a	n/a	n/a	10	[3 6 9]	18	pyFR	2	TJ048
1294.438	2.055	1921434	PROB	n/a	n/a	n/a	n/a	10	[4 4 4]	12	pyFR	2	TJ048
1296.493	3.957	1923489	PROB	n/a	n/a	n/a	n/a	10	[4 4 8]	26	pyFR	2	TJ048
1300.45	1.253	1927446	STOP	n/a	n/a	n/a	n/a	10	[-999 -999 -999]	-999	pyFR	2	TJ048
1301.703	2.135	1928699	REC_START	n/a	n/a	n/a	-999	10	n/a	n/a	pyFR	2	TJ048
1303.838	2.506	1930834	REC_WORD_VV	2.506	n/a	<>	-999	10	n/a	n/a	pyFR	2	TJ048
1306.344	5.594	1933340	REC_WORD	5.594	n/a	CUP	-999	10	n/a	n/a	pyFR	2	TJ048
1311.938	6.077	1938934	REC_WORD	6.077	n/a	SOCK	-999	10	n/a	n/a	pyFR	2	TJ048
1318.015	6.951	1945011	REC_WORD_VV	6.951	n/a	<>	-999	10	n/a	n/a	pyFR	2	TJ048
1324.966	0.538	1951962	REC_WORD	0.538	n/a	CUP	-999	10	n/a	n/a	pyFR	2	TJ048
1325.504	4.262	1952500	REC_WORD	4.262	n/a	SOCK	-999	10	n/a	n/a	pyFR	2	TJ048
1329.766	5.315	1956762	REC_WORD	5.315	n/a	MOLE	-999	10	n/a	n/a	pyFR	2	TJ048
1335.081	13.316	1962077	REC_WORD	13.316	n/a	CAVE	-999	10	n/a	n/a	pyFR	2	TJ048
1348.397	0.016	1975393	TRIAL	n/a	n/a	n/a	-999	11	n/a	n/a	pyFR	2	TJ048
1348.413	2.989	1975409	ORIENT	n/a	n/a	n/a	-999	11	n/a	n/a	pyFR	2	TJ048
1351.402	2.605	1978397	WORD	n/a	wordpools/wordpool_EN.txt	CORD	1	11	n/a	n/a	pyFR	2	TJ048
1354.007	2.806	1981002	WORD	n/a	wordpools/wordpool_EN.txt	MAZE	2	11	n/a	n/a	pyFR	2	TJ048
1356.813	2.455	1983808	WORD	n/a	wordpools/wordpool_EN.txt	STOVE	3	11	n/a	n/a	pyFR	2	TJ048
1359.268	2.472	1986263	WORD	n/a	wordpools/wordpool_EN.txt	SUN	4	11	n/a	n/a	pyFR	2	TJ048
1361.74	2.722	1988735	WORD	n/a	wordpools/wordpool_EN.txt	PLANT	5	11	n/a	n/a	pyFR	2	TJ048
1364.462	2.772	1991457	WORD	n/a	wordpools/wordpool_EN.txt	STONE	6	11	n/a	n/a	pyFR	2	TJ048
1367.234	2.739	1994229	WORD	n/a	wordpools/wordpool_EN.txt	TRAIN	7	11	n/a	n/a	pyFR	2	TJ048
1369.973	2.489	1996968	WORD	n/a	wordpools/wordpool_EN.txt	WHEEL	8	11	n/a	n/a	pyFR	2	TJ048
1372.462	2.738	1999457	WORD	n/a	wordpools/wordpool_EN.txt	BREAD	9	11	n/a	n/a	pyFR	2	TJ048
1375.2	2.488	2002195	WORD	n/a	wordpools/wordpool_EN.txt	BAND	10	11	n/a	n/a	pyFR	2	TJ048
1377.688	2.756	2004683	WORD	n/a	wordpools/wordpool_EN.txt	WAVE	11	11	n/a	n/a	pyFR	2	TJ048
1380.444	2.505	2007439	WORD	n/a	wordpools/wordpool_EN.txt	AXE	12	11	n/a	n/a	pyFR	2	TJ048
1382.949	2.623	2009944	WORD	n/a	wordpools/wordpool_EN.txt	DOCK	13	11	n/a	n/a	pyFR	2	TJ048
1385.572	2.537	2012567	WORD	n/a	wordpools/wordpool_EN.txt	WALL	14	11	n/a	n/a	pyFR	2	TJ048
1388.109	1.621	2015104	WORD	n/a	wordpools/wordpool_EN.txt	TAPE	15	11	n/a	n/a	pyFR	2	TJ048
1389.73	1.101	2016725	START	n/a	n/a	n/a	n/a	11	[-999 -999 -999]	-999	pyFR	2	TJ048
1390.831	3.424	2017826	PROB	n/a	n/a	n/a	n/a	11	[8 6 5]	19	pyFR	2	TJ048
1394.255	3.907	2021250	PROB	n/a	n/a	n/a	n/a	11	[6 2 7]	15	pyFR	2	TJ048
1398.162	4.493	2025157	PROB	n/a	n/a	n/a	n/a	11	[4 8 7]	19	pyFR	2	TJ048
1402.655	6.496	2029650	PROB	n/a	n/a	n/a	n/a	11	[9 8 7]	24	pyFR	2	TJ048
1409.151	2.575	2036146	PROB	n/a	n/a	n/a	n/a	11	[1 3 4]	8	pyFR	2	TJ048
1411.726	1.067	2038721	STOP	n/a	n/a	n/a	n/a	11	[-999 -999 -999]	-999	pyFR	2	TJ048
1412.793	1.099	2039788	REC_START	n/a	n/a	n/a	-999	11	n/a	n/a	pyFR	2	TJ048
1413.892	3.365	2040887	REC_WORD	3.365	n/a	BAND	-999	11	n/a	n/a	pyFR	2	TJ048
1417.257	1.044	2044252	REC_WORD	1.044	n/a	PLANT	-999	11	n/a	n/a	pyFR	2	TJ048
1418.301	2.488	2045296	REC_WORD	2.488	n/a	AXE	-999	11	n/a	n/a	pyFR	2	TJ048
1420.789	5.348	2047784	REC_WORD	5.348	n/a	WAVE	-999	11	n/a	n/a	pyFR	2	TJ048
1426.137	12.968	2053132	REC_WORD_VV	12.968	n/a	<>	-999	11	n/a	n/a	pyFR	2	TJ048
1439.105	13.736	2066100	REC_WORD_VV	13.736	n/a	<>	-999	11	n/a	n/a	pyFR	2	TJ048
1452.841	10.738	2079836	REC_WORD_VV	10.738	n/a	<>	-999	11	n/a	n/a	pyFR	2	TJ048
1463.579	0.014	2090574	TRIAL	n/a	n/a	n/a	-999	12	n/a	n/a	pyFR	2	TJ048
1463.593	2.957	2090588	ORIENT	n/a	n/a	n/a	-999	12	n/a	n/a	pyFR	2	TJ048
1466.55	2.638	2093545	WORD	n/a	wordpools/wordpool_EN.txt	SPARK	1	12	n/a	n/a	pyFR	2	TJ048
1469.188	2.505	2096183	WORD	n/a	wordpools/wordpool_EN.txt	CAT	2	12	n/a	n/a	pyFR	2	TJ048
1471.693	2.773	2098688	WORD	n/a	wordpools/wordpool_EN.txt	FUR	3	12	n/a	n/a	pyFR	2	TJ048
1474.466	2.538	2101461	WORD	n/a	wordpools/wordpool_EN.txt	FOOT	4	12	n/a	n/a	pyFR	2	TJ048
1477.004	2.822	2103999	WORD	n/a	wordpools/wordpool_EN.txt	CHIEF	5	12	n/a	n/a	pyFR	2	TJ048
1479.826	2.656	2106821	WORD	n/a	wordpools/wordpool_EN.txt	APE	6	12	n/a	n/a	pyFR	2	TJ048
1482.482	2.554	2109477	WORD	n/a	wordpools/wordpool_EN.txt	SLUSH	7	12	n/a	n/a	pyFR	2	TJ048
1485.036	2.606	2112031	WORD	n/a	wordpools/wordpool_EN.txt	BOY	8	12	n/a	n/a	pyFR	2	TJ048
1487.642	2.538	2114637	WORD	n/a	wordpools/wordpool_EN.txt	CONE	9	12	n/a	n/a	pyFR	2	TJ048
1490.18	2.455	2117175	WORD	n/a	wordpools/wordpool_EN.txt	ANT	10	12	n/a	n/a	pyFR	2	TJ048
1492.635	2.538	2119630	WORD	n/a	wordpools/wordpool_EN.txt	CRANE	11	12	n/a	n/a	pyFR	2	TJ048
1495.173	2.823	2122168	WORD	n/a	wordpools/wordpool_EN.txt	BLOOM	12	12	n/a	n/a	pyFR	2	TJ048
1497.996	2.605	2124991	WORD	n/a	wordpools/wordpool_EN.txt	SHIP	13	12	n/a	n/a	pyFR	2	TJ048
1500.601	2.822	2127596	WORD	n/a	wordpools/wordpool_EN.txt	VAN	14	12	n/a	n/a	pyFR	2	TJ048
1503.423	1.621	2130418	WORD	n/a	wordpools/wordpool_EN.txt	GATE	15	12	n/a	n/a	pyFR	2	TJ048
1505.044	1.151	2132039	START	n/a	n/a	n/a	n/a	12	[-999 -999 -999]	-999	pyFR	2	TJ048
1506.195	4.192	2133190	PROB	n/a	n/a	n/a	n/a	12	[9 9 7]	25	pyFR	2	TJ048
1510.387	2.706	2137381	PROB	n/a	n/a	n/a	n/a	12	[4 4 4]	12	pyFR	2	TJ048
1513.093	2.488	2140087	PROB	n/a	n/a	n/a	n/a	12	[6 2 6]	14	pyFR	2	TJ048
1515.581	1.737	2142575	PROB	n/a	n/a	n/a	n/a	12	[3 1 7]	11	pyFR	2	TJ048
1517.318	3.841	2144312	PROB	n/a	n/a	n/a	n/a	12	[9 7 6]	22	pyFR	2	TJ048
1521.159	2.254	2148153	PROB	n/a	n/a	n/a	n/a	12	[4 2 8]	14	pyFR	2	TJ048
1523.413	2.174	2150407	PROB	n/a	n/a	n/a	n/a	12	[1 5 9]	15	pyFR	2	TJ048
1525.587	1.15	2152581	STOP	n/a	n/a	n/a	n/a	12	[-999 -999 -999]	-999	pyFR	2	TJ048
1526.737	1.096	2153731	REC_START	n/a	n/a	n/a	-999	12	n/a	n/a	pyFR	2	TJ048
1527.833	5.688	2154827	REC_WORD_VV	5.688	n/a	<>	-999	12	n/a	n/a	pyFR	2	TJ048
1533.521	3.385	2160515	REC_WORD_VV	3.385	n/a	<>	-999	12	n/a	n/a	pyFR	2	TJ048
1536.906	2.302	2163900	REC_WORD_VV	2.302	n/a	<>	-999	12	n/a	n/a	pyFR	2	TJ048
1539.208	7.815	2166202	REC_WORD	7.815	n/a	FOOT	-999	12	n/a	n/a	pyFR	2	TJ048
1547.023	0.691	2174017	REC_WORD	0.691	n/a	APE	-999	12	n/a	n/a	pyFR	2	TJ048
1547.714	0.508	2174708	REC_WORD	0.508	n/a	CAT	-999	12	n/a	n/a	pyFR	2	TJ048
1548.222	8.822	2175216	REC_WORD	8.822	n/a	FUR	-999	12	n/a	n/a	pyFR	2	TJ048
1557.044	10.245	2184038	REC_WORD_VV	10.245	n/a	<>	-999	12	n/a	n/a	pyFR	2	TJ048
1567.289	1.0	2194283	REC_WORD_VV	1.0	n/a	<>	-999	12	n/a	n/a	pyFR	2	TJ048
1568.289	5.726	2195283	REC_WORD_VV	5.726	n/a	<>	-999	12	n/a	n/a	pyFR	2	TJ048
1574.015	0.016	2201009	TRIAL	n/a	n/a	n/a	-999	13	n/a	n/a	pyFR	2	TJ048
1574.031	2.822	2201025	ORIENT	n/a	n/a	n/a	-999	13	n/a	n/a	pyFR	2	TJ048
1576.853	2.439	2203847	WORD	n/a	wordpools/wordpool_EN.txt	SQUARE	1	13	n/a	n/a	pyFR	2	TJ048
1579.292	2.455	2206286	WORD	n/a	wordpools/wordpool_EN.txt	SPOON	2	13	n/a	n/a	pyFR	2	TJ048
1581.747	2.638	2208741	WORD	n/a	wordpools/wordpool_EN.txt	HEN	3	13	n/a	n/a	pyFR	2	TJ048
1584.385	2.739	2211379	WORD	n/a	wordpools/wordpool_EN.txt	POOL	4	13	n/a	n/a	pyFR	2	TJ048
1587.124	2.672	2214118	WORD	n/a	wordpools/wordpool_EN.txt	VASE	5	13	n/a	n/a	pyFR	2	TJ048
1589.796	2.505	2216790	WORD	n/a	wordpools/wordpool_EN.txt	TAIL	6	13	n/a	n/a	pyFR	2	TJ048
1592.301	2.639	2219295	WORD	n/a	wordpools/wordpool_EN.txt	MOOSE	7	13	n/a	n/a	pyFR	2	TJ048
1594.94	2.739	2221934	WORD	n/a	wordpools/wordpool_EN.txt	RAKE	8	13	n/a	n/a	pyFR	2	TJ048
1597.679	2.738	2224673	WORD	n/a	wordpools/wordpool_EN.txt	TREE	9	13	n/a	n/a	pyFR	2	TJ048
1600.417	2.773	2227411	WORD	n/a	wordpools/wordpool_EN.txt	JET	10	13	n/a	n/a	pyFR	2	TJ048
1603.19	2.805	2230184	WORD	n/a	wordpools/wordpool_EN.txt	PIN	11	13	n/a	n/a	pyFR	2	TJ048
1605.995	2.689	2232989	WORD	n/a	wordpools/wordpool_EN.txt	JUDGE	12	13	n/a	n/a	pyFR	2	TJ048
1608.684	2.79	2235678	WORD	n/a	wordpools/wordpool_EN.txt	BRANCH	13	13	n/a	n/a	pyFR	2	TJ048
1611.474	2.537	2238468	WORD	n/a	wordpools/wordpool_EN.txt	COW	14	13	n/a	n/a	pyFR	2	TJ048
1614.011	1.622	2241005	WORD	n/a	wordpools/wordpool_EN.txt	ROCK	15	13	n/a	n/a	pyFR	2	TJ048
1615.633	0.983	2242627	START	n/a	n/a	n/a	n/a	13	[-999 -999 -999]	-999	pyFR	2	TJ048
1616.616	3.14	2243610	PROB	n/a	n/a	n/a	n/a	13	[8 3 4]	15	pyFR	2	TJ048
1619.756	2.973	2246750	PROB	n/a	n/a	n/a	n/a	13	[5 1 6]	12	pyFR	2	TJ048
1622.729	2.354	2249723	PROB	n/a	n/a	n/a	n/a	13	[9 6 4]	19	pyFR	2	TJ048
1625.083	3.624	2252077	PROB	n/a	n/a	n/a	n/a	13	[1 7 7]	15	pyFR	2	TJ048
1628.707	3.474	2255701	PROB	n/a	n/a	n/a	n/a	13	[8 1 7]	16	pyFR	2	TJ048
1632.181	2.939	2259175	PROB	n/a	n/a	n/a	n/a	13	[5 7 5]	17	pyFR	2	TJ048
1635.12	4.927	2262114	PROB	n/a	n/a	n/a	n/a	13	[8 9 3]	20	pyFR	2	TJ048
1640.047	1.153	2267041	STOP	n/a	n/a	n/a	n/a	13	[-999 -999 -999]	-999	pyFR	2	TJ048
1641.2	1.256	2268194	REC_START	n/a	n/a	n/a	-999	13	n/a	n/a	pyFR	2	TJ048
1642.456	7.242	2269450	REC_WORD_VV	7.242	n/a	<>	-999	13	n/a	n/a	pyFR	2	TJ048
1649.698	1.0	2276692	REC_WORD	1.0	n/a	SPARK	-999	13	n/a	n/a	pyFR	2	TJ048
1650.698	9.556	2277692	REC_WORD_VV	9.556	n/a	<>	-999	13	n/a	n/a	pyFR	2	TJ048
1660.254	9.336	2287248	REC_WORD_VV	9.336	n/a	<>	-999	13	n/a	n/a	pyFR	2	TJ048
1669.59	8.005	2296583	REC_WORD_VV	8.005	n/a	<>	-999	13	n/a	n/a	pyFR	2	TJ048
1677.595	1.0	2304588	REC_WORD_VV	1.0	n/a	<>	-999	13	n/a	n/a	pyFR	2	TJ048
1678.595	9.716	2305588	REC_WORD_VV	9.716	n/a	<>	-999	13	n/a	n/a	pyFR	2	TJ048
1688.311	0.016	2315304	TRIAL	n/a	n/a	n/a	-999	14	n/a	n/a	pyFR	2	TJ048
1688.327	2.705	2315320	ORIENT	n/a	n/a	n/a	-999	14	n/a	n/a	pyFR	2	TJ048
1691.032	2.523	2318025	WORD	n/a	wordpools/wordpool_EN.txt	OAK	1	14	n/a	n/a	pyFR	2	TJ048
1693.555	2.471	2320548	WORD	n/a	wordpools/wordpool_EN.txt	PEACH	2	14	n/a	n/a	pyFR	2	TJ048
1696.026	2.672	2323019	WORD	n/a	wordpools/wordpool_EN.txt	KEY	3	14	n/a	n/a	pyFR	2	TJ048
1698.698	2.555	2325691	WORD	n/a	wordpools/wordpool_EN.txt	STICK	4	14	n/a	n/a	pyFR	2	TJ048
1701.253	2.789	2328246	WORD	n/a	wordpools/wordpool_EN.txt	SALT	5	14	n/a	n/a	pyFR	2	TJ048
1704.042	2.805	2331035	WORD	n/a	wordpools/wordpool_EN.txt	BOOK	6	14	n/a	n/a	pyFR	2	TJ048
1706.847	2.572	2333840	WORD	n/a	wordpools/wordpool_EN.txt	STORE	7	14	n/a	n/a	pyFR	2	TJ048
1709.419	2.806	2336412	WORD	n/a	wordpools/wordpool_EN.txt	COAT	8	14	n/a	n/a	pyFR	2	TJ048
1712.225	2.655	2339218	WORD	n/a	wordpools/wordpool_EN.txt	PIT	9	14	n/a	n/a	pyFR	2	TJ048
1714.88	2.656	2341873	WORD	n/a	wordpools/wordpool_EN.txt	TOY	10	14	n/a	n/a	pyFR	2	TJ048
1717.536	2.621	2344529	WORD	n/a	wordpools/wordpool_EN.txt	CLOUD	11	14	n/a	n/a	pyFR	2	TJ048
1720.157	2.806	2347150	WORD	n/a	wordpools/wordpool_EN.txt	BEAN	12	14	n/a	n/a	pyFR	2	TJ048
1722.963	2.655	2349956	WORD	n/a	wordpools/wordpool_EN.txt	FLUTE	13	14	n/a	n/a	pyFR	2	TJ048
1725.618	2.639	2352611	WORD	n/a	wordpools/wordpool_EN.txt	MULE	14	14	n/a	n/a	pyFR	2	TJ048
1728.257	1.621	2355250	WORD	n/a	wordpools/wordpool_EN.txt	WAND	15	14	n/a	n/a	pyFR	2	TJ048
1729.878	1.101	2356871	START	n/a	n/a	n/a	n/a	14	[-999 -999 -999]	-999	pyFR	2	TJ048
1730.979	4.158	2357972	PROB	n/a	n/a	n/a	n/a	14	[9 4 4]	17	pyFR	2	TJ048
1735.137	3.073	2362130	PROB	n/a	n/a	n/a	n/a	14	[1 7 4]	12	pyFR	2	TJ048
1738.21	2.204	2365203	PROB	n/a	n/a	n/a	n/a	14	[9 2 1]	12	pyFR	2	TJ048
1740.414	3.141	2367407	PROB	n/a	n/a	n/a	n/a	14	[8 8 3]	19	pyFR	2	TJ048
1743.555	4.241	2370548	PROB	n/a	n/a	n/a	n/a	14	[7 9 4]	20	pyFR	2	TJ048
1747.796	1.987	2374789	PROB	n/a	n/a	n/a	n/a	14	[4 6 9]	19	pyFR	2	TJ048
1749.783	4.972	2376776	PROB	n/a	n/a	n/a	n/a	14	[9 8 8]	25	pyFR	2	TJ048
1754.755	1.074	2381748	STOP	n/a	n/a	n/a	n/a	14	[-999 -999 -999]	-999	pyFR	2	TJ048
1755.829	1.233	2382822	REC_START	n/a	n/a	n/a	-999	14	n/a	n/a	pyFR	2	TJ048
1757.062	1.691	2384055	REC_WORD_VV	1.691	n/a	<>	-999	14	n/a	n/a	pyFR	2	TJ048
1758.753	0.889	2385746	REC_WORD	0.889	n/a	WAND	-999	14	n/a	n/a	pyFR	2	TJ048
1759.642	2.1	2386635	REC_WORD	2.1	n/a	FLUTE	-999	14	n/a	n/a	pyFR	2	TJ048
1761.742	2.62	2388735	REC_WORD	2.62	n/a	TOY	-999	14	n/a	n/a	pyFR	2	TJ048
1764.362	8.827	2391355	REC_WORD	8.827	n/a	CLOUD	-999	14	n/a	n/a	pyFR	2	TJ048
1773.189	9.779	2400182	REC_WORD_VV	9.779	n/a	<>	-999	14	n/a	n/a	pyFR	2	TJ048
1782.968	11.928	2409961	REC_WORD_VV	11.928	n/a	<>	-999	14	n/a	n/a	pyFR	2	TJ048
1794.896	8.195	2421889	REC_WORD_VV	8.195	n/a	<>	-999	14	n/a	n/a	pyFR	2	TJ048
1803.091	0.016	2430084	TRIAL	n/a	n/a	n/a	-999	15	n/a	n/a	pyFR	2	TJ048
1803.107	3.022	2430100	ORIENT	n/a	n/a	n/a	-999	15	n/a	n/a	pyFR	2	TJ048
1806.129	2.489	2433122	WORD	n/a	wordpools/wordpool_EN.txt	MUD	1	15	n/a	n/a	pyFR	2	TJ048
1808.618	2.588	2435611	WORD	n/a	wordpools/wordpool_EN.txt	SWAMP	2	15	n/a	n/a	pyFR	2	TJ048
1811.206	2.505	2438199	WORD	n/a	wordpools/wordpool_EN.txt	SLEEVE	3	15	n/a	n/a	pyFR	2	TJ048
1813.711	2.722	2440704	WORD	n/a	wordpools/wordpool_EN.txt	WING	4	15	n/a	n/a	pyFR	2	TJ048
1816.433	2.489	2443426	WORD	n/a	wordpools/wordpool_EN.txt	HAND	5	15	n/a	n/a	pyFR	2	TJ048
1818.922	2.755	2445915	WORD	n/a	wordpools/wordpool_EN.txt	DUCK	6	15	n/a	n/a	pyFR	2	TJ048
1821.677	2.488	2448670	WORD	n/a	wordpools/wordpool_EN.txt	ARK	7	15	n/a	n/a	pyFR	2	TJ048
1824.165	2.572	2451158	WORD	n/a	wordpools/wordpool_EN.txt	STRING	8	15	n/a	n/a	pyFR	2	TJ048
1826.737	2.689	2453730	WORD	n/a	wordpools/wordpool_EN.txt	CHEEK	9	15	n/a	n/a	pyFR	2	TJ048
1829.426	2.472	2456418	WORD	n/a	wordpools/wordpool_EN.txt	BARN	10	15	n/a	n/a	pyFR	2	TJ048
1831.898	2.521	2458890	WORD	n/a	wordpools/wordpool_EN.txt	BED	11	15	n/a	n/a	pyFR	2	TJ048
1834.419	2.773	2461411	WORD	n/a	wordpools/wordpool_EN.txt	PLATE	12	15	n/a	n/a	pyFR	2	TJ048
1837.192	2.588	2464184	WORD	n/a	wordpools/wordpool_EN.txt	FOX	13	15	n/a	n/a	pyFR	2	TJ048
1839.78	2.488	2466772	WORD	n/a	wordpools/wordpool_EN.txt	CLAY	14	15	n/a	n/a	pyFR	2	TJ048
1842.268	1.622	2469260	WORD	n/a	wordpools/wordpool_EN.txt	SEED	15	15	n/a	n/a	pyFR	2	TJ048
1843.89	0.917	2470882	START	n/a	n/a	n/a	n/a	15	[-999 -999 -999]	-999	pyFR	2	TJ048
1844.807	2.187	2471799	PROB	n/a	n/a	n/a	n/a	15	[8 3 2]	11	pyFR	2	TJ048
1846.994	5.563	2473986	PROB	n/a	n/a	n/a	n/a	15	[2 8 7]	17	pyFR	2	TJ048
1852.557	1.886	2479549	PROB	n/a	n/a	n/a	n/a	15	[2 8 9]	19	pyFR	2	TJ048
1854.443	4.525	2481435	PROB	n/a	n/a	n/a	n/a	15	[9 3 4]	16	pyFR	2	TJ048
1858.968	2.706	2485960	PROB	n/a	n/a	n/a	n/a	15	[2 4 4]	10	pyFR	2	TJ048
1861.674	2.406	2488666	PROB	n/a	n/a	n/a	n/a	15	[7 3 4]	14	pyFR	2	TJ048
1864.08	1.135	2491072	STOP	n/a	n/a	n/a	n/a	15	[-999 -999 -999]	-999	pyFR	2	TJ048
1865.215	0.588	2492207	REC_START	n/a	n/a	n/a	-999	15	n/a	n/a	pyFR	2	TJ048
1865.803	0.641	2492795	REC_WORD_VV	0.641	n/a	<>	-999	15	n/a	n/a	pyFR	2	TJ048
1866.444	1.312	2493436	REC_WORD_VV	1.312	n/a	<>	-999	15	n/a	n/a	pyFR	2	TJ048
1867.756	7.316	2494748	REC_WORD	7.316	n/a	MUD	-999	15	n/a	n/a	pyFR	2	TJ048
1875.072	11.529	2502064	REC_WORD_VV	11.529	n/a	<>	-999	15	n/a	n/a	pyFR	2	TJ048
1886.601	6.032	2513593	REC_WORD_VV	6.032	n/a	<>	-999	15	n/a	n/a	pyFR	2	TJ048
1892.633	1.0	2519625	REC_WORD_VV	1.0	n/a	<>	-999	15	n/a	n/a	pyFR	2	TJ048
1893.633	15.624	2520625	REC_WORD_VV	15.624	n/a	<>	-999	15	n/a	n/a	pyFR	2	TJ048
1909.257	3.771	2536249	REC_WORD_VV	3.771	n/a	<>	-999	15	n/a	n/a	pyFR	2	TJ048
1913.028	0.015	2540020	TRIAL	n/a	n/a	n/a	-999	16	n/a	n/a	pyFR	2	TJ048
1913.043	2.723	2540035	ORIENT	n/a	n/a	n/a	-999	16	n/a	n/a	pyFR	2	TJ048
1915.766	2.789	2542758	WORD	n/a	wordpools/wordpool_EN.txt	PIPE	1	16	n/a	n/a	pyFR	2	TJ048
1918.555	2.438	2545547	WORD	n/a	wordpools/wordpool_EN.txt	FLAME	2	16	n/a	n/a	pyFR	2	TJ048
1920.993	2.489	2547985	WORD	n/a	wordpools/wordpool_EN.txt	KING	3	16	n/a	n/a	pyFR	2	TJ048
1923.482	2.788	2550474	WORD	n/a	wordpools/wordpool_EN.txt	TIE	4	16	n/a	n/a	pyFR	2	TJ048
1926.27	2.488	2553262	WORD	n/a	wordpools/wordpool_EN.txt	BOMB	5	16	n/a	n/a	pyFR	2	TJ048
1928.758	2.489	2555750	WORD	n/a	wordpools/wordpool_EN.txt	LAMB	6	16	n/a	n/a	pyFR	2	TJ048
1931.247	2.638	2558239	WORD	n/a	wordpools/wordpool_EN.txt	HOUSE	7	16	n/a	n/a	pyFR	2	TJ048
1933.885	2.673	2560877	WORD	n/a	wordpools/wordpool_EN.txt	OWL	8	16	n/a	n/a	pyFR	2	TJ048
1936.558	2.454	2563550	WORD	n/a	wordpools/wordpool_EN.txt	RAIN	9	16	n/a	n/a	pyFR	2	TJ048
1939.012	2.523	2566004	WORD	n/a	wordpools/wordpool_EN.txt	CHIN	10	16	n/a	n/a	pyFR	2	TJ048
1941.535	2.621	2568527	WORD	n/a	wordpools/wordpool_EN.txt	GRAPE	11	16	n/a	n/a	pyFR	2	TJ048
1944.156	2.688	2571148	WORD	n/a	wordpools/wordpool_EN.txt	BOOT	12	16	n/a	n/a	pyFR	2	TJ048
1946.844	2.556	2573836	WORD	n/a	wordpools/wordpool_EN.txt	BAG	13	16	n/a	n/a	pyFR	2	TJ048
1949.4	2.805	2576392	WORD	n/a	wordpools/wordpool_EN.txt	GEESE	14	16	n/a	n/a	pyFR	2	TJ048
1952.205	1.622	2579197	WORD	n/a	wordpools/wordpool_EN.txt	BEE	15	16	n/a	n/a	pyFR	2	TJ048
1953.827	1.184	2580819	START	n/a	n/a	n/a	n/a	16	[-999 -999 -999]	-999	pyFR	2	TJ048
1955.011	4.141	2582003	PROB	n/a	n/a	n/a	n/a	16	[2 7 8]	17	pyFR	2	TJ048
1959.152	6.964	2586144	PROB	n/a	n/a	n/a	n/a	16	[9 8 6]	23	pyFR	2	TJ048
1966.116	2.423	2593108	PROB	n/a	n/a	n/a	n/a	16	[1 1 4]	6	pyFR	2	TJ048
1968.539	2.721	2595531	PROB	n/a	n/a	n/a	n/a	16	[1 6 3]	10	pyFR	2	TJ048
1971.26	1.971	2598252	PROB	n/a	n/a	n/a	n/a	16	[2 8 4]	14	pyFR	2	TJ048
1973.231	3.005	2600223	PROB	n/a	n/a	n/a	n/a	16	[3 8 7]	18	pyFR	2	TJ048
1976.236	1.17	2603228	STOP	n/a	n/a	n/a	n/a	16	[-999 -999 -999]	-999	pyFR	2	TJ048
1977.406	2.335	2604398	REC_START	n/a	n/a	n/a	-999	16	n/a	n/a	pyFR	2	TJ048
1979.741	1.183	2606733	REC_WORD	1.183	n/a	KING	-999	16	n/a	n/a	pyFR	2	TJ048
1980.924	1.373	2607916	REC_WORD	1.373	n/a	TIE	-999	16	n/a	n/a	pyFR	2	TJ048
1982.297	11.891	2609289	REC_WORD	11.891	n/a	BOMB	-999	16	n/a	n/a	pyFR	2	TJ048
1994.188	6.874	2621179	REC_WORD_VV	6.874	n/a	<>	-999	16	n/a	n/a	pyFR	2	TJ048
2001.062	16.791	2628053	REC_WORD	16.791	n/a	LAMB	-999	16	n/a	n/a	pyFR	2	TJ048
2017.853	520.311	2644844	REC_WORD_VV	520.311	n/a	<>	-999	16	n/a	n/a	pyFR	2	TJ048
2538.164	0.155	3165152	SESS_END	n/a	n/a	n/a	-999	16	n/a	n/a	pyFR	2	TJ048
2538.319	0.0	3165307	E	n/a	n/a	n/a	-999	16	n/a	n/a	pyFR	2	TJ048
