onset	duration	sample	trial_type	response_time	stim_file	item_name	serialpos	list	test	answer	experiment	session	subject
0.0	0.0	232065	SESS_START	n/a	n/a	n/a	-999	-999	n/a	n/a	pyFR	2	UP021
0.0	54.274	232065	B	n/a	n/a	n/a	-999	-999	n/a	n/a	pyFR	2	UP021
54.274	0.039	259855	START	n/a	n/a	n/a	n/a	0	[-999 -999 -999]	-999	pyFR	2	UP021
54.313	4.993	259875	PROB	4.953	n/a	n/a	n/a	0	[1 8 8]	17	pyFR	2	UP021
59.306	5.076	262432	PROB	5.031	n/a	n/a	n/a	0	[5 2 3]	10	pyFR	2	UP021
64.382	5.009	265031	PROB	4.964	n/a	n/a	n/a	0	[1 3 6]	10	pyFR	2	UP021
69.391	7.981	267596	PROB	7.93	n/a	n/a	n/a	0	[9 3 9]	21	pyFR	2	UP021
77.372	4.693	271682	PROB	4.638	n/a	n/a	n/a	0	[5 6 9]	20	pyFR	2	UP021
82.065	3.321	274085	PROB	3.321	n/a	n/a	n/a	0	[2 6 4]	12	pyFR	2	UP021
85.386	54.904	275785	STOP	n/a	n/a	n/a	n/a	0	[-999 -999 -999]	-999	pyFR	2	UP021
140.29	0.014	303898	TRIAL	n/a	n/a	n/a	-999	-999	n/a	n/a	pyFR	2	UP021
140.304	2.64	303905	ORIENT	n/a	n/a	n/a	-999	-999	n/a	n/a	pyFR	2	UP021
142.944	2.77	305257	WORD	n/a	wordpools/wordpool_EN.txt	SUIT	1	1	n/a	n/a	pyFR	2	UP021
145.714	2.588	306675	WORD	n/a	wordpools/wordpool_EN.txt	WHALE	2	1	n/a	n/a	pyFR	2	UP021
148.302	2.538	308000	WORD	n/a	wordpools/wordpool_EN.txt	SHELL	3	1	n/a	n/a	pyFR	2	UP021
150.84	2.672	309300	WORD	n/a	wordpools/wordpool_EN.txt	LAWN	4	1	n/a	n/a	pyFR	2	UP021
153.512	2.472	310668	WORD	n/a	wordpools/wordpool_EN.txt	NEST	5	1	n/a	n/a	pyFR	2	UP021
155.984	2.587	311934	WORD	n/a	wordpools/wordpool_EN.txt	HOSE	6	1	n/a	n/a	pyFR	2	UP021
158.571	2.439	313259	WORD	n/a	wordpools/wordpool_EN.txt	SHIP	7	1	n/a	n/a	pyFR	2	UP021
161.01	2.771	314507	WORD	n/a	wordpools/wordpool_EN.txt	STAR	8	1	n/a	n/a	pyFR	2	UP021
163.781	2.638	315926	WORD	n/a	wordpools/wordpool_EN.txt	PIE	9	1	n/a	n/a	pyFR	2	UP021
166.419	2.79	317277	WORD	n/a	wordpools/wordpool_EN.txt	SPONGE	10	1	n/a	n/a	pyFR	2	UP021
169.209	2.805	318706	WORD	n/a	wordpools/wordpool_EN.txt	GOAT	11	1	n/a	n/a	pyFR	2	UP021
172.014	2.754	320142	WORD	n/a	wordpools/wordpool_EN.txt	ELF	12	1	n/a	n/a	pyFR	2	UP021
174.768	2.472	321552	WORD	n/a	wordpools/wordpool_EN.txt	HEN	13	1	n/a	n/a	pyFR	2	UP021
177.24	2.654	322818	WORD	n/a	wordpools/wordpool_EN.txt	ZOO	14	1	n/a	n/a	pyFR	2	UP021
179.894	1.604	324177	WORD	n/a	wordpools/wordpool_EN.txt	KING	15	1	n/a	n/a	pyFR	2	UP021
181.498	1.001	324998	START	n/a	n/a	n/a	n/a	1	[-999 -999 -999]	-999	pyFR	2	UP021
182.499	4.659	325510	PROB	4.607	n/a	n/a	n/a	1	[1 5 5]	11	pyFR	2	UP021
187.158	4.574	327896	PROB	4.523	n/a	n/a	n/a	1	[5 1 4]	10	pyFR	2	UP021
191.732	6.229	330238	PROB	6.173	n/a	n/a	n/a	1	[5 2 7]	14	pyFR	2	UP021
197.961	5.105	333428	PROB	5.105	n/a	n/a	n/a	1	[2 5 7]	14	pyFR	2	UP021
203.066	1.191	336041	STOP	n/a	n/a	n/a	n/a	1	[-999 -999 -999]	-999	pyFR	2	UP021
204.257	1.211	336651	REC_START	n/a	n/a	n/a	-999	-999	n/a	n/a	pyFR	2	UP021
205.468	1.162	337271	REC_WORD	1.211	n/a	SUIT	-999	1	n/a	n/a	pyFR	2	UP021
206.63	1.788	337866	REC_WORD	2.373	n/a	WHALE	-999	1	n/a	n/a	pyFR	2	UP021
208.418	3.071	338782	REC_WORD	4.161	n/a	<>	-999	1	n/a	n/a	pyFR	2	UP021
211.489	1.112	340354	REC_WORD	7.232	n/a	<>	-999	1	n/a	n/a	pyFR	2	UP021
212.601	1.678	340924	REC_WORD	8.344	n/a	HOUSE	-999	1	n/a	n/a	pyFR	2	UP021
214.279	2.681	341783	REC_WORD	10.022	n/a	STAR	-999	1	n/a	n/a	pyFR	2	UP021
216.96	4.318	343156	REC_WORD	12.703	n/a	<>	-999	1	n/a	n/a	pyFR	2	UP021
221.278	5.896	345367	REC_WORD	17.021	n/a	SHEEP	-999	1	n/a	n/a	pyFR	2	UP021
227.174	2.034	348386	REC_WORD	22.917	n/a	<>	-999	1	n/a	n/a	pyFR	2	UP021
229.208	3.808	349427	REC_WORD	24.951	n/a	<>	-999	1	n/a	n/a	pyFR	2	UP021
233.016	3.89	351377	REC_WORD	28.759	n/a	ZOO	-999	1	n/a	n/a	pyFR	2	UP021
236.906	7.195	353369	REC_WORD	32.649	n/a	<>	-999	1	n/a	n/a	pyFR	2	UP021
244.101	29.416	357053	REC_WORD	39.844	n/a	NEST	-999	1	n/a	n/a	pyFR	2	UP021
273.517	0.016	372115	TRIAL	n/a	n/a	n/a	-999	-999	n/a	n/a	pyFR	2	UP021
273.533	2.888	372123	ORIENT	n/a	n/a	n/a	-999	-999	n/a	n/a	pyFR	2	UP021
276.421	2.623	373602	WORD	n/a	wordpools/wordpool_EN.txt	GEESE	1	2	n/a	n/a	pyFR	2	UP021
279.044	2.62	374945	WORD	n/a	wordpools/wordpool_EN.txt	STOVE	2	2	n/a	n/a	pyFR	2	UP021
281.664	2.739	376286	WORD	n/a	wordpools/wordpool_EN.txt	BED	3	2	n/a	n/a	pyFR	2	UP021
284.403	2.739	377689	WORD	n/a	wordpools/wordpool_EN.txt	TAIL	4	2	n/a	n/a	pyFR	2	UP021
287.142	2.57	379091	WORD	n/a	wordpools/wordpool_EN.txt	SHIRT	5	2	n/a	n/a	pyFR	2	UP021
289.712	2.705	380407	WORD	n/a	wordpools/wordpool_EN.txt	SQUARE	6	2	n/a	n/a	pyFR	2	UP021
292.417	2.455	381792	WORD	n/a	wordpools/wordpool_EN.txt	SOUP	7	2	n/a	n/a	pyFR	2	UP021
294.872	2.554	383049	WORD	n/a	wordpools/wordpool_EN.txt	DAD	8	2	n/a	n/a	pyFR	2	UP021
297.426	2.69	384357	WORD	n/a	wordpools/wordpool_EN.txt	LOCK	9	2	n/a	n/a	pyFR	2	UP021
300.116	2.787	385734	WORD	n/a	wordpools/wordpool_EN.txt	FUR	10	2	n/a	n/a	pyFR	2	UP021
302.903	2.471	387161	WORD	n/a	wordpools/wordpool_EN.txt	PET	11	2	n/a	n/a	pyFR	2	UP021
305.374	2.79	388426	WORD	n/a	wordpools/wordpool_EN.txt	BRUSH	12	2	n/a	n/a	pyFR	2	UP021
308.164	2.587	389855	WORD	n/a	wordpools/wordpool_EN.txt	BARN	13	2	n/a	n/a	pyFR	2	UP021
310.751	2.472	391180	WORD	n/a	wordpools/wordpool_EN.txt	GATE	14	2	n/a	n/a	pyFR	2	UP021
313.223	1.62	392445	WORD	n/a	wordpools/wordpool_EN.txt	SPEAR	15	2	n/a	n/a	pyFR	2	UP021
314.843	1.051	393275	START	n/a	n/a	n/a	n/a	2	[-999 -999 -999]	-999	pyFR	2	UP021
315.894	4.859	393813	PROB	4.811	n/a	n/a	n/a	2	[2 4 6]	12	pyFR	2	UP021
320.753	5.159	396301	PROB	5.105	n/a	n/a	n/a	2	[8 2 8]	18	pyFR	2	UP021
325.912	4.259	398943	PROB	4.211	n/a	n/a	n/a	2	[4 1 1]	6	pyFR	2	UP021
330.171	10.471	401123	PROB	10.471	n/a	n/a	n/a	2	[3 9 9]	21	pyFR	2	UP021
340.642	1.2	406485	STOP	n/a	n/a	n/a	n/a	2	[-999 -999 -999]	-999	pyFR	2	UP021
341.842	1.048	407099	REC_START	n/a	n/a	n/a	-999	-999	n/a	n/a	pyFR	2	UP021
342.89	2.823	407636	REC_WORD	1.048	n/a	BRUSH	-999	2	n/a	n/a	pyFR	2	UP021
345.713	1.199	409081	REC_WORD	3.871	n/a	<>	-999	2	n/a	n/a	pyFR	2	UP021
346.912	2.456	409695	REC_WORD	5.07	n/a	PAINT	-999	2	n/a	n/a	pyFR	2	UP021
349.368	2.087	410953	REC_WORD	7.526	n/a	<>	-999	2	n/a	n/a	pyFR	2	UP021
351.455	1.0	412021	REC_WORD	9.613	n/a	SHED	-999	2	n/a	n/a	pyFR	2	UP021
352.455	2.259	412533	REC_WORD	10.613	n/a	<>	-999	2	n/a	n/a	pyFR	2	UP021
354.714	1.523	413690	REC_WORD	12.872	n/a	DAD	-999	2	n/a	n/a	pyFR	2	UP021
356.237	16.548	414470	REC_WORD	14.395	n/a	OVEN	-999	2	n/a	n/a	pyFR	2	UP021
372.785	84.437	422943	REC_WORD	30.943	n/a	SKY	-999	2	n/a	n/a	pyFR	2	UP021
457.222	0.016	466178	TRIAL	n/a	n/a	n/a	-999	-999	n/a	n/a	pyFR	2	UP021
457.238	2.905	466186	ORIENT	n/a	n/a	n/a	-999	-999	n/a	n/a	pyFR	2	UP021
460.143	2.621	467673	WORD	n/a	wordpools/wordpool_EN.txt	CHIN	1	3	n/a	n/a	pyFR	2	UP021
462.764	2.489	469015	WORD	n/a	wordpools/wordpool_EN.txt	NOSE	2	3	n/a	n/a	pyFR	2	UP021
465.253	2.653	470290	WORD	n/a	wordpools/wordpool_EN.txt	SAIL	3	3	n/a	n/a	pyFR	2	UP021
467.906	2.572	471648	WORD	n/a	wordpools/wordpool_EN.txt	CORN	4	3	n/a	n/a	pyFR	2	UP021
470.478	2.639	472965	WORD	n/a	wordpools/wordpool_EN.txt	KEY	5	3	n/a	n/a	pyFR	2	UP021
473.117	2.47	474316	WORD	n/a	wordpools/wordpool_EN.txt	PHONE	6	3	n/a	n/a	pyFR	2	UP021
475.587	2.456	475581	WORD	n/a	wordpools/wordpool_EN.txt	DITCH	7	3	n/a	n/a	pyFR	2	UP021
478.043	2.754	476839	WORD	n/a	wordpools/wordpool_EN.txt	HAWK	8	3	n/a	n/a	pyFR	2	UP021
480.797	2.655	478249	WORD	n/a	wordpools/wordpool_EN.txt	MOTH	9	3	n/a	n/a	pyFR	2	UP021
483.452	2.639	479608	WORD	n/a	wordpools/wordpool_EN.txt	DIME	10	3	n/a	n/a	pyFR	2	UP021
486.091	2.62	480959	WORD	n/a	wordpools/wordpool_EN.txt	PEARL	11	3	n/a	n/a	pyFR	2	UP021
488.711	2.755	482301	WORD	n/a	wordpools/wordpool_EN.txt	OWL	12	3	n/a	n/a	pyFR	2	UP021
491.466	2.455	483712	WORD	n/a	wordpools/wordpool_EN.txt	EAR	13	3	n/a	n/a	pyFR	2	UP021
493.921	2.805	484969	WORD	n/a	wordpools/wordpool_EN.txt	CROWN	14	3	n/a	n/a	pyFR	2	UP021
496.726	1.621	486405	WORD	n/a	wordpools/wordpool_EN.txt	PIPE	15	3	n/a	n/a	pyFR	2	UP021
498.347	1.201	487235	START	n/a	n/a	n/a	n/a	3	[-999 -999 -999]	-999	pyFR	2	UP021
499.548	7.565	487850	PROB	7.51	n/a	n/a	n/a	3	[1 3 6]	10	pyFR	2	UP021
507.113	3.857	491723	PROB	3.809	n/a	n/a	n/a	3	[2 3 8]	13	pyFR	2	UP021
510.97	3.455	493698	PROB	3.407	n/a	n/a	n/a	3	[7 1 3]	11	pyFR	2	UP021
514.425	5.785	495467	PROB	5.785	n/a	n/a	n/a	3	[4 9 4]	1	pyFR	2	UP021
520.21	1.145	498429	STOP	n/a	n/a	n/a	n/a	3	[-999 -999 -999]	-999	pyFR	2	UP021
521.355	0.308	499016	REC_START	n/a	n/a	n/a	-999	-999	n/a	n/a	pyFR	2	UP021
521.663	1.425	499173	REC_WORD	0.308	n/a	<>	-999	3	n/a	n/a	pyFR	2	UP021
523.088	1.043	499903	REC_WORD	1.733	n/a	CHIN	-999	3	n/a	n/a	pyFR	2	UP021
524.131	0.928	500437	REC_WORD	2.776	n/a	NOSE	-999	3	n/a	n/a	pyFR	2	UP021
525.059	5.2	500912	REC_WORD	3.704	n/a	MOUTH	-999	3	n/a	n/a	pyFR	2	UP021
530.259	1.927	503575	REC_WORD	8.904	n/a	EAR	-999	3	n/a	n/a	pyFR	2	UP021
532.186	3.437	504561	REC_WORD	10.831	n/a	<>	-999	3	n/a	n/a	pyFR	2	UP021
535.623	3.478	506321	REC_WORD	14.268	n/a	OWL	-999	3	n/a	n/a	pyFR	2	UP021
539.101	4.331	508102	REC_WORD	17.746	n/a	<>	-999	3	n/a	n/a	pyFR	2	UP021
543.432	38.952	510320	REC_WORD	22.077	n/a	HAWK	-999	3	n/a	n/a	pyFR	2	UP021
582.384	0.016	530264	TRIAL	n/a	n/a	n/a	-999	-999	n/a	n/a	pyFR	2	UP021
582.4	2.739	530273	ORIENT	n/a	n/a	n/a	-999	-999	n/a	n/a	pyFR	2	UP021
585.139	2.521	531675	WORD	n/a	wordpools/wordpool_EN.txt	RAIN	1	4	n/a	n/a	pyFR	2	UP021
587.66	2.721	532966	WORD	n/a	wordpools/wordpool_EN.txt	NAIL	2	4	n/a	n/a	pyFR	2	UP021
590.381	2.488	534359	WORD	n/a	wordpools/wordpool_EN.txt	BATH	3	4	n/a	n/a	pyFR	2	UP021
592.869	2.805	535633	WORD	n/a	wordpools/wordpool_EN.txt	RIB	4	4	n/a	n/a	pyFR	2	UP021
595.674	2.672	537069	WORD	n/a	wordpools/wordpool_EN.txt	BRANCH	5	4	n/a	n/a	pyFR	2	UP021
598.346	2.571	538438	WORD	n/a	wordpools/wordpool_EN.txt	TOAD	6	4	n/a	n/a	pyFR	2	UP021
600.917	2.789	539754	WORD	n/a	wordpools/wordpool_EN.txt	PASTE	7	4	n/a	n/a	pyFR	2	UP021
603.706	2.705	541182	WORD	n/a	wordpools/wordpool_EN.txt	OAR	8	4	n/a	n/a	pyFR	2	UP021
606.411	2.606	542567	WORD	n/a	wordpools/wordpool_EN.txt	WAVE	9	4	n/a	n/a	pyFR	2	UP021
609.017	2.637	543901	WORD	n/a	wordpools/wordpool_EN.txt	MOUSE	10	4	n/a	n/a	pyFR	2	UP021
611.654	2.671	545252	WORD	n/a	wordpools/wordpool_EN.txt	TOE	11	4	n/a	n/a	pyFR	2	UP021
614.325	2.69	546619	WORD	n/a	wordpools/wordpool_EN.txt	HOOF	12	4	n/a	n/a	pyFR	2	UP021
617.015	2.57	547997	WORD	n/a	wordpools/wordpool_EN.txt	COAT	13	4	n/a	n/a	pyFR	2	UP021
619.585	2.656	549313	WORD	n/a	wordpools/wordpool_EN.txt	DART	14	4	n/a	n/a	pyFR	2	UP021
622.241	1.62	550673	WORD	n/a	wordpools/wordpool_EN.txt	CAVE	15	4	n/a	n/a	pyFR	2	UP021
623.861	0.85	551502	START	n/a	n/a	n/a	n/a	4	[-999 -999 -999]	-999	pyFR	2	UP021
624.711	4.709	551937	PROB	4.666	n/a	n/a	n/a	4	[5 1 2]	8	pyFR	2	UP021
629.42	4.241	554348	PROB	4.189	n/a	n/a	n/a	4	[8 2 8]	18	pyFR	2	UP021
633.661	4.376	556520	PROB	4.334	n/a	n/a	n/a	4	[1 6 3]	10	pyFR	2	UP021
638.037	4.59	558761	PROB	4.54	n/a	n/a	n/a	4	[3 6 7]	16	pyFR	2	UP021
642.627	5.222	561111	PROB	5.222	n/a	n/a	n/a	4	[4 2 8]	14	pyFR	2	UP021
647.849	1.175	563785	STOP	n/a	n/a	n/a	n/a	4	[-999 -999 -999]	-999	pyFR	2	UP021
649.024	3.311	564386	REC_START	n/a	n/a	n/a	-999	-999	n/a	n/a	pyFR	2	UP021
652.335	2.979	566082	REC_WORD	3.311	n/a	CAVE	-999	4	n/a	n/a	pyFR	2	UP021
655.314	4.594	567607	REC_WORD	6.29	n/a	TOE	-999	4	n/a	n/a	pyFR	2	UP021
659.908	0.84	569959	REC_WORD	10.884	n/a	<>	-999	4	n/a	n/a	pyFR	2	UP021
660.748	3.203	570389	REC_WORD	11.724	n/a	COAT	-999	4	n/a	n/a	pyFR	2	UP021
663.951	6.896	572029	REC_WORD	14.927	n/a	CALF	-999	4	n/a	n/a	pyFR	2	UP021
670.847	1.0	575560	REC_WORD	21.823	n/a	<>	-999	4	n/a	n/a	pyFR	2	UP021
671.847	3.574	576072	REC_WORD	22.823	n/a	<>	-999	4	n/a	n/a	pyFR	2	UP021
675.421	8.254	577902	REC_WORD	26.397	n/a	OAR	-999	4	n/a	n/a	pyFR	2	UP021
683.675	55.097	582129	REC_WORD	34.651	n/a	RAIN	-999	4	n/a	n/a	pyFR	2	UP021
738.772	0.015	610340	TRIAL	n/a	n/a	n/a	-999	-999	n/a	n/a	pyFR	2	UP021
738.787	2.655	610348	ORIENT	n/a	n/a	n/a	-999	-999	n/a	n/a	pyFR	2	UP021
741.442	2.606	611707	WORD	n/a	wordpools/wordpool_EN.txt	HOLE	1	5	n/a	n/a	pyFR	2	UP021
744.048	2.771	613042	WORD	n/a	wordpools/wordpool_EN.txt	CUBE	2	5	n/a	n/a	pyFR	2	UP021
746.819	2.788	614461	WORD	n/a	wordpools/wordpool_EN.txt	CART	3	5	n/a	n/a	pyFR	2	UP021
749.607	2.673	615888	WORD	n/a	wordpools/wordpool_EN.txt	CLOWN	4	5	n/a	n/a	pyFR	2	UP021
752.28	2.503	617257	WORD	n/a	wordpools/wordpool_EN.txt	HORN	5	5	n/a	n/a	pyFR	2	UP021
754.783	2.722	618538	WORD	n/a	wordpools/wordpool_EN.txt	BIRD	6	5	n/a	n/a	pyFR	2	UP021
757.505	2.556	619932	WORD	n/a	wordpools/wordpool_EN.txt	SNOW	7	5	n/a	n/a	pyFR	2	UP021
760.061	2.654	621241	WORD	n/a	wordpools/wordpool_EN.txt	CALF	8	5	n/a	n/a	pyFR	2	UP021
762.715	2.604	622600	WORD	n/a	wordpools/wordpool_EN.txt	ICE	9	5	n/a	n/a	pyFR	2	UP021
765.319	2.656	623933	WORD	n/a	wordpools/wordpool_EN.txt	CASH	10	5	n/a	n/a	pyFR	2	UP021
767.975	2.521	625293	WORD	n/a	wordpools/wordpool_EN.txt	FOOD	11	5	n/a	n/a	pyFR	2	UP021
770.496	2.756	626584	WORD	n/a	wordpools/wordpool_EN.txt	SMILE	12	5	n/a	n/a	pyFR	2	UP021
773.252	2.705	627995	WORD	n/a	wordpools/wordpool_EN.txt	MUD	13	5	n/a	n/a	pyFR	2	UP021
775.957	2.77	629380	WORD	n/a	wordpools/wordpool_EN.txt	BOWL	14	5	n/a	n/a	pyFR	2	UP021
778.727	1.605	630798	WORD	n/a	wordpools/wordpool_EN.txt	GOLD	15	5	n/a	n/a	pyFR	2	UP021
780.332	1.0	631620	START	n/a	n/a	n/a	n/a	5	[-999 -999 -999]	-999	pyFR	2	UP021
781.332	6.579	632132	PROB	6.526	n/a	n/a	n/a	5	[3 8 2]	13	pyFR	2	UP021
787.911	4.025	635501	PROB	3.97	n/a	n/a	n/a	5	[3 6 4]	13	pyFR	2	UP021
791.936	2.838	637562	PROB	2.793	n/a	n/a	n/a	5	[5 5 1]	11	pyFR	2	UP021
794.774	4.692	639015	PROB	4.651	n/a	n/a	n/a	5	[4 8 6]	18	pyFR	2	UP021
799.466	4.047	641417	PROB	4.047	n/a	n/a	n/a	5	[6 6 5]	17	pyFR	2	UP021
803.513	1.18	643490	STOP	n/a	n/a	n/a	n/a	5	[-999 -999 -999]	-999	pyFR	2	UP021
804.693	2.027	644094	REC_START	n/a	n/a	n/a	-999	-999	n/a	n/a	pyFR	2	UP021
806.72	2.447	645132	REC_WORD	2.027	n/a	BOWL	-999	5	n/a	n/a	pyFR	2	UP021
809.167	3.597	646385	REC_WORD	4.474	n/a	MUD	-999	5	n/a	n/a	pyFR	2	UP021
812.764	1.315	648226	REC_WORD	8.071	n/a	<>	-999	5	n/a	n/a	pyFR	2	UP021
814.079	3.516	648900	REC_WORD	9.386	n/a	CALF	-999	5	n/a	n/a	pyFR	2	UP021
817.595	4.568	650700	REC_WORD	12.902	n/a	ICE	-999	5	n/a	n/a	pyFR	2	UP021
822.163	5.035	653039	REC_WORD	17.47	n/a	<>	-999	5	n/a	n/a	pyFR	2	UP021
827.198	47.657	655617	REC_WORD	22.505	n/a	<>	-999	5	n/a	n/a	pyFR	2	UP021
874.855	0.016	680019	TRIAL	n/a	n/a	n/a	-999	-999	n/a	n/a	pyFR	2	UP021
874.871	2.771	680027	ORIENT	n/a	n/a	n/a	-999	-999	n/a	n/a	pyFR	2	UP021
877.642	2.423	681446	WORD	n/a	wordpools/wordpool_EN.txt	BAT	1	6	n/a	n/a	pyFR	2	UP021
880.065	2.52	682687	WORD	n/a	wordpools/wordpool_EN.txt	PIT	2	6	n/a	n/a	pyFR	2	UP021
882.585	2.656	683977	WORD	n/a	wordpools/wordpool_EN.txt	PIN	3	6	n/a	n/a	pyFR	2	UP021
885.241	2.57	685337	WORD	n/a	wordpools/wordpool_EN.txt	FRUIT	4	6	n/a	n/a	pyFR	2	UP021
887.811	2.472	686653	WORD	n/a	wordpools/wordpool_EN.txt	FOG	5	6	n/a	n/a	pyFR	2	UP021
890.283	2.537	687919	WORD	n/a	wordpools/wordpool_EN.txt	SOCK	6	6	n/a	n/a	pyFR	2	UP021
892.82	2.689	689218	WORD	n/a	wordpools/wordpool_EN.txt	JAIL	7	6	n/a	n/a	pyFR	2	UP021
895.509	2.756	690595	WORD	n/a	wordpools/wordpool_EN.txt	PANTS	8	6	n/a	n/a	pyFR	2	UP021
898.265	2.537	692006	WORD	n/a	wordpools/wordpool_EN.txt	FLOOR	9	6	n/a	n/a	pyFR	2	UP021
900.802	2.738	693305	WORD	n/a	wordpools/wordpool_EN.txt	WEED	10	6	n/a	n/a	pyFR	2	UP021
903.54	2.606	694707	WORD	n/a	wordpools/wordpool_EN.txt	FROG	11	6	n/a	n/a	pyFR	2	UP021
906.146	2.554	696041	WORD	n/a	wordpools/wordpool_EN.txt	CROW	12	6	n/a	n/a	pyFR	2	UP021
908.7	2.721	697349	WORD	n/a	wordpools/wordpool_EN.txt	DOOR	13	6	n/a	n/a	pyFR	2	UP021
911.421	2.472	698742	WORD	n/a	wordpools/wordpool_EN.txt	BOARD	14	6	n/a	n/a	pyFR	2	UP021
913.893	1.621	700008	WORD	n/a	wordpools/wordpool_EN.txt	STOOL	15	6	n/a	n/a	pyFR	2	UP021
915.514	1.1	700838	START	n/a	n/a	n/a	n/a	6	[-999 -999 -999]	-999	pyFR	2	UP021
916.614	7.615	701401	PROB	7.565	n/a	n/a	n/a	6	[8 6 1]	15	pyFR	2	UP021
924.229	3.891	705300	PROB	3.837	n/a	n/a	n/a	6	[4 4 2]	10	pyFR	2	UP021
928.12	3.589	707292	PROB	3.537	n/a	n/a	n/a	6	[6 6 4]	14	pyFR	2	UP021
931.709	17.533	709130	PROB	17.533	n/a	n/a	n/a	6	[7 2 6]	15	pyFR	2	UP021
949.242	1.135	718108	STOP	n/a	n/a	n/a	n/a	6	[-999 -999 -999]	-999	pyFR	2	UP021
950.377	1.137	718689	REC_START	n/a	n/a	n/a	-999	-999	n/a	n/a	pyFR	2	UP021
951.514	0.867	719271	REC_WORD	1.137	n/a	<>	-999	6	n/a	n/a	pyFR	2	UP021
952.381	3.352	719715	REC_WORD	2.004	n/a	PIN	-999	6	n/a	n/a	pyFR	2	UP021
955.733	1.0	721431	REC_WORD	5.356	n/a	SIT	-999	6	n/a	n/a	pyFR	2	UP021
956.733	3.902	721943	REC_WORD	6.356	n/a	<>	-999	6	n/a	n/a	pyFR	2	UP021
960.635	3.017	723941	REC_WORD	10.258	n/a	STOOL	-999	6	n/a	n/a	pyFR	2	UP021
963.652	7.047	725486	REC_WORD	13.275	n/a	<>	-999	6	n/a	n/a	pyFR	2	UP021
970.699	2.276	729094	REC_WORD	20.322	n/a	SOCK	-999	6	n/a	n/a	pyFR	2	UP021
972.975	1.039	730260	REC_WORD	22.598	n/a	FLOOR	-999	6	n/a	n/a	pyFR	2	UP021
974.014	46.292	730792	REC_WORD	23.637	n/a	DOOR	-999	6	n/a	n/a	pyFR	2	UP021
1020.306	0.015	754495	TRIAL	n/a	n/a	n/a	-999	-999	n/a	n/a	pyFR	2	UP021
1020.321	2.907	754502	ORIENT	n/a	n/a	n/a	-999	-999	n/a	n/a	pyFR	2	UP021
1023.228	2.721	755991	WORD	n/a	wordpools/wordpool_EN.txt	VINE	1	7	n/a	n/a	pyFR	2	UP021
1025.949	2.521	757384	WORD	n/a	wordpools/wordpool_EN.txt	SUN	2	7	n/a	n/a	pyFR	2	UP021
1028.47	2.789	758675	WORD	n/a	wordpools/wordpool_EN.txt	BAG	3	7	n/a	n/a	pyFR	2	UP021
1031.259	2.47	760103	WORD	n/a	wordpools/wordpool_EN.txt	GLOVE	4	7	n/a	n/a	pyFR	2	UP021
1033.729	2.755	761368	WORD	n/a	wordpools/wordpool_EN.txt	DOG	5	7	n/a	n/a	pyFR	2	UP021
1036.484	2.456	762778	WORD	n/a	wordpools/wordpool_EN.txt	FAN	6	7	n/a	n/a	pyFR	2	UP021
1038.94	2.554	764036	WORD	n/a	wordpools/wordpool_EN.txt	ROAD	7	7	n/a	n/a	pyFR	2	UP021
1041.494	2.572	765344	WORD	n/a	wordpools/wordpool_EN.txt	SHARK	8	7	n/a	n/a	pyFR	2	UP021
1044.066	2.604	766661	WORD	n/a	wordpools/wordpool_EN.txt	VEST	9	7	n/a	n/a	pyFR	2	UP021
1046.67	2.589	767994	WORD	n/a	wordpools/wordpool_EN.txt	KITE	10	7	n/a	n/a	pyFR	2	UP021
1049.259	2.671	769320	WORD	n/a	wordpools/wordpool_EN.txt	PARK	11	7	n/a	n/a	pyFR	2	UP021
1051.93	2.537	770687	WORD	n/a	wordpools/wordpool_EN.txt	CAR	12	7	n/a	n/a	pyFR	2	UP021
1054.467	2.773	771986	WORD	n/a	wordpools/wordpool_EN.txt	MOON	13	7	n/a	n/a	pyFR	2	UP021
1057.24	2.604	773406	WORD	n/a	wordpools/wordpool_EN.txt	INK	14	7	n/a	n/a	pyFR	2	UP021
1059.844	1.621	774739	WORD	n/a	wordpools/wordpool_EN.txt	BOOT	15	7	n/a	n/a	pyFR	2	UP021
1061.465	0.917	775569	START	n/a	n/a	n/a	n/a	7	[-999 -999 -999]	-999	pyFR	2	UP021
1062.382	4.86	776039	PROB	4.82	n/a	n/a	n/a	7	[2 3 1]	6	pyFR	2	UP021
1067.242	6.963	778527	PROB	6.92	n/a	n/a	n/a	7	[1 9 9]	19	pyFR	2	UP021
1074.205	4.691	782093	PROB	4.645	n/a	n/a	n/a	7	[6 8 4]	18	pyFR	2	UP021
1078.896	5.122	784495	PROB	5.122	n/a	n/a	n/a	7	[6 5 4]	15	pyFR	2	UP021
1084.018	1.208	787117	STOP	n/a	n/a	n/a	n/a	7	[-999 -999 -999]	-999	pyFR	2	UP021
1085.226	1.269	787736	REC_START	n/a	n/a	n/a	-999	-999	n/a	n/a	pyFR	2	UP021
1086.495	3.056	788386	REC_WORD	1.269	n/a	<>	-999	7	n/a	n/a	pyFR	2	UP021
1089.551	3.535	789950	REC_WORD	4.325	n/a	INK	-999	7	n/a	n/a	pyFR	2	UP021
1093.086	6.442	791760	REC_WORD	7.86	n/a	<>	-999	7	n/a	n/a	pyFR	2	UP021
1099.528	22.025	795059	REC_WORD	14.302	n/a	SHARK	-999	7	n/a	n/a	pyFR	2	UP021
1121.553	50.231	806336	REC_WORD	36.327	n/a	CAR	-999	7	n/a	n/a	pyFR	2	UP021
1171.784	0.016	832056	TRIAL	n/a	n/a	n/a	-999	-999	n/a	n/a	pyFR	2	UP021
1171.8	2.955	832065	ORIENT	n/a	n/a	n/a	-999	-999	n/a	n/a	pyFR	2	UP021
1174.755	2.588	833578	WORD	n/a	wordpools/wordpool_EN.txt	SKI	1	8	n/a	n/a	pyFR	2	UP021
1177.343	2.806	834903	WORD	n/a	wordpools/wordpool_EN.txt	DUCK	2	8	n/a	n/a	pyFR	2	UP021
1180.149	2.638	836339	WORD	n/a	wordpools/wordpool_EN.txt	ANT	3	8	n/a	n/a	pyFR	2	UP021
1182.787	2.588	837690	WORD	n/a	wordpools/wordpool_EN.txt	SHEET	4	8	n/a	n/a	pyFR	2	UP021
1185.375	2.572	839015	WORD	n/a	wordpools/wordpool_EN.txt	THREAD	5	8	n/a	n/a	pyFR	2	UP021
1187.947	2.62	840332	WORD	n/a	wordpools/wordpool_EN.txt	MAT	6	8	n/a	n/a	pyFR	2	UP021
1190.567	2.506	841674	WORD	n/a	wordpools/wordpool_EN.txt	TENT	7	8	n/a	n/a	pyFR	2	UP021
1193.073	2.637	842957	WORD	n/a	wordpools/wordpool_EN.txt	ROOF	8	8	n/a	n/a	pyFR	2	UP021
1195.71	2.622	844307	WORD	n/a	wordpools/wordpool_EN.txt	JUDGE	9	8	n/a	n/a	pyFR	2	UP021
1198.332	2.571	845650	WORD	n/a	wordpools/wordpool_EN.txt	FORK	10	8	n/a	n/a	pyFR	2	UP021
1200.903	2.755	846966	WORD	n/a	wordpools/wordpool_EN.txt	WOOD	11	8	n/a	n/a	pyFR	2	UP021
1203.658	2.523	848377	WORD	n/a	wordpools/wordpool_EN.txt	TOOTH	12	8	n/a	n/a	pyFR	2	UP021
1206.181	2.453	849669	WORD	n/a	wordpools/wordpool_EN.txt	BADGE	13	8	n/a	n/a	pyFR	2	UP021
1208.634	2.755	850925	WORD	n/a	wordpools/wordpool_EN.txt	STICK	14	8	n/a	n/a	pyFR	2	UP021
1211.389	1.606	852335	WORD	n/a	wordpools/wordpool_EN.txt	MILK	15	8	n/a	n/a	pyFR	2	UP021
1212.995	0.95	853158	START	n/a	n/a	n/a	n/a	8	[-999 -999 -999]	-999	pyFR	2	UP021
1213.945	13.024	853644	PROB	12.968	n/a	n/a	n/a	8	[8 9 8]	25	pyFR	2	UP021
1226.969	7.744	860313	PROB	7.744	n/a	n/a	n/a	8	[5 5 5]	15	pyFR	2	UP021
1234.713	1.189	864278	STOP	n/a	n/a	n/a	n/a	8	[-999 -999 -999]	-999	pyFR	2	UP021
1235.902	1.061	864887	REC_START	n/a	n/a	n/a	-999	-999	n/a	n/a	pyFR	2	UP021
1236.963	1.0	865430	REC_WORD	1.061	n/a	<>	-999	8	n/a	n/a	pyFR	2	UP021
1237.963	0.978	865942	REC_WORD	2.061	n/a	<>	-999	8	n/a	n/a	pyFR	2	UP021
1238.941	3.024	866443	REC_WORD	3.039	n/a	STICK	-999	8	n/a	n/a	pyFR	2	UP021
1241.965	0.999	867991	REC_WORD	6.063	n/a	<>	-999	8	n/a	n/a	pyFR	2	UP021
1242.964	2.853	868503	REC_WORD	7.062	n/a	BADGE	-999	8	n/a	n/a	pyFR	2	UP021
1245.817	5.104	869964	REC_WORD	9.915	n/a	<>	-999	8	n/a	n/a	pyFR	2	UP021
1250.921	4.792	872577	REC_WORD	15.019	n/a	MATTRESS	-999	8	n/a	n/a	pyFR	2	UP021
1255.713	0.91	875031	REC_WORD	19.811	n/a	<>	-999	8	n/a	n/a	pyFR	2	UP021
1256.623	1.309	875497	REC_WORD	20.721	n/a	MAT	-999	8	n/a	n/a	pyFR	2	UP021
1257.932	2.628	876167	REC_WORD	22.03	n/a	THREAD	-999	8	n/a	n/a	pyFR	2	UP021
1260.56	6.415	877512	REC_WORD	24.658	n/a	COUNT	-999	8	n/a	n/a	pyFR	2	UP021
1266.975	4.538	880797	REC_WORD	31.073	n/a	<>	-999	8	n/a	n/a	pyFR	2	UP021
1271.513	7.506	883121	REC_WORD	35.611	n/a	SHOE	-999	8	n/a	n/a	pyFR	2	UP021
1279.019	27.78	886964	REC_WORD	43.117	n/a	DUCK	-999	8	n/a	n/a	pyFR	2	UP021
1306.799	0.015	901188	TRIAL	n/a	n/a	n/a	-999	-999	n/a	n/a	pyFR	2	UP021
1306.814	2.705	901196	ORIENT	n/a	n/a	n/a	-999	-999	n/a	n/a	pyFR	2	UP021
1309.519	2.773	902581	WORD	n/a	wordpools/wordpool_EN.txt	BOMB	1	9	n/a	n/a	pyFR	2	UP021
1312.292	2.504	904001	WORD	n/a	wordpools/wordpool_EN.txt	MAP	2	9	n/a	n/a	pyFR	2	UP021
1314.796	2.538	905283	WORD	n/a	wordpools/wordpool_EN.txt	STRAW	3	9	n/a	n/a	pyFR	2	UP021
1317.334	2.756	906583	WORD	n/a	wordpools/wordpool_EN.txt	TRUCK	4	9	n/a	n/a	pyFR	2	UP021
1320.09	2.637	907994	WORD	n/a	wordpools/wordpool_EN.txt	PURSE	5	9	n/a	n/a	pyFR	2	UP021
1322.727	2.588	909344	WORD	n/a	wordpools/wordpool_EN.txt	FLUTE	6	9	n/a	n/a	pyFR	2	UP021
1325.315	2.588	910669	WORD	n/a	wordpools/wordpool_EN.txt	PRINCE	7	9	n/a	n/a	pyFR	2	UP021
1327.903	2.755	911994	WORD	n/a	wordpools/wordpool_EN.txt	JET	8	9	n/a	n/a	pyFR	2	UP021
1330.658	2.456	913405	WORD	n/a	wordpools/wordpool_EN.txt	FACE	9	9	n/a	n/a	pyFR	2	UP021
1333.114	2.637	914662	WORD	n/a	wordpools/wordpool_EN.txt	WORLD	10	9	n/a	n/a	pyFR	2	UP021
1335.751	2.772	916013	WORD	n/a	wordpools/wordpool_EN.txt	SEAL	11	9	n/a	n/a	pyFR	2	UP021
1338.523	2.689	917432	WORD	n/a	wordpools/wordpool_EN.txt	GIRL	12	9	n/a	n/a	pyFR	2	UP021
1341.212	2.62	918809	WORD	n/a	wordpools/wordpool_EN.txt	POND	13	9	n/a	n/a	pyFR	2	UP021
1343.832	2.488	920150	WORD	n/a	wordpools/wordpool_EN.txt	BOY	14	9	n/a	n/a	pyFR	2	UP021
1346.32	1.623	921424	WORD	n/a	wordpools/wordpool_EN.txt	STRING	15	9	n/a	n/a	pyFR	2	UP021
1347.943	0.832	922255	START	n/a	n/a	n/a	n/a	9	[-999 -999 -999]	-999	pyFR	2	UP021
1348.775	5.861	922681	PROB	5.811	n/a	n/a	n/a	9	[6 4 5]	15	pyFR	2	UP021
1354.636	4.308	925682	PROB	4.253	n/a	n/a	n/a	9	[1 9 5]	15	pyFR	2	UP021
1358.944	4.242	927888	PROB	4.186	n/a	n/a	n/a	9	[8 3 2]	13	pyFR	2	UP021
1363.186	3.99	930060	PROB	3.944	n/a	n/a	n/a	9	[7 7 2]	16	pyFR	2	UP021
1367.176	4.369	932103	PROB	4.369	n/a	n/a	n/a	9	[3 5 7]	15	pyFR	2	UP021
1371.545	1.074	934340	STOP	n/a	n/a	n/a	n/a	9	[-999 -999 -999]	-999	pyFR	2	UP021
1372.619	0.943	934890	REC_START	n/a	n/a	n/a	-999	-999	n/a	n/a	pyFR	2	UP021
1373.562	1.259	935373	REC_WORD	0.943	n/a	<>	-999	9	n/a	n/a	pyFR	2	UP021
1374.821	2.531	936018	REC_WORD	2.202	n/a	BOY	-999	9	n/a	n/a	pyFR	2	UP021
1377.352	1.972	937314	REC_WORD	4.733	n/a	<>	-999	9	n/a	n/a	pyFR	2	UP021
1379.324	1.0	938323	REC_WORD	6.705	n/a	STRING	-999	9	n/a	n/a	pyFR	2	UP021
1380.324	4.857	938836	REC_WORD	7.705	n/a	<>	-999	9	n/a	n/a	pyFR	2	UP021
1385.181	2.408	941322	REC_WORD	12.562	n/a	PURSE	-999	9	n/a	n/a	pyFR	2	UP021
1387.589	6.952	942555	REC_WORD	14.97	n/a	PRINCE	-999	9	n/a	n/a	pyFR	2	UP021
1394.541	4.016	946115	REC_WORD	21.922	n/a	SEAL	-999	9	n/a	n/a	pyFR	2	UP021
1398.557	1.0	948171	REC_WORD	25.938	n/a	<>	-999	9	n/a	n/a	pyFR	2	UP021
1399.557	1.0	948683	REC_WORD	26.938	n/a	<>	-999	9	n/a	n/a	pyFR	2	UP021
1400.557	2.048	949195	REC_WORD	27.938	n/a	<>	-999	9	n/a	n/a	pyFR	2	UP021
1402.605	8.413	950244	REC_WORD	29.986	n/a	POND	-999	9	n/a	n/a	pyFR	2	UP021
1411.018	85.847	954552	REC_WORD	38.399	n/a	WOOD	-999	9	n/a	n/a	pyFR	2	UP021
1496.865	0.015	998508	TRIAL	n/a	n/a	n/a	-999	-999	n/a	n/a	pyFR	2	UP021
1496.88	2.722	998516	ORIENT	n/a	n/a	n/a	-999	-999	n/a	n/a	pyFR	2	UP021
1499.602	2.455	999910	WORD	n/a	wordpools/wordpool_EN.txt	AXE	1	10	n/a	n/a	pyFR	2	UP021
1502.057	2.738	1001167	WORD	n/a	wordpools/wordpool_EN.txt	CORD	2	10	n/a	n/a	pyFR	2	UP021
1504.795	2.554	1002569	WORD	n/a	wordpools/wordpool_EN.txt	STEM	3	10	n/a	n/a	pyFR	2	UP021
1507.349	2.723	1003876	WORD	n/a	wordpools/wordpool_EN.txt	ROOM	4	10	n/a	n/a	pyFR	2	UP021
1510.072	2.487	1005271	WORD	n/a	wordpools/wordpool_EN.txt	ROOT	5	10	n/a	n/a	pyFR	2	UP021
1512.559	2.623	1006544	WORD	n/a	wordpools/wordpool_EN.txt	PIG	6	10	n/a	n/a	pyFR	2	UP021
1515.182	2.57	1007887	WORD	n/a	wordpools/wordpool_EN.txt	PLANT	7	10	n/a	n/a	pyFR	2	UP021
1517.752	2.638	1009203	WORD	n/a	wordpools/wordpool_EN.txt	TEETH	8	10	n/a	n/a	pyFR	2	UP021
1520.39	2.806	1010554	WORD	n/a	wordpools/wordpool_EN.txt	MOLE	9	10	n/a	n/a	pyFR	2	UP021
1523.196	2.454	1011991	WORD	n/a	wordpools/wordpool_EN.txt	WAND	10	10	n/a	n/a	pyFR	2	UP021
1525.65	2.472	1013247	WORD	n/a	wordpools/wordpool_EN.txt	TOY	11	10	n/a	n/a	pyFR	2	UP021
1528.122	2.62	1014513	WORD	n/a	wordpools/wordpool_EN.txt	LIP	12	10	n/a	n/a	pyFR	2	UP021
1530.742	2.655	1015854	WORD	n/a	wordpools/wordpool_EN.txt	FENCE	13	10	n/a	n/a	pyFR	2	UP021
1533.397	2.59	1017214	WORD	n/a	wordpools/wordpool_EN.txt	FILM	14	10	n/a	n/a	pyFR	2	UP021
1535.987	1.62	1018540	WORD	n/a	wordpools/wordpool_EN.txt	BLUSH	15	10	n/a	n/a	pyFR	2	UP021
1537.607	0.866	1019369	START	n/a	n/a	n/a	n/a	10	[-999 -999 -999]	-999	pyFR	2	UP021
1538.473	4.81	1019813	PROB	4.761	n/a	n/a	n/a	10	[5 3 1]	9	pyFR	2	UP021
1543.283	8.064	1022276	PROB	8.015	n/a	n/a	n/a	10	[4 8 4]	16	pyFR	2	UP021
1551.347	5.845	1026405	PROB	5.8	n/a	n/a	n/a	10	[5 7 4]	16	pyFR	2	UP021
1557.192	3.802	1029398	PROB	3.802	n/a	n/a	n/a	10	[2 9 2]	13	pyFR	2	UP021
1560.994	1.208	1031344	STOP	n/a	n/a	n/a	n/a	10	[-999 -999 -999]	-999	pyFR	2	UP021
1562.202	1.758	1031963	REC_START	n/a	n/a	n/a	-999	-999	n/a	n/a	pyFR	2	UP021
1563.96	1.063	1032863	REC_WORD	1.758	n/a	<>	-999	10	n/a	n/a	pyFR	2	UP021
1565.023	1.0	1033407	REC_WORD	2.821	n/a	MOLE	-999	10	n/a	n/a	pyFR	2	UP021
1566.023	1.02	1033919	REC_WORD	3.821	n/a	<>	-999	10	n/a	n/a	pyFR	2	UP021
1567.043	2.591	1034442	REC_WORD	4.841	n/a	LIP	-999	10	n/a	n/a	pyFR	2	UP021
1569.634	1.0	1035768	REC_WORD	7.432	n/a	<>	-999	10	n/a	n/a	pyFR	2	UP021
1570.634	1.918	1036280	REC_WORD	8.432	n/a	<>	-999	10	n/a	n/a	pyFR	2	UP021
1572.552	1.618	1037262	REC_WORD	10.35	n/a	TEETH	-999	10	n/a	n/a	pyFR	2	UP021
1574.17	3.14	1038091	REC_WORD	11.968	n/a	<>	-999	10	n/a	n/a	pyFR	2	UP021
1577.31	13.023	1039699	REC_WORD	15.108	n/a	PIG	-999	10	n/a	n/a	pyFR	2	UP021
1590.333	33.482	1046367	REC_WORD	28.131	n/a	AXE	-999	10	n/a	n/a	pyFR	2	UP021
1623.815	0.015	1063511	TRIAL	n/a	n/a	n/a	-999	-999	n/a	n/a	pyFR	2	UP021
1623.83	2.739	1063518	ORIENT	n/a	n/a	n/a	-999	-999	n/a	n/a	pyFR	2	UP021
1626.569	2.455	1064921	WORD	n/a	wordpools/wordpool_EN.txt	SCHOOL	1	11	n/a	n/a	pyFR	2	UP021
1629.024	2.621	1066178	WORD	n/a	wordpools/wordpool_EN.txt	SOAP	2	11	n/a	n/a	pyFR	2	UP021
1631.645	2.422	1067520	WORD	n/a	wordpools/wordpool_EN.txt	LEAF	3	11	n/a	n/a	pyFR	2	UP021
1634.067	2.553	1068760	WORD	n/a	wordpools/wordpool_EN.txt	BENCH	4	11	n/a	n/a	pyFR	2	UP021
1636.62	2.705	1070067	WORD	n/a	wordpools/wordpool_EN.txt	SINK	5	11	n/a	n/a	pyFR	2	UP021
1639.325	2.69	1071452	WORD	n/a	wordpools/wordpool_EN.txt	CUP	6	11	n/a	n/a	pyFR	2	UP021
1642.015	2.436	1072830	WORD	n/a	wordpools/wordpool_EN.txt	WOLF	7	11	n/a	n/a	pyFR	2	UP021
1644.451	2.422	1074077	WORD	n/a	wordpools/wordpool_EN.txt	MAZE	8	11	n/a	n/a	pyFR	2	UP021
1646.873	2.821	1075317	WORD	n/a	wordpools/wordpool_EN.txt	BEAR	9	11	n/a	n/a	pyFR	2	UP021
1649.694	2.789	1076762	WORD	n/a	wordpools/wordpool_EN.txt	LAKE	10	11	n/a	n/a	pyFR	2	UP021
1652.483	2.723	1078190	WORD	n/a	wordpools/wordpool_EN.txt	TRASH	11	11	n/a	n/a	pyFR	2	UP021
1655.206	2.47	1079584	WORD	n/a	wordpools/wordpool_EN.txt	SALT	12	11	n/a	n/a	pyFR	2	UP021
1657.676	2.622	1080849	WORD	n/a	wordpools/wordpool_EN.txt	STREET	13	11	n/a	n/a	pyFR	2	UP021
1660.298	2.822	1082191	WORD	n/a	wordpools/wordpool_EN.txt	RAKE	14	11	n/a	n/a	pyFR	2	UP021
1663.12	1.62	1083636	WORD	n/a	wordpools/wordpool_EN.txt	SKUNK	15	11	n/a	n/a	pyFR	2	UP021
1664.74	1.051	1084466	START	n/a	n/a	n/a	n/a	11	[-999 -999 -999]	-999	pyFR	2	UP021
1665.791	8.599	1085004	PROB	8.546	n/a	n/a	n/a	11	[6 3 8]	17	pyFR	2	UP021
1674.39	4.643	1089407	PROB	4.588	n/a	n/a	n/a	11	[6 1 7]	14	pyFR	2	UP021
1679.033	3.94	1091784	PROB	3.897	n/a	n/a	n/a	11	[2 5 6]	13	pyFR	2	UP021
1682.973	3.237	1093802	PROB	3.237	n/a	n/a	n/a	11	[1 9 3]	13	pyFR	2	UP021
1686.21	1.188	1095459	STOP	n/a	n/a	n/a	n/a	11	[-999 -999 -999]	-999	pyFR	2	UP021
1687.398	2.954	1096067	REC_START	n/a	n/a	n/a	-999	-999	n/a	n/a	pyFR	2	UP021
1690.352	2.259	1097580	REC_WORD	2.954	n/a	SCHOOL	-999	11	n/a	n/a	pyFR	2	UP021
1692.611	1.439	1098737	REC_WORD	5.213	n/a	LAKE	-999	11	n/a	n/a	pyFR	2	UP021
1694.05	1.0	1099473	REC_WORD	6.652	n/a	SKUNK	-999	11	n/a	n/a	pyFR	2	UP021
1695.05	2.763	1099985	REC_WORD	7.652	n/a	<>	-999	11	n/a	n/a	pyFR	2	UP021
1697.813	1.998	1101400	REC_WORD	10.415	n/a	BEAR	-999	11	n/a	n/a	pyFR	2	UP021
1699.811	4.216	1102423	REC_WORD	12.413	n/a	SALT	-999	11	n/a	n/a	pyFR	2	UP021
1704.027	6.563	1104582	REC_WORD	16.629	n/a	<>	-999	11	n/a	n/a	pyFR	2	UP021
1710.59	86.894	1107942	REC_WORD	23.192	n/a	WOLF	-999	11	n/a	n/a	pyFR	2	UP021
1797.484	0.015	1152435	TRIAL	n/a	n/a	n/a	-999	-999	n/a	n/a	pyFR	2	UP021
1797.499	2.922	1152443	ORIENT	n/a	n/a	n/a	-999	-999	n/a	n/a	pyFR	2	UP021
1800.421	2.74	1153939	WORD	n/a	wordpools/wordpool_EN.txt	DRUM	1	12	n/a	n/a	pyFR	2	UP021
1803.161	2.805	1155342	WORD	n/a	wordpools/wordpool_EN.txt	RICE	2	12	n/a	n/a	pyFR	2	UP021
1805.966	2.737	1156778	WORD	n/a	wordpools/wordpool_EN.txt	FOAM	3	12	n/a	n/a	pyFR	2	UP021
1808.703	2.672	1158179	WORD	n/a	wordpools/wordpool_EN.txt	TAPE	4	12	n/a	n/a	pyFR	2	UP021
1811.375	2.488	1159548	WORD	n/a	wordpools/wordpool_EN.txt	TRAIN	5	12	n/a	n/a	pyFR	2	UP021
1813.863	2.705	1160821	WORD	n/a	wordpools/wordpool_EN.txt	BOOK	6	12	n/a	n/a	pyFR	2	UP021
1816.568	2.722	1162207	WORD	n/a	wordpools/wordpool_EN.txt	CLOUD	7	12	n/a	n/a	pyFR	2	UP021
1819.29	2.755	1163600	WORD	n/a	wordpools/wordpool_EN.txt	ARM	8	12	n/a	n/a	pyFR	2	UP021
1822.045	2.654	1165011	WORD	n/a	wordpools/wordpool_EN.txt	STEAM	9	12	n/a	n/a	pyFR	2	UP021
1824.699	2.422	1166370	WORD	n/a	wordpools/wordpool_EN.txt	POOL	10	12	n/a	n/a	pyFR	2	UP021
1827.121	2.604	1167610	WORD	n/a	wordpools/wordpool_EN.txt	YARD	11	12	n/a	n/a	pyFR	2	UP021
1829.725	2.622	1168943	WORD	n/a	wordpools/wordpool_EN.txt	HAT	12	12	n/a	n/a	pyFR	2	UP021
1832.347	2.722	1170286	WORD	n/a	wordpools/wordpool_EN.txt	STORM	13	12	n/a	n/a	pyFR	2	UP021
1835.069	2.471	1171680	WORD	n/a	wordpools/wordpool_EN.txt	BOAT	14	12	n/a	n/a	pyFR	2	UP021
1837.54	1.605	1172945	WORD	n/a	wordpools/wordpool_EN.txt	BROOM	15	12	n/a	n/a	pyFR	2	UP021
1839.145	0.917	1173767	START	n/a	n/a	n/a	n/a	12	[-999 -999 -999]	-999	pyFR	2	UP021
1840.062	6.427	1174236	PROB	6.372	n/a	n/a	n/a	12	[5 3 6]	14	pyFR	2	UP021
1846.489	6.429	1177527	PROB	6.385	n/a	n/a	n/a	12	[7 2 2]	11	pyFR	2	UP021
1852.918	3.04	1180819	PROB	2.987	n/a	n/a	n/a	12	[1 4 1]	6	pyFR	2	UP021
1855.958	10.427	1182375	PROB	10.427	n/a	n/a	n/a	12	[9 8 7]	24	pyFR	2	UP021
1866.385	1.451	1187714	STOP	n/a	n/a	n/a	n/a	12	[-999 -999 -999]	-999	pyFR	2	UP021
1867.836	1.406	1188457	REC_START	n/a	n/a	n/a	-999	-999	n/a	n/a	pyFR	2	UP021
1869.242	1.0	1189177	REC_WORD	1.406	n/a	<>	-999	12	n/a	n/a	pyFR	2	UP021
1870.242	771.476	1189689	REC_WORD	2.406	n/a	<>	-999	12	n/a	n/a	pyFR	2	UP021
2641.718	0.016	1584710	TRIAL	n/a	n/a	n/a	-999	-999	n/a	n/a	pyFR	2	UP021
2641.734	2.655	1584718	ORIENT	n/a	n/a	n/a	-999	-999	n/a	n/a	pyFR	2	UP021
2644.389	2.639	1586078	WORD	n/a	wordpools/wordpool_EN.txt	CRANE	1	13	n/a	n/a	pyFR	2	UP021
2647.028	2.437	1587429	WORD	n/a	wordpools/wordpool_EN.txt	DESK	2	13	n/a	n/a	pyFR	2	UP021
2649.465	2.572	1588677	WORD	n/a	wordpools/wordpool_EN.txt	JUICE	3	13	n/a	n/a	pyFR	2	UP021
2652.037	2.504	1589994	WORD	n/a	wordpools/wordpool_EN.txt	FORT	4	13	n/a	n/a	pyFR	2	UP021
2654.541	2.505	1591276	WORD	n/a	wordpools/wordpool_EN.txt	SHOE	5	13	n/a	n/a	pyFR	2	UP021
2657.046	2.637	1592558	WORD	n/a	wordpools/wordpool_EN.txt	MOUTH	6	13	n/a	n/a	pyFR	2	UP021
2659.683	2.722	1593909	WORD	n/a	wordpools/wordpool_EN.txt	FISH	7	13	n/a	n/a	pyFR	2	UP021
2662.405	2.79	1595302	WORD	n/a	wordpools/wordpool_EN.txt	WHEEL	8	13	n/a	n/a	pyFR	2	UP021
2665.195	2.47	1596731	WORD	n/a	wordpools/wordpool_EN.txt	DRESS	9	13	n/a	n/a	pyFR	2	UP021
2667.665	2.505	1597996	WORD	n/a	wordpools/wordpool_EN.txt	OAK	10	13	n/a	n/a	pyFR	2	UP021
2670.17	2.822	1599278	WORD	n/a	wordpools/wordpool_EN.txt	QUEEN	11	13	n/a	n/a	pyFR	2	UP021
2672.992	2.637	1600723	WORD	n/a	wordpools/wordpool_EN.txt	PEA	12	13	n/a	n/a	pyFR	2	UP021
2675.629	2.539	1602073	WORD	n/a	wordpools/wordpool_EN.txt	TRAY	13	13	n/a	n/a	pyFR	2	UP021
2678.168	2.738	1603374	WORD	n/a	wordpools/wordpool_EN.txt	BEACH	14	13	n/a	n/a	pyFR	2	UP021
2680.906	1.621	1604775	WORD	n/a	wordpools/wordpool_EN.txt	BEAN	15	13	n/a	n/a	pyFR	2	UP021
2682.527	1.034	1605605	START	n/a	n/a	n/a	n/a	13	[-999 -999 -999]	-999	pyFR	2	UP021
2683.561	5.142	1606135	PROB	5.096	n/a	n/a	n/a	13	[4 3 6]	13	pyFR	2	UP021
2688.703	4.809	1608768	PROB	4.754	n/a	n/a	n/a	13	[6 3 7]	16	pyFR	2	UP021
2693.512	4.743	1611230	PROB	4.699	n/a	n/a	n/a	13	[5 4 5]	14	pyFR	2	UP021
2698.255	6.482	1613659	PROB	6.482	n/a	n/a	n/a	13	[9 5 9]	23	pyFR	2	UP021
2704.737	1.098	1616978	STOP	n/a	n/a	n/a	n/a	13	[-999 -999 -999]	-999	pyFR	2	UP021
2705.835	0.971	1617540	REC_START	n/a	n/a	n/a	-999	-999	n/a	n/a	pyFR	2	UP021
2706.806	2.238	1618037	REC_WORD	0.971	n/a	OAK	-999	13	n/a	n/a	pyFR	2	UP021
2709.044	4.387	1619183	REC_WORD	3.209	n/a	QUEEN	-999	13	n/a	n/a	pyFR	2	UP021
2713.431	4.325	1621429	REC_WORD	7.596	n/a	<>	-999	13	n/a	n/a	pyFR	2	UP021
2717.756	11.66	1623644	REC_WORD	11.921	n/a	TRUCK	-999	13	n/a	n/a	pyFR	2	UP021
2729.416	36.615	1629614	REC_WORD	23.581	n/a	BEE	-999	13	n/a	n/a	pyFR	2	UP021
2766.031	0.016	1648362	TRIAL	n/a	n/a	n/a	-999	-999	n/a	n/a	pyFR	2	UP021
2766.047	3.005	1648370	ORIENT	n/a	n/a	n/a	-999	-999	n/a	n/a	pyFR	2	UP021
2769.052	2.671	1649909	WORD	n/a	wordpools/wordpool_EN.txt	TOAST	1	14	n/a	n/a	pyFR	2	UP021
2771.723	2.572	1651277	WORD	n/a	wordpools/wordpool_EN.txt	SPARK	2	14	n/a	n/a	pyFR	2	UP021
2774.295	2.755	1652594	WORD	n/a	wordpools/wordpool_EN.txt	SIGN	3	14	n/a	n/a	pyFR	2	UP021
2777.05	2.804	1654004	WORD	n/a	wordpools/wordpool_EN.txt	PLATE	4	14	n/a	n/a	pyFR	2	UP021
2779.854	2.555	1655440	WORD	n/a	wordpools/wordpool_EN.txt	LEG	5	14	n/a	n/a	pyFR	2	UP021
2782.409	2.504	1656748	WORD	n/a	wordpools/wordpool_EN.txt	POLE	6	14	n/a	n/a	pyFR	2	UP021
2784.913	2.789	1658030	WORD	n/a	wordpools/wordpool_EN.txt	ROCK	7	14	n/a	n/a	pyFR	2	UP021
2787.702	2.738	1659458	WORD	n/a	wordpools/wordpool_EN.txt	PLANE	8	14	n/a	n/a	pyFR	2	UP021
2790.44	2.79	1660860	WORD	n/a	wordpools/wordpool_EN.txt	HEART	9	14	n/a	n/a	pyFR	2	UP021
2793.23	2.554	1662289	WORD	n/a	wordpools/wordpool_EN.txt	JEEP	10	14	n/a	n/a	pyFR	2	UP021
2795.784	2.588	1663597	WORD	n/a	wordpools/wordpool_EN.txt	VASE	11	14	n/a	n/a	pyFR	2	UP021
2798.372	2.722	1664922	WORD	n/a	wordpools/wordpool_EN.txt	BRIDGE	12	14	n/a	n/a	pyFR	2	UP021
2801.094	2.604	1666316	WORD	n/a	wordpools/wordpool_EN.txt	SLIME	13	14	n/a	n/a	pyFR	2	UP021
2803.698	2.539	1667649	WORD	n/a	wordpools/wordpool_EN.txt	DOCK	14	14	n/a	n/a	pyFR	2	UP021
2806.237	1.62	1668949	WORD	n/a	wordpools/wordpool_EN.txt	SWAMP	15	14	n/a	n/a	pyFR	2	UP021
2807.857	0.984	1669778	START	n/a	n/a	n/a	n/a	14	[-999 -999 -999]	-999	pyFR	2	UP021
2808.841	15.762	1670282	PROB	15.712	n/a	n/a	n/a	14	[6 8 7]	21	pyFR	2	UP021
2824.603	4.655	1678353	PROB	4.655	n/a	n/a	n/a	14	[3 7 2]	12	pyFR	2	UP021
2829.258	1.157	1680736	STOP	n/a	n/a	n/a	n/a	14	[-999 -999 -999]	-999	pyFR	2	UP021
2830.415	4.14	1681329	REC_START	n/a	n/a	n/a	-999	-999	n/a	n/a	pyFR	2	UP021
2834.555	3.894	1683449	REC_WORD	4.14	n/a	ROCK	-999	14	n/a	n/a	pyFR	2	UP021
2838.449	4.943	1685443	REC_WORD	8.034	n/a	POLE	-999	14	n/a	n/a	pyFR	2	UP021
2843.392	7.342	1687974	REC_WORD	12.977	n/a	<>	-999	14	n/a	n/a	pyFR	2	UP021
2850.734	0.274	1691733	REC_WORD	20.319	n/a	<>	-999	14	n/a	n/a	pyFR	2	UP021
2851.008	4.996	1691873	REC_WORD	20.593	n/a	FIRE	-999	14	n/a	n/a	pyFR	2	UP021
2856.004	69.069	1694431	REC_WORD	25.589	n/a	DOCK	-999	14	n/a	n/a	pyFR	2	UP021
2925.073	0.016	1729797	TRIAL	n/a	n/a	n/a	-999	-999	n/a	n/a	pyFR	2	UP021
2925.089	2.787	1729805	ORIENT	n/a	n/a	n/a	-999	-999	n/a	n/a	pyFR	2	UP021
2927.876	2.805	1731232	WORD	n/a	wordpools/wordpool_EN.txt	SHRIMP	1	15	n/a	n/a	pyFR	2	UP021
2930.681	2.672	1732668	WORD	n/a	wordpools/wordpool_EN.txt	PALM	2	15	n/a	n/a	pyFR	2	UP021
2933.353	2.823	1734036	WORD	n/a	wordpools/wordpool_EN.txt	CARD	3	15	n/a	n/a	pyFR	2	UP021
2936.176	2.771	1735482	WORD	n/a	wordpools/wordpool_EN.txt	CHAIR	4	15	n/a	n/a	pyFR	2	UP021
2938.947	2.838	1736901	WORD	n/a	wordpools/wordpool_EN.txt	SEED	5	15	n/a	n/a	pyFR	2	UP021
2941.785	2.705	1738354	WORD	n/a	wordpools/wordpool_EN.txt	VAN	6	15	n/a	n/a	pyFR	2	UP021
2944.49	2.806	1739739	WORD	n/a	wordpools/wordpool_EN.txt	BAND	7	15	n/a	n/a	pyFR	2	UP021
2947.296	2.689	1741176	WORD	n/a	wordpools/wordpool_EN.txt	SLEEVE	8	15	n/a	n/a	pyFR	2	UP021
2949.985	2.687	1742553	WORD	n/a	wordpools/wordpool_EN.txt	APE	9	15	n/a	n/a	pyFR	2	UP021
2952.672	2.805	1743928	WORD	n/a	wordpools/wordpool_EN.txt	FARM	10	15	n/a	n/a	pyFR	2	UP021
2955.477	2.773	1745365	WORD	n/a	wordpools/wordpool_EN.txt	SHEEP	11	15	n/a	n/a	pyFR	2	UP021
2958.25	2.57	1746785	WORD	n/a	wordpools/wordpool_EN.txt	GRASS	12	15	n/a	n/a	pyFR	2	UP021
2960.82	2.822	1748100	WORD	n/a	wordpools/wordpool_EN.txt	WALL	13	15	n/a	n/a	pyFR	2	UP021
2963.642	2.589	1749545	WORD	n/a	wordpools/wordpool_EN.txt	SPOON	14	15	n/a	n/a	pyFR	2	UP021
2966.231	1.62	1750871	WORD	n/a	wordpools/wordpool_EN.txt	WING	15	15	n/a	n/a	pyFR	2	UP021
2967.851	0.967	1751701	START	n/a	n/a	n/a	n/a	15	[-999 -999 -999]	-999	pyFR	2	UP021
2968.818	4.476	1752196	PROB	4.424	n/a	n/a	n/a	15	[5 6 1]	12	pyFR	2	UP021
2973.294	10.067	1754488	PROB	10.012	n/a	n/a	n/a	15	[9 8 9]	26	pyFR	2	UP021
2983.361	4.914	1759642	PROB	4.914	n/a	n/a	n/a	15	[8 8 3]	19	pyFR	2	UP021
2988.275	1.065	1762158	STOP	n/a	n/a	n/a	n/a	15	[-999 -999 -999]	-999	pyFR	2	UP021
2989.34	1.35	1762704	REC_START	n/a	n/a	n/a	-999	-999	n/a	n/a	pyFR	2	UP021
2990.69	2.675	1763395	REC_WORD	1.35	n/a	<>	-999	15	n/a	n/a	pyFR	2	UP021
2993.365	1.966	1764765	REC_WORD	4.025	n/a	SPOON	-999	15	n/a	n/a	pyFR	2	UP021
2995.331	1.91	1765771	REC_WORD	5.991	n/a	SHRIMP	-999	15	n/a	n/a	pyFR	2	UP021
2997.241	3.792	1766749	REC_WORD	7.901	n/a	PALM	-999	15	n/a	n/a	pyFR	2	UP021
3001.033	14.426	1768691	REC_WORD	11.693	n/a	<>	-999	15	n/a	n/a	pyFR	2	UP021
3015.459	8.943	1776077	REC_WORD	26.119	n/a	FROG	-999	15	n/a	n/a	pyFR	2	UP021
3024.402	5.293	1780657	REC_WORD	35.062	n/a	<>	-999	15	n/a	n/a	pyFR	2	UP021
3029.695	22.495	1783367	REC_WORD	40.355	n/a	SPOON	-999	15	n/a	n/a	pyFR	2	UP021
3052.19	0.016	1794885	TRIAL	n/a	n/a	n/a	-999	-999	n/a	n/a	pyFR	2	UP021
3052.206	2.838	1794893	ORIENT	n/a	n/a	n/a	-999	-999	n/a	n/a	pyFR	2	UP021
3055.044	2.671	1796346	WORD	n/a	wordpools/wordpool_EN.txt	LAMB	1	16	n/a	n/a	pyFR	2	UP021
3057.715	2.555	1797714	WORD	n/a	wordpools/wordpool_EN.txt	SKY	2	16	n/a	n/a	pyFR	2	UP021
3060.27	2.672	1799022	WORD	n/a	wordpools/wordpool_EN.txt	COIN	3	16	n/a	n/a	pyFR	2	UP021
3062.942	2.587	1800390	WORD	n/a	wordpools/wordpool_EN.txt	STONE	4	16	n/a	n/a	pyFR	2	UP021
3065.529	2.689	1801715	WORD	n/a	wordpools/wordpool_EN.txt	GRAPE	5	16	n/a	n/a	pyFR	2	UP021
3068.218	2.537	1803092	WORD	n/a	wordpools/wordpool_EN.txt	GLASS	6	16	n/a	n/a	pyFR	2	UP021
3070.755	2.772	1804391	WORD	n/a	wordpools/wordpool_EN.txt	MOOSE	7	16	n/a	n/a	pyFR	2	UP021
3073.527	2.689	1805810	WORD	n/a	wordpools/wordpool_EN.txt	CHEEK	8	16	n/a	n/a	pyFR	2	UP021
3076.216	2.739	1807187	WORD	n/a	wordpools/wordpool_EN.txt	PEN	9	16	n/a	n/a	pyFR	2	UP021
3078.955	2.554	1808589	WORD	n/a	wordpools/wordpool_EN.txt	HORSE	10	16	n/a	n/a	pyFR	2	UP021
3081.509	2.722	1809897	WORD	n/a	wordpools/wordpool_EN.txt	GUARD	11	16	n/a	n/a	pyFR	2	UP021
3084.231	2.739	1811291	WORD	n/a	wordpools/wordpool_EN.txt	HILL	12	16	n/a	n/a	pyFR	2	UP021
3086.97	2.82	1812693	WORD	n/a	wordpools/wordpool_EN.txt	BREAD	13	16	n/a	n/a	pyFR	2	UP021
3089.79	2.622	1814137	WORD	n/a	wordpools/wordpool_EN.txt	PEAR	14	16	n/a	n/a	pyFR	2	UP021
3092.412	1.605	1815480	WORD	n/a	wordpools/wordpool_EN.txt	TOOL	15	16	n/a	n/a	pyFR	2	UP021
3094.017	0.934	1816302	START	n/a	n/a	n/a	n/a	16	[-999 -999 -999]	-999	pyFR	2	UP021
3094.951	7.63	1816780	PROB	7.578	n/a	n/a	n/a	16	[7 2 7]	16	pyFR	2	UP021
3102.581	4.09	1820687	PROB	4.036	n/a	n/a	n/a	16	[5 2 4]	11	pyFR	2	UP021
3106.671	9.853	1822781	PROB	8.706	n/a	n/a	n/a	16	[5 9 8]	23	pyFR	2	UP021
3116.524	0.809	1827826	REC_START	n/a	n/a	n/a	-999	-999	n/a	n/a	pyFR	2	UP021
3117.333	3.146	1828240	REC_WORD	0.809	n/a	<>	-999	16	n/a	n/a	pyFR	2	UP021
3120.479	3.801	1829851	REC_WORD	3.955	n/a	<>	-999	16	n/a	n/a	pyFR	2	UP021
3124.28	1.0	1831797	REC_WORD	7.756	n/a	<>	-999	16	n/a	n/a	pyFR	2	UP021
3125.28	1.789	1832309	REC_WORD	8.756	n/a	<>	-999	16	n/a	n/a	pyFR	2	UP021
3127.069	0.13	1833225	REC_WORD	10.545	n/a	<>	-999	16	n/a	n/a	pyFR	2	UP021
3127.199	2.43	1833292	REC_WORD	10.675	n/a	MOOSE	-999	16	n/a	n/a	pyFR	2	UP021
3129.629	0.29	1834536	REC_WORD	13.105	n/a	<>	-999	16	n/a	n/a	pyFR	2	UP021
3129.919	2.394	1834685	REC_WORD	13.395	n/a	HORSE	-999	16	n/a	n/a	pyFR	2	UP021
3132.313	4.982	1835910	REC_WORD	15.789	n/a	<>	-999	16	n/a	n/a	pyFR	2	UP021
3137.295	1.044	1838461	REC_WORD	20.771	n/a	<>	-999	16	n/a	n/a	pyFR	2	UP021
3138.339	6.066	1838996	REC_WORD	21.815	n/a	SKY	-999	16	n/a	n/a	pyFR	2	UP021
3144.405	4.231	1842102	REC_WORD	27.881	n/a	PENNY	-999	16	n/a	n/a	pyFR	2	UP021
3148.636	0.793	1844268	REC_WORD	32.112	n/a	<>	-999	16	n/a	n/a	pyFR	2	UP021
3149.429	6.082	1844674	REC_WORD	32.905	n/a	FROG	-999	16	n/a	n/a	pyFR	2	UP021
3155.511	0.0	1847789	REC_WORD	38.987	n/a	LAMB	-999	16	n/a	n/a	pyFR	2	UP021
