onset	duration	sample	trial_type	response_time	stim_file	item_name	serialpos	list	test	answer	experiment	session	subject
0.0	4.884	4977	E	n/a	n/a	n/a	-999.0	-999	n/a	n/a	pyFR	1	UP011
4.884	0.001	6931	B	n/a	n/a	n/a	-999.0	-999	n/a	n/a	pyFR	1	UP011
4.885	39.343	6931	SESS_START	n/a	n/a	n/a	-999.0	-999	n/a	n/a	pyFR	1	UP011
44.228	0.001	22668	B	n/a	n/a	n/a	-999.0	-999	n/a	n/a	pyFR	1	UP011
44.229	50.961	22668	SESS_START	n/a	n/a	n/a	-999.0	-999	n/a	n/a	pyFR	1	UP011
95.19	0.077	43052	START	n/a	n/a	n/a	n/a	0	[-999 -999 -999]	-999.0	pyFR	1	UP011
95.267	6.234	43083	PROB	6.139	n/a	n/a	n/a	0	[8 4 9]	21.0	pyFR	1	UP011
101.501	1.913	45576	PROB	1.861	n/a	n/a	n/a	0	[5 5 5]	15.0	pyFR	1	UP011
103.414	3.629	46341	PROB	3.576	n/a	n/a	n/a	0	[5 6 2]	13.0	pyFR	1	UP011
107.043	4.62	47793	PROB	4.567	n/a	n/a	n/a	0	[3 1 9]	13.0	pyFR	1	UP011
111.663	3.295	49641	PROB	3.244	n/a	n/a	n/a	0	[7 1 3]	11.0	pyFR	1	UP011
114.958	3.58	50959	PROB	3.528	n/a	n/a	n/a	0	[3 4 9]	16.0	pyFR	1	UP011
118.538	4.685	52391	PROB	4.627	n/a	n/a	n/a	0	[4 9 7]	20.0	pyFR	1	UP011
123.223	4.211	54265	PROB	4.211	n/a	n/a	n/a	0	[9 8 6]	24.0	pyFR	1	UP011
127.434	32.258	55949	STOP	n/a	n/a	n/a	n/a	0	[-999 -999 -999]	-999.0	pyFR	1	UP011
159.692	0.017	68852	TRIAL	n/a	n/a	n/a	-999.0	-999	n/a	n/a	pyFR	1	UP011
159.709	1.6	68858	ORIENT	n/a	n/a	n/a	-999.0	-999	n/a	n/a	pyFR	1	UP011
162.326	1.6	69905	WORD	n/a	wordpools/wordpool_EN.txt	BAT	1.0	1	n/a	n/a	pyFR	1	UP011
165.008	1.6	70978	WORD	n/a	wordpools/wordpool_EN.txt	SWAMP	2.0	1	n/a	n/a	pyFR	1	UP011
167.524	1.6	71984	WORD	n/a	wordpools/wordpool_EN.txt	FRUIT	3.0	1	n/a	n/a	pyFR	1	UP011
169.987	1.6	72969	WORD	n/a	wordpools/wordpool_EN.txt	SALT	4.0	1	n/a	n/a	pyFR	1	UP011
172.701	1.6	74055	WORD	n/a	wordpools/wordpool_EN.txt	SHEET	5.0	1	n/a	n/a	pyFR	1	UP011
175.454	1.6	75156	WORD	n/a	wordpools/wordpool_EN.txt	TRASH	6.0	1	n/a	n/a	pyFR	1	UP011
178.157	1.6	76237	WORD	n/a	wordpools/wordpool_EN.txt	STONE	7.0	1	n/a	n/a	pyFR	1	UP011
180.958	1.6	77358	WORD	n/a	wordpools/wordpool_EN.txt	BRIDGE	8.0	1	n/a	n/a	pyFR	1	UP011
183.408	1.6	78338	WORD	n/a	wordpools/wordpool_EN.txt	FLAG	9.0	1	n/a	n/a	pyFR	1	UP011
186.212	1.6	79459	WORD	n/a	wordpools/wordpool_EN.txt	SHELL	10.0	1	n/a	n/a	pyFR	1	UP011
188.701	1.6	80455	WORD	n/a	wordpools/wordpool_EN.txt	SOUP	11.0	1	n/a	n/a	pyFR	1	UP011
191.486	1.6	81569	WORD	n/a	wordpools/wordpool_EN.txt	VINE	12.0	1	n/a	n/a	pyFR	1	UP011
194.254	1.6	82676	WORD	n/a	wordpools/wordpool_EN.txt	PHONE	13.0	1	n/a	n/a	pyFR	1	UP011
196.828	1.6	83705	WORD	n/a	wordpools/wordpool_EN.txt	EAR	14.0	1	n/a	n/a	pyFR	1	UP011
199.396	1.6	84733	WORD	n/a	wordpools/wordpool_EN.txt	ROOM	15.0	1	n/a	n/a	pyFR	1	UP011
201.011	1.037	85379	START	n/a	n/a	n/a	n/a	1	[-999 -999 -999]	-999.0	pyFR	1	UP011
202.048	2.41	85793	PROB	2.333	n/a	n/a	n/a	1	[6 2 3]	11.0	pyFR	1	UP011
204.458	2.188	86757	PROB	2.104	n/a	n/a	n/a	1	[3 2 2]	7.0	pyFR	1	UP011
206.646	3.617	87632	PROB	3.563	n/a	n/a	n/a	1	[9 9 8]	26.0	pyFR	1	UP011
210.263	4.568	89079	PROB	4.516	n/a	n/a	n/a	1	[8 8 4]	20.0	pyFR	1	UP011
214.831	4.668	90906	PROB	4.616	n/a	n/a	n/a	1	[9 3 8]	20.0	pyFR	1	UP011
219.499	2.587	92773	PROB	2.587	n/a	n/a	n/a	1	[6 3 4]	13.0	pyFR	1	UP011
222.086	1.206	93808	STOP	n/a	n/a	n/a	n/a	1	[-999 -999 -999]	-999.0	pyFR	1	UP011
223.292	1.039	94291	REC_START	n/a	n/a	n/a	-999.0	-999	n/a	n/a	pyFR	1	UP011
224.331	0.517	94706	REC_WORD	1.039	n/a	BAT	-999.0	1	n/a	n/a	pyFR	1	UP011
224.848	1.213	94913	REC_WORD	1.556	n/a	SWAMP	-999.0	1	n/a	n/a	pyFR	1	UP011
226.061	0.598	95398	REC_WORD	2.769	n/a	EAR	-999.0	1	n/a	n/a	pyFR	1	UP011
226.659	2.561	95637	REC_WORD	3.367	n/a	PHONE	-999.0	1	n/a	n/a	pyFR	1	UP011
229.22	0.192	96662	REC_WORD_VV	5.928	n/a	VV	-999.0	1	n/a	n/a	pyFR	1	UP011
229.412	1.956	96738	REC_WORD	6.12	n/a	SHEET	-999.0	1	n/a	n/a	pyFR	1	UP011
231.368	5.004	97521	REC_WORD	8.076	n/a	SALT	-999.0	1	n/a	n/a	pyFR	1	UP011
236.372	11.999	99522	REC_WORD	13.08	n/a	BRIDGE	-999.0	1	n/a	n/a	pyFR	1	UP011
248.371	18.074	104322	REC_WORD	25.079	n/a	STONE	-999.0	1	n/a	n/a	pyFR	1	UP011
266.445	4.364	111551	REC_WORD	43.153	n/a	PHONE	-999.0	1	n/a	n/a	pyFR	1	UP011
270.809	0.02	113297	TRIAL	n/a	n/a	n/a	-999.0	-999	n/a	n/a	pyFR	1	UP011
270.829	1.6	113305	ORIENT	n/a	n/a	n/a	-999.0	-999	n/a	n/a	pyFR	1	UP011
273.684	1.6	114447	WORD	n/a	wordpools/wordpool_EN.txt	SPARK	1.0	2	n/a	n/a	pyFR	1	UP011
276.488	1.6	115568	WORD	n/a	wordpools/wordpool_EN.txt	CASH	2.0	2	n/a	n/a	pyFR	1	UP011
279.072	1.6	116602	WORD	n/a	wordpools/wordpool_EN.txt	CLOUD	3.0	2	n/a	n/a	pyFR	1	UP011
281.507	1.6	117576	WORD	n/a	wordpools/wordpool_EN.txt	PLATE	4.0	2	n/a	n/a	pyFR	1	UP011
283.968	1.6	118560	WORD	n/a	wordpools/wordpool_EN.txt	SHARK	5.0	2	n/a	n/a	pyFR	1	UP011
286.64	1.6	119629	WORD	n/a	wordpools/wordpool_EN.txt	OWL	6.0	2	n/a	n/a	pyFR	1	UP011
289.112	1.6	120617	WORD	n/a	wordpools/wordpool_EN.txt	HAND	7.0	2	n/a	n/a	pyFR	1	UP011
291.699	1.6	121652	WORD	n/a	wordpools/wordpool_EN.txt	CAT	8.0	2	n/a	n/a	pyFR	1	UP011
294.379	1.6	122724	WORD	n/a	wordpools/wordpool_EN.txt	CLOTH	9.0	2	n/a	n/a	pyFR	1	UP011
296.886	1.6	123727	WORD	n/a	wordpools/wordpool_EN.txt	WORM	10.0	2	n/a	n/a	pyFR	1	UP011
299.681	1.6	124845	WORD	n/a	wordpools/wordpool_EN.txt	SQUARE	11.0	2	n/a	n/a	pyFR	1	UP011
302.283	1.6	125886	WORD	n/a	wordpools/wordpool_EN.txt	CAVE	12.0	2	n/a	n/a	pyFR	1	UP011
304.855	1.6	126914	WORD	n/a	wordpools/wordpool_EN.txt	CLOCK	13.0	2	n/a	n/a	pyFR	1	UP011
307.482	1.6	127965	WORD	n/a	wordpools/wordpool_EN.txt	DOCK	14.0	2	n/a	n/a	pyFR	1	UP011
310.122	1.6	129021	WORD	n/a	wordpools/wordpool_EN.txt	COAT	15.0	2	n/a	n/a	pyFR	1	UP011
311.745	1.185	129670	START	n/a	n/a	n/a	n/a	2	[-999 -999 -999]	-999.0	pyFR	1	UP011
312.93	4.068	130144	PROB	4.007	n/a	n/a	n/a	2	[5 3 9]	17.0	pyFR	1	UP011
316.998	2.276	131771	PROB	2.219	n/a	n/a	n/a	2	[6 8 7]	21.0	pyFR	1	UP011
319.274	4.596	132682	PROB	4.513	n/a	n/a	n/a	2	[5 2 1]	8.0	pyFR	1	UP011
323.87	3.333	134520	PROB	3.28	n/a	n/a	n/a	2	[7 4 5]	16.0	pyFR	1	UP011
327.203	2.554	135853	PROB	2.477	n/a	n/a	n/a	2	[1 4 6]	11.0	pyFR	1	UP011
329.757	2.591	136875	PROB	2.591	n/a	n/a	n/a	2	[6 7 6]	19.0	pyFR	1	UP011
332.348	1.09	137911	STOP	n/a	n/a	n/a	n/a	2	[-999 -999 -999]	-999.0	pyFR	1	UP011
333.438	1.776	138347	REC_START	n/a	n/a	n/a	-999.0	-999	n/a	n/a	pyFR	1	UP011
335.214	0.482	139058	REC_WORD_VV	1.776	n/a	VV	-999.0	2	n/a	n/a	pyFR	1	UP011
335.696	1.869	139250	REC_WORD	2.258	n/a	CLOTH	-999.0	2	n/a	n/a	pyFR	1	UP011
337.565	1.162	139998	REC_WORD	4.127	n/a	OWL	-999.0	2	n/a	n/a	pyFR	1	UP011
338.727	9.979	140463	REC_WORD	5.289	n/a	WORM	-999.0	2	n/a	n/a	pyFR	1	UP011
348.706	1.317	144454	REC_WORD	15.268	n/a	SQUARE	-999.0	2	n/a	n/a	pyFR	1	UP011
350.023	6.926	144981	REC_WORD	16.585	n/a	CAVE	-999.0	2	n/a	n/a	pyFR	1	UP011
356.949	23.354	147751	REC_WORD	23.511	n/a	CLOTH	-999.0	2	n/a	n/a	pyFR	1	UP011
380.303	0.016	157092	TRIAL	n/a	n/a	n/a	-999.0	-999	n/a	n/a	pyFR	1	UP011
380.319	1.6	157099	ORIENT	n/a	n/a	n/a	-999.0	-999	n/a	n/a	pyFR	1	UP011
383.049	1.6	158191	WORD	n/a	wordpools/wordpool_EN.txt	FISH	1.0	3	n/a	n/a	pyFR	1	UP011
385.656	1.6	159234	WORD	n/a	wordpools/wordpool_EN.txt	CROW	2.0	3	n/a	n/a	pyFR	1	UP011
388.121	1.6	160219	WORD	n/a	wordpools/wordpool_EN.txt	BELL	3.0	3	n/a	n/a	pyFR	1	UP011
390.597	1.6	161210	WORD	n/a	wordpools/wordpool_EN.txt	SHIP	4.0	3	n/a	n/a	pyFR	1	UP011
393.11	1.6	162215	WORD	n/a	wordpools/wordpool_EN.txt	COW	5.0	3	n/a	n/a	pyFR	1	UP011
395.693	1.6	163248	WORD	n/a	wordpools/wordpool_EN.txt	STEAK	6.0	3	n/a	n/a	pyFR	1	UP011
398.184	1.6	164244	WORD	n/a	wordpools/wordpool_EN.txt	ARM	7.0	3	n/a	n/a	pyFR	1	UP011
400.769	1.6	165278	WORD	n/a	wordpools/wordpool_EN.txt	BLUSH	8.0	3	n/a	n/a	pyFR	1	UP011
403.402	1.6	166332	WORD	n/a	wordpools/wordpool_EN.txt	NAIL	9.0	3	n/a	n/a	pyFR	1	UP011
405.918	1.6	167338	WORD	n/a	wordpools/wordpool_EN.txt	TEETH	10.0	3	n/a	n/a	pyFR	1	UP011
408.663	1.6	168436	WORD	n/a	wordpools/wordpool_EN.txt	ROAD	11.0	3	n/a	n/a	pyFR	1	UP011
411.421	1.6	169539	WORD	n/a	wordpools/wordpool_EN.txt	FLOOR	12.0	3	n/a	n/a	pyFR	1	UP011
413.941	1.6	170547	WORD	n/a	wordpools/wordpool_EN.txt	WOOD	13.0	3	n/a	n/a	pyFR	1	UP011
416.398	1.6	171530	WORD	n/a	wordpools/wordpool_EN.txt	PLANE	14.0	3	n/a	n/a	pyFR	1	UP011
418.954	1.6	172552	WORD	n/a	wordpools/wordpool_EN.txt	PIT	15.0	3	n/a	n/a	pyFR	1	UP011
420.566	1.078	173197	START	n/a	n/a	n/a	n/a	3	[-999 -999 -999]	-999.0	pyFR	1	UP011
421.644	3.52	173628	PROB	3.437	n/a	n/a	n/a	3	[8 9 9]	26.0	pyFR	1	UP011
425.164	4.64	175036	PROB	4.581	n/a	n/a	n/a	3	[9 8 8]	25.0	pyFR	1	UP011
429.804	2.707	176892	PROB	2.62	n/a	n/a	n/a	3	[2 4 5]	11.0	pyFR	1	UP011
432.511	2.422	177975	PROB	2.342	n/a	n/a	n/a	3	[8 3 9]	20.0	pyFR	1	UP011
434.933	3.287	178943	PROB	3.239	n/a	n/a	n/a	3	[9 8 2]	19.0	pyFR	1	UP011
438.22	2.326	180258	PROB	2.271	n/a	n/a	n/a	3	[2 3 8]	13.0	pyFR	1	UP011
440.546	2.295	181189	PROB	2.295	n/a	n/a	n/a	3	[2 3 3]	8.0	pyFR	1	UP011
442.841	1.012	182107	STOP	n/a	n/a	n/a	n/a	3	[-999 -999 -999]	-999.0	pyFR	1	UP011
443.853	1.143	182511	REC_START	n/a	n/a	n/a	-999.0	-999	n/a	n/a	pyFR	1	UP011
444.996	23.197	182969	REC_WORD	1.143	n/a	SHIP	-999.0	3	n/a	n/a	pyFR	1	UP011
468.193	5.898	192247	REC_WORD	24.34	n/a	COW	-999.0	3	n/a	n/a	pyFR	1	UP011
474.091	16.326	194606	REC_WORD	30.238	n/a	FISH	-999.0	3	n/a	n/a	pyFR	1	UP011
490.417	0.019	201136	TRIAL	n/a	n/a	n/a	-999.0	-999	n/a	n/a	pyFR	1	UP011
490.436	1.6	201144	ORIENT	n/a	n/a	n/a	-999.0	-999	n/a	n/a	pyFR	1	UP011
493.213	1.6	202255	WORD	n/a	wordpools/wordpool_EN.txt	VASE	1.0	4	n/a	n/a	pyFR	1	UP011
495.775	1.6	203279	WORD	n/a	wordpools/wordpool_EN.txt	MILK	2.0	4	n/a	n/a	pyFR	1	UP011
498.188	1.6	204244	WORD	n/a	wordpools/wordpool_EN.txt	SOAP	3.0	4	n/a	n/a	pyFR	1	UP011
500.631	1.6	205222	WORD	n/a	wordpools/wordpool_EN.txt	FLAME	4.0	4	n/a	n/a	pyFR	1	UP011
503.128	1.6	206220	WORD	n/a	wordpools/wordpool_EN.txt	GATE	5.0	4	n/a	n/a	pyFR	1	UP011
505.655	1.6	207231	WORD	n/a	wordpools/wordpool_EN.txt	INK	6.0	4	n/a	n/a	pyFR	1	UP011
508.106	1.6	208212	WORD	n/a	wordpools/wordpool_EN.txt	COIN	7.0	4	n/a	n/a	pyFR	1	UP011
510.51	1.6	209173	WORD	n/a	wordpools/wordpool_EN.txt	RICE	8.0	4	n/a	n/a	pyFR	1	UP011
513.236	1.6	210263	WORD	n/a	wordpools/wordpool_EN.txt	ROOF	9.0	4	n/a	n/a	pyFR	1	UP011
515.712	1.6	211254	WORD	n/a	wordpools/wordpool_EN.txt	WOLF	10.0	4	n/a	n/a	pyFR	1	UP011
518.182	1.6	212242	WORD	n/a	wordpools/wordpool_EN.txt	DEER	11.0	4	n/a	n/a	pyFR	1	UP011
520.979	1.6	213360	WORD	n/a	wordpools/wordpool_EN.txt	CRANE	12.0	4	n/a	n/a	pyFR	1	UP011
523.751	1.6	214469	WORD	n/a	wordpools/wordpool_EN.txt	EGG	13.0	4	n/a	n/a	pyFR	1	UP011
526.537	1.6	215584	WORD	n/a	wordpools/wordpool_EN.txt	RUG	14.0	4	n/a	n/a	pyFR	1	UP011
529.086	1.6	216603	WORD	n/a	wordpools/wordpool_EN.txt	TENT	15.0	4	n/a	n/a	pyFR	1	UP011
530.697	1.122	217248	START	n/a	n/a	n/a	n/a	4	[-999 -999 -999]	-999.0	pyFR	1	UP011
531.819	3.08	217696	PROB	3.025	n/a	n/a	n/a	4	[3 1 8]	12.0	pyFR	1	UP011
534.899	3.291	218928	PROB	3.204	n/a	n/a	n/a	4	[2 6 9]	17.0	pyFR	1	UP011
538.19	2.482	220245	PROB	2.423	n/a	n/a	n/a	4	[4 5 2]	11.0	pyFR	1	UP011
540.672	2.575	221237	PROB	2.519	n/a	n/a	n/a	4	[2 3 2]	7.0	pyFR	1	UP011
543.247	3.348	222267	PROB	3.283	n/a	n/a	n/a	4	[7 1 7]	15.0	pyFR	1	UP011
546.595	5.503	223606	PROB	5.503	n/a	n/a	n/a	4	[2 5 9]	16.0	pyFR	1	UP011
552.098	1.169	225808	STOP	n/a	n/a	n/a	n/a	4	[-999 -999 -999]	-999.0	pyFR	1	UP011
553.267	2.101	226275	REC_START	n/a	n/a	n/a	-999.0	-999	n/a	n/a	pyFR	1	UP011
555.368	1.01	227116	REC_WORD	2.101	n/a	DEER	-999.0	4	n/a	n/a	pyFR	1	UP011
556.378	3.501	227520	REC_WORD	3.111	n/a	WOLF	-999.0	4	n/a	n/a	pyFR	1	UP011
559.879	8.289	228920	REC_WORD	6.612	n/a	TENT	-999.0	4	n/a	n/a	pyFR	1	UP011
568.168	31.793	232235	REC_WORD	14.901	n/a	COIN	-999.0	4	n/a	n/a	pyFR	1	UP011
599.961	0.016	244952	TRIAL	n/a	n/a	n/a	-999.0	-999	n/a	n/a	pyFR	1	UP011
599.977	1.6	244958	ORIENT	n/a	n/a	n/a	-999.0	-999	n/a	n/a	pyFR	1	UP011
602.699	1.6	246047	WORD	n/a	wordpools/wordpool_EN.txt	BADGE	1.0	5	n/a	n/a	pyFR	1	UP011
605.252	1.6	247068	WORD	n/a	wordpools/wordpool_EN.txt	WHEEL	2.0	5	n/a	n/a	pyFR	1	UP011
607.924	1.6	248137	WORD	n/a	wordpools/wordpool_EN.txt	DITCH	3.0	5	n/a	n/a	pyFR	1	UP011
610.35	1.6	249107	WORD	n/a	wordpools/wordpool_EN.txt	BOMB	4.0	5	n/a	n/a	pyFR	1	UP011
613.103	1.6	250209	WORD	n/a	wordpools/wordpool_EN.txt	STRAW	5.0	5	n/a	n/a	pyFR	1	UP011
615.529	1.6	251179	WORD	n/a	wordpools/wordpool_EN.txt	STAR	6.0	5	n/a	n/a	pyFR	1	UP011
618.201	1.6	252248	WORD	n/a	wordpools/wordpool_EN.txt	TOOTH	7.0	5	n/a	n/a	pyFR	1	UP011
620.792	1.6	253284	WORD	n/a	wordpools/wordpool_EN.txt	BOWL	8.0	5	n/a	n/a	pyFR	1	UP011
623.292	1.6	254284	WORD	n/a	wordpools/wordpool_EN.txt	PIN	9.0	5	n/a	n/a	pyFR	1	UP011
625.743	1.6	255264	WORD	n/a	wordpools/wordpool_EN.txt	BEAR	10.0	5	n/a	n/a	pyFR	1	UP011
628.483	1.6	256360	WORD	n/a	wordpools/wordpool_EN.txt	PET	11.0	5	n/a	n/a	pyFR	1	UP011
631.23	1.6	257459	WORD	n/a	wordpools/wordpool_EN.txt	CAKE	12.0	5	n/a	n/a	pyFR	1	UP011
633.813	1.6	258492	WORD	n/a	wordpools/wordpool_EN.txt	RIB	13.0	5	n/a	n/a	pyFR	1	UP011
636.346	1.6	259505	WORD	n/a	wordpools/wordpool_EN.txt	THREAD	14.0	5	n/a	n/a	pyFR	1	UP011
638.964	1.6	260553	WORD	n/a	wordpools/wordpool_EN.txt	BRANCH	15.0	5	n/a	n/a	pyFR	1	UP011
640.579	1.111	261199	START	n/a	n/a	n/a	n/a	5	[-999 -999 -999]	-999.0	pyFR	1	UP011
641.69	2.653	261643	PROB	2.591	n/a	n/a	n/a	5	[1 8 3]	12.0	pyFR	1	UP011
644.343	2.12	262704	PROB	2.027	n/a	n/a	n/a	5	[9 1 2]	12.0	pyFR	1	UP011
646.463	2.361	263552	PROB	2.268	n/a	n/a	n/a	5	[9 4 1]	14.0	pyFR	1	UP011
648.824	2.513	264496	PROB	2.46	n/a	n/a	n/a	5	[8 1 9]	18.0	pyFR	1	UP011
651.337	2.174	265502	PROB	2.127	n/a	n/a	n/a	5	[7 8 6]	21.0	pyFR	1	UP011
653.511	1.841	266371	PROB	1.782	n/a	n/a	n/a	5	[8 3 4]	15.0	pyFR	1	UP011
655.352	2.455	267108	PROB	2.372	n/a	n/a	n/a	5	[9 1 1]	11.0	pyFR	1	UP011
657.807	2.83	268089	PROB	2.83	n/a	n/a	n/a	5	[8 6 1]	15.0	pyFR	1	UP011
660.637	1.212	269221	STOP	n/a	n/a	n/a	n/a	5	[-999 -999 -999]	-999.0	pyFR	1	UP011
661.849	2.478	269706	REC_START	n/a	n/a	n/a	-999.0	-999	n/a	n/a	pyFR	1	UP011
664.327	43.924	270697	REC_WORD	2.478	n/a	BOWL	-999.0	5	n/a	n/a	pyFR	1	UP011
708.251	0.016	288266	TRIAL	n/a	n/a	n/a	-999.0	-999	n/a	n/a	pyFR	1	UP011
708.267	1.6	288273	ORIENT	n/a	n/a	n/a	-999.0	-999	n/a	n/a	pyFR	1	UP011
711.18	1.6	289438	WORD	n/a	wordpools/wordpool_EN.txt	SEA	1.0	6	n/a	n/a	pyFR	1	UP011
713.793	1.6	290483	WORD	n/a	wordpools/wordpool_EN.txt	BREAD	2.0	6	n/a	n/a	pyFR	1	UP011
716.301	1.6	291486	WORD	n/a	wordpools/wordpool_EN.txt	GLOVE	3.0	6	n/a	n/a	pyFR	1	UP011
718.943	1.6	292543	WORD	n/a	wordpools/wordpool_EN.txt	TRUCK	4.0	6	n/a	n/a	pyFR	1	UP011
721.742	1.6	293662	WORD	n/a	wordpools/wordpool_EN.txt	GEESE	5.0	6	n/a	n/a	pyFR	1	UP011
724.354	1.6	294707	WORD	n/a	wordpools/wordpool_EN.txt	LOCK	6.0	6	n/a	n/a	pyFR	1	UP011
726.848	1.6	295705	WORD	n/a	wordpools/wordpool_EN.txt	TEA	7.0	6	n/a	n/a	pyFR	1	UP011
729.384	1.6	296719	WORD	n/a	wordpools/wordpool_EN.txt	DIME	8.0	6	n/a	n/a	pyFR	1	UP011
731.907	1.6	297728	WORD	n/a	wordpools/wordpool_EN.txt	FUR	9.0	6	n/a	n/a	pyFR	1	UP011
734.443	1.6	298743	WORD	n/a	wordpools/wordpool_EN.txt	BOX	10.0	6	n/a	n/a	pyFR	1	UP011
736.916	1.6	299732	WORD	n/a	wordpools/wordpool_EN.txt	FLUTE	11.0	6	n/a	n/a	pyFR	1	UP011
739.497	1.6	300764	WORD	n/a	wordpools/wordpool_EN.txt	SKUNK	12.0	6	n/a	n/a	pyFR	1	UP011
742.121	1.6	301814	WORD	n/a	wordpools/wordpool_EN.txt	CHEEK	13.0	6	n/a	n/a	pyFR	1	UP011
744.798	1.6	302884	WORD	n/a	wordpools/wordpool_EN.txt	RAKE	14.0	6	n/a	n/a	pyFR	1	UP011
747.25	1.6	303865	WORD	n/a	wordpools/wordpool_EN.txt	PEA	15.0	6	n/a	n/a	pyFR	1	UP011
748.864	1.133	304511	START	n/a	n/a	n/a	n/a	6	[-999 -999 -999]	-999.0	pyFR	1	UP011
749.997	2.749	304964	PROB	2.664	n/a	n/a	n/a	6	[9 3 6]	18.0	pyFR	1	UP011
752.746	2.045	306064	PROB	1.994	n/a	n/a	n/a	6	[2 2 7]	11.0	pyFR	1	UP011
754.791	3.325	306881	PROB	3.237	n/a	n/a	n/a	6	[9 9 1]	19.0	pyFR	1	UP011
758.116	3.144	308211	PROB	3.062	n/a	n/a	n/a	6	[7 5 3]	15.0	pyFR	1	UP011
761.26	2.666	309469	PROB	2.606	n/a	n/a	n/a	6	[7 5 6]	18.0	pyFR	1	UP011
763.926	2.594	310535	PROB	2.529	n/a	n/a	n/a	6	[6 5 6]	17.0	pyFR	1	UP011
766.52	2.087	311573	PROB	1.995	n/a	n/a	n/a	6	[6 5 6]	17.0	pyFR	1	UP011
768.607	1.437	312408	PROB	1.437	n/a	n/a	n/a	6	[1 1 1]	3.0	pyFR	1	UP011
770.044	1.072	312982	STOP	n/a	n/a	n/a	n/a	6	[-999 -999 -999]	-999.0	pyFR	1	UP011
771.116	16.579	313411	REC_START	n/a	n/a	n/a	-999.0	-999	n/a	n/a	pyFR	1	UP011
787.695	29.934	320043	REC_WORD	16.579	n/a	GEESE	-999.0	6	n/a	n/a	pyFR	1	UP011
817.629	0.016	332016	TRIAL	n/a	n/a	n/a	-999.0	-999	n/a	n/a	pyFR	1	UP011
817.645	1.6	332022	ORIENT	n/a	n/a	n/a	-999.0	-999	n/a	n/a	pyFR	1	UP011
820.446	1.6	333142	WORD	n/a	wordpools/wordpool_EN.txt	STOVE	1.0	7	n/a	n/a	pyFR	1	UP011
823.19	1.6	334240	WORD	n/a	wordpools/wordpool_EN.txt	BOARD	2.0	7	n/a	n/a	pyFR	1	UP011
825.896	1.6	335322	WORD	n/a	wordpools/wordpool_EN.txt	ZOO	3.0	7	n/a	n/a	pyFR	1	UP011
828.353	1.6	336305	WORD	n/a	wordpools/wordpool_EN.txt	JUICE	4.0	7	n/a	n/a	pyFR	1	UP011
830.787	1.6	337279	WORD	n/a	wordpools/wordpool_EN.txt	WAND	5.0	7	n/a	n/a	pyFR	1	UP011
833.522	1.6	338373	WORD	n/a	wordpools/wordpool_EN.txt	STAIR	6.0	7	n/a	n/a	pyFR	1	UP011
836.103	1.6	339405	WORD	n/a	wordpools/wordpool_EN.txt	BRUSH	7.0	7	n/a	n/a	pyFR	1	UP011
838.531	1.6	340376	WORD	n/a	wordpools/wordpool_EN.txt	PIE	8.0	7	n/a	n/a	pyFR	1	UP011
841.109	1.6	341407	WORD	n/a	wordpools/wordpool_EN.txt	KING	9.0	7	n/a	n/a	pyFR	1	UP011
843.62	1.6	342412	WORD	n/a	wordpools/wordpool_EN.txt	CLOWN	10.0	7	n/a	n/a	pyFR	1	UP011
846.369	1.6	343511	WORD	n/a	wordpools/wordpool_EN.txt	DOG	11.0	7	n/a	n/a	pyFR	1	UP011
849.09	1.6	344600	WORD	n/a	wordpools/wordpool_EN.txt	CALF	12.0	7	n/a	n/a	pyFR	1	UP011
851.665	1.6	345630	WORD	n/a	wordpools/wordpool_EN.txt	SCHOOL	13.0	7	n/a	n/a	pyFR	1	UP011
854.105	1.6	346605	WORD	n/a	wordpools/wordpool_EN.txt	NOSE	14.0	7	n/a	n/a	pyFR	1	UP011
856.561	1.6	347588	WORD	n/a	wordpools/wordpool_EN.txt	DOOR	15.0	7	n/a	n/a	pyFR	1	UP011
858.18	0.807	348235	START	n/a	n/a	n/a	n/a	7	[-999 -999 -999]	-999.0	pyFR	1	UP011
858.987	2.873	348558	PROB	2.82	n/a	n/a	n/a	7	[7 3 7]	17.0	pyFR	1	UP011
861.86	2.526	349707	PROB	2.467	n/a	n/a	n/a	7	[3 4 6]	13.0	pyFR	1	UP011
864.386	2.359	350718	PROB	2.311	n/a	n/a	n/a	7	[8 7 5]	20.0	pyFR	1	UP011
866.745	1.74	351661	PROB	1.69	n/a	n/a	n/a	7	[5 6 1]	12.0	pyFR	1	UP011
868.485	3.698	352357	PROB	3.639	n/a	n/a	n/a	7	[8 4 4]	16.0	pyFR	1	UP011
872.183	2.593	353836	PROB	2.542	n/a	n/a	n/a	7	[9 1 1]	11.0	pyFR	1	UP011
874.776	2.409	354874	PROB	2.347	n/a	n/a	n/a	7	[5 3 8]	16.0	pyFR	1	UP011
877.185	2.647	355837	PROB	2.647	n/a	n/a	n/a	7	[3 2 6]	12.0	pyFR	1	UP011
879.832	1.112	356896	STOP	n/a	n/a	n/a	n/a	7	[-999 -999 -999]	-999.0	pyFR	1	UP011
880.944	4.133	357341	REC_START	n/a	n/a	n/a	-999.0	-999	n/a	n/a	pyFR	1	UP011
885.077	6.293	358994	REC_WORD_VV	4.133	n/a	VV	-999.0	7	n/a	n/a	pyFR	1	UP011
891.37	5.483	361511	REC_WORD	10.426	n/a	CALF	-999.0	7	n/a	n/a	pyFR	1	UP011
896.853	3.93	363704	REC_WORD	15.909	n/a	NOSE	-999.0	7	n/a	n/a	pyFR	1	UP011
900.783	10.484	365276	REC_WORD	19.839	n/a	DOOR	-999.0	7	n/a	n/a	pyFR	1	UP011
911.267	16.559	369469	REC_WORD	30.323	n/a	STOVE	-999.0	7	n/a	n/a	pyFR	1	UP011
927.826	0.02	376093	TRIAL	n/a	n/a	n/a	-999.0	-999	n/a	n/a	pyFR	1	UP011
927.846	1.6	376101	ORIENT	n/a	n/a	n/a	-999.0	-999	n/a	n/a	pyFR	1	UP011
930.682	1.6	377235	WORD	n/a	wordpools/wordpool_EN.txt	WING	1.0	8	n/a	n/a	pyFR	1	UP011
933.459	1.6	378346	WORD	n/a	wordpools/wordpool_EN.txt	SEAL	2.0	8	n/a	n/a	pyFR	1	UP011
935.877	1.6	379313	WORD	n/a	wordpools/wordpool_EN.txt	HEART	3.0	8	n/a	n/a	pyFR	1	UP011
938.551	1.6	380382	WORD	n/a	wordpools/wordpool_EN.txt	MOLE	4.0	8	n/a	n/a	pyFR	1	UP011
941.161	1.6	381426	WORD	n/a	wordpools/wordpool_EN.txt	CROWN	5.0	8	n/a	n/a	pyFR	1	UP011
943.639	1.6	382418	WORD	n/a	wordpools/wordpool_EN.txt	LAWN	6.0	8	n/a	n/a	pyFR	1	UP011
946.279	1.6	383474	WORD	n/a	wordpools/wordpool_EN.txt	POOL	7.0	8	n/a	n/a	pyFR	1	UP011
948.741	1.6	384458	WORD	n/a	wordpools/wordpool_EN.txt	BLOOM	8.0	8	n/a	n/a	pyFR	1	UP011
951.295	1.6	385480	WORD	n/a	wordpools/wordpool_EN.txt	BANK	9.0	8	n/a	n/a	pyFR	1	UP011
953.745	1.6	386460	WORD	n/a	wordpools/wordpool_EN.txt	MUD	10.0	8	n/a	n/a	pyFR	1	UP011
956.377	1.6	387513	WORD	n/a	wordpools/wordpool_EN.txt	KITE	11.0	8	n/a	n/a	pyFR	1	UP011
958.923	1.6	388531	WORD	n/a	wordpools/wordpool_EN.txt	PEN	12.0	8	n/a	n/a	pyFR	1	UP011
961.565	1.6	389588	WORD	n/a	wordpools/wordpool_EN.txt	FUDGE	13.0	8	n/a	n/a	pyFR	1	UP011
964.12	1.6	390610	WORD	n/a	wordpools/wordpool_EN.txt	RAT	14.0	8	n/a	n/a	pyFR	1	UP011
966.913	1.6	391727	WORD	n/a	wordpools/wordpool_EN.txt	SKY	15.0	8	n/a	n/a	pyFR	1	UP011
968.523	1.018	392371	START	n/a	n/a	n/a	n/a	8	[-999 -999 -999]	-999.0	pyFR	1	UP011
969.541	4.306	392778	PROB	4.245	n/a	n/a	n/a	8	[8 5 1]	14.0	pyFR	1	UP011
973.847	1.908	394500	PROB	1.848	n/a	n/a	n/a	8	[3 3 7]	13.0	pyFR	1	UP011
975.755	2.359	395263	PROB	2.298	n/a	n/a	n/a	8	[2 5 8]	15.0	pyFR	1	UP011
978.114	2.015	396207	PROB	1.929	n/a	n/a	n/a	8	[5 6 2]	13.0	pyFR	1	UP011
980.129	3.657	397013	PROB	3.604	n/a	n/a	n/a	8	[3 3 6]	12.0	pyFR	1	UP011
983.786	2.743	398476	PROB	2.682	n/a	n/a	n/a	8	[7 1 4]	12.0	pyFR	1	UP011
986.529	2.462	399573	PROB	2.462	n/a	n/a	n/a	8	[5 7 5]	17.0	pyFR	1	UP011
988.991	1.148	400558	STOP	n/a	n/a	n/a	n/a	8	[-999 -999 -999]	-999.0	pyFR	1	UP011
990.139	10.356	401017	REC_START	n/a	n/a	n/a	-999.0	-999	n/a	n/a	pyFR	1	UP011
1000.495	8.109	405159	REC_WORD	10.356	n/a	WING	-999.0	8	n/a	n/a	pyFR	1	UP011
1008.604	6.682	408403	REC_WORD	18.465	n/a	SEAL	-999.0	8	n/a	n/a	pyFR	1	UP011
1015.286	1.005	411075	REC_WORD	25.147	n/a	CROWN	-999.0	8	n/a	n/a	pyFR	1	UP011
1016.291	21.816	411477	REC_WORD	26.152	n/a	LAWN	-999.0	8	n/a	n/a	pyFR	1	UP011
1038.107	0.019	420203	TRIAL	n/a	n/a	n/a	-999.0	-999	n/a	n/a	pyFR	1	UP011
1038.126	1.6	420211	ORIENT	n/a	n/a	n/a	-999.0	-999	n/a	n/a	pyFR	1	UP011
1040.802	1.6	421281	WORD	n/a	wordpools/wordpool_EN.txt	PANTS	1.0	9	n/a	n/a	pyFR	1	UP011
1043.265	1.6	422266	WORD	n/a	wordpools/wordpool_EN.txt	MAP	2.0	9	n/a	n/a	pyFR	1	UP011
1045.704	1.6	423242	WORD	n/a	wordpools/wordpool_EN.txt	PEAR	3.0	9	n/a	n/a	pyFR	1	UP011
1048.33	1.6	424292	WORD	n/a	wordpools/wordpool_EN.txt	HILL	4.0	9	n/a	n/a	pyFR	1	UP011
1050.906	1.6	425323	WORD	n/a	wordpools/wordpool_EN.txt	JET	5.0	9	n/a	n/a	pyFR	1	UP011
1053.341	1.6	426297	WORD	n/a	wordpools/wordpool_EN.txt	FAN	6.0	9	n/a	n/a	pyFR	1	UP011
1056.123	1.6	427409	WORD	n/a	wordpools/wordpool_EN.txt	WAVE	7.0	9	n/a	n/a	pyFR	1	UP011
1058.672	1.6	428429	WORD	n/a	wordpools/wordpool_EN.txt	LIP	8.0	9	n/a	n/a	pyFR	1	UP011
1061.374	1.6	429510	WORD	n/a	wordpools/wordpool_EN.txt	LEAF	9.0	9	n/a	n/a	pyFR	1	UP011
1063.869	1.6	430508	WORD	n/a	wordpools/wordpool_EN.txt	PIPE	10.0	9	n/a	n/a	pyFR	1	UP011
1066.317	1.6	431487	WORD	n/a	wordpools/wordpool_EN.txt	FOG	11.0	9	n/a	n/a	pyFR	1	UP011
1068.769	1.6	432468	WORD	n/a	wordpools/wordpool_EN.txt	VEST	12.0	9	n/a	n/a	pyFR	1	UP011
1071.195	1.6	433438	WORD	n/a	wordpools/wordpool_EN.txt	CARD	13.0	9	n/a	n/a	pyFR	1	UP011
1073.611	1.6	434404	WORD	n/a	wordpools/wordpool_EN.txt	LEG	14.0	9	n/a	n/a	pyFR	1	UP011
1076.123	1.6	435409	WORD	n/a	wordpools/wordpool_EN.txt	MUG	15.0	9	n/a	n/a	pyFR	1	UP011
1077.734	1.057	436053	START	n/a	n/a	n/a	n/a	9	[-999 -999 -999]	-999.0	pyFR	1	UP011
1078.791	3.596	436476	PROB	3.532	n/a	n/a	n/a	9	[2 5 6]	13.0	pyFR	1	UP011
1082.387	1.871	437915	PROB	1.776	n/a	n/a	n/a	9	[1 5 1]	7.0	pyFR	1	UP011
1084.258	2.526	438663	PROB	2.441	n/a	n/a	n/a	9	[4 5 9]	18.0	pyFR	1	UP011
1086.784	2.513	439673	PROB	2.462	n/a	n/a	n/a	9	[5 6 5]	16.0	pyFR	1	UP011
1089.297	1.844	440678	PROB	1.769	n/a	n/a	n/a	9	[5 5 2]	12.0	pyFR	1	UP011
1091.141	2.925	441416	PROB	2.864	n/a	n/a	n/a	9	[3 3 4]	10.0	pyFR	1	UP011
1094.066	2.269	442586	PROB	2.178	n/a	n/a	n/a	9	[8 2 9]	19.0	pyFR	1	UP011
1096.335	2.928	443494	PROB	2.928	n/a	n/a	n/a	9	[5 1 4]	10.0	pyFR	1	UP011
1099.263	1.09	444665	STOP	n/a	n/a	n/a	n/a	9	[-999 -999 -999]	-999.0	pyFR	1	UP011
1100.353	1.364	445101	REC_START	n/a	n/a	n/a	-999.0	-999	n/a	n/a	pyFR	1	UP011
1101.717	0.894	445646	REC_WORD	1.364	n/a	FOG	-999.0	9	n/a	n/a	pyFR	1	UP011
1102.611	3.715	446004	REC_WORD	2.258	n/a	MAP	-999.0	9	n/a	n/a	pyFR	1	UP011
1106.326	0.216	447490	REC_WORD	5.973	n/a	PANTS	-999.0	9	n/a	n/a	pyFR	1	UP011
1106.542	1.602	447576	REC_WORD_VV	6.189	n/a	VV	-999.0	9	n/a	n/a	pyFR	1	UP011
1108.144	2.415	448217	REC_WORD	7.791	n/a	PEAR	-999.0	9	n/a	n/a	pyFR	1	UP011
1110.559	12.272	449183	REC_WORD	10.206	n/a	MAP	-999.0	9	n/a	n/a	pyFR	1	UP011
1122.831	25.406	454091	REC_WORD	22.478	n/a	HILL	-999.0	9	n/a	n/a	pyFR	1	UP011
1148.237	0.02	464253	TRIAL	n/a	n/a	n/a	-999.0	-999	n/a	n/a	pyFR	1	UP011
1148.257	1.6	464261	ORIENT	n/a	n/a	n/a	-999.0	-999	n/a	n/a	pyFR	1	UP011
1151.254	1.6	465460	WORD	n/a	wordpools/wordpool_EN.txt	BENCH	1.0	10	n/a	n/a	pyFR	1	UP011
1153.968	1.6	466546	WORD	n/a	wordpools/wordpool_EN.txt	GRASS	2.0	10	n/a	n/a	pyFR	1	UP011
1156.537	1.6	467573	WORD	n/a	wordpools/wordpool_EN.txt	ICE	3.0	10	n/a	n/a	pyFR	1	UP011
1158.947	1.6	468537	WORD	n/a	wordpools/wordpool_EN.txt	JEEP	4.0	10	n/a	n/a	pyFR	1	UP011
1161.389	1.6	469514	WORD	n/a	wordpools/wordpool_EN.txt	ANT	5.0	10	n/a	n/a	pyFR	1	UP011
1163.847	1.6	470497	WORD	n/a	wordpools/wordpool_EN.txt	TAIL	6.0	10	n/a	n/a	pyFR	1	UP011
1166.629	1.6	471610	WORD	n/a	wordpools/wordpool_EN.txt	SAIL	7.0	10	n/a	n/a	pyFR	1	UP011
1169.317	1.6	472685	WORD	n/a	wordpools/wordpool_EN.txt	DRUM	8.0	10	n/a	n/a	pyFR	1	UP011
1171.832	1.6	473691	WORD	n/a	wordpools/wordpool_EN.txt	DESK	9.0	10	n/a	n/a	pyFR	1	UP011
1174.387	1.6	474713	WORD	n/a	wordpools/wordpool_EN.txt	EEL	10.0	10	n/a	n/a	pyFR	1	UP011
1177.104	1.6	475800	WORD	n/a	wordpools/wordpool_EN.txt	FLEA	11.0	10	n/a	n/a	pyFR	1	UP011
1179.584	1.6	476792	WORD	n/a	wordpools/wordpool_EN.txt	TOE	12.0	10	n/a	n/a	pyFR	1	UP011
1182.33	1.6	477890	WORD	n/a	wordpools/wordpool_EN.txt	VAN	13.0	10	n/a	n/a	pyFR	1	UP011
1184.857	1.6	478901	WORD	n/a	wordpools/wordpool_EN.txt	GIRL	14.0	10	n/a	n/a	pyFR	1	UP011
1187.643	1.6	480015	WORD	n/a	wordpools/wordpool_EN.txt	CART	15.0	10	n/a	n/a	pyFR	1	UP011
1189.252	1.167	480659	START	n/a	n/a	n/a	n/a	10	[-999 -999 -999]	-999.0	pyFR	1	UP011
1190.419	3.985	481126	PROB	3.897	n/a	n/a	n/a	10	[6 9 1]	16.0	pyFR	1	UP011
1194.404	3.635	482720	PROB	3.58	n/a	n/a	n/a	10	[8 8 9]	25.0	pyFR	1	UP011
1198.039	2.879	484173	PROB	2.815	n/a	n/a	n/a	10	[8 9 2]	19.0	pyFR	1	UP011
1200.918	4.082	485325	PROB	4.024	n/a	n/a	n/a	10	[6 8 4]	18.0	pyFR	1	UP011
1205.0	2.81	486958	PROB	2.762	n/a	n/a	n/a	10	[8 2 3]	13.0	pyFR	1	UP011
1207.81	2.061	488082	PROB	2.061	n/a	n/a	n/a	10	[1 1 3]	5.0	pyFR	1	UP011
1209.871	1.079	488906	STOP	n/a	n/a	n/a	n/a	10	[-999 -999 -999]	-999.0	pyFR	1	UP011
1210.95	2.205	489338	REC_START	n/a	n/a	n/a	-999.0	-999	n/a	n/a	pyFR	1	UP011
1213.155	0.715	490220	REC_WORD	2.205	n/a	TAIL	-999.0	10	n/a	n/a	pyFR	1	UP011
1213.87	0.51	490506	REC_WORD	2.92	n/a	SAIL	-999.0	10	n/a	n/a	pyFR	1	UP011
1214.38	2.799	490710	REC_WORD_VV	3.43	n/a	VV	-999.0	10	n/a	n/a	pyFR	1	UP011
1217.179	0.726	491829	REC_WORD	6.229	n/a	JEEP	-999.0	10	n/a	n/a	pyFR	1	UP011
1217.905	0.783	492120	REC_WORD	6.955	n/a	ICE	-999.0	10	n/a	n/a	pyFR	1	UP011
1218.688	0.622	492433	REC_WORD	7.738	n/a	BENCH	-999.0	10	n/a	n/a	pyFR	1	UP011
1219.31	1.271	492682	REC_WORD	8.36	n/a	GRASS	-999.0	10	n/a	n/a	pyFR	1	UP011
1220.581	3.472	493190	REC_WORD	9.631	n/a	GIRL	-999.0	10	n/a	n/a	pyFR	1	UP011
1224.053	2.484	494579	REC_WORD	13.103	n/a	EEL	-999.0	10	n/a	n/a	pyFR	1	UP011
1226.537	1.44	495572	REC_WORD	15.587	n/a	ANT	-999.0	10	n/a	n/a	pyFR	1	UP011
1227.977	4.532	496148	REC_WORD	17.027	n/a	TAIL	-999.0	10	n/a	n/a	pyFR	1	UP011
1232.509	14.954	497961	REC_WORD	21.559	n/a	SAIL	-999.0	10	n/a	n/a	pyFR	1	UP011
1247.463	11.975	503942	REC_WORD	36.513	n/a	ICE	-999.0	10	n/a	n/a	pyFR	1	UP011
1259.438	0.02	508732	TRIAL	n/a	n/a	n/a	-999.0	-999	n/a	n/a	pyFR	1	UP011
1259.458	1.6	508740	ORIENT	n/a	n/a	n/a	-999.0	-999	n/a	n/a	pyFR	1	UP011
1262.205	1.6	509839	WORD	n/a	wordpools/wordpool_EN.txt	SHOE	1.0	11	n/a	n/a	pyFR	1	UP011
1264.738	1.6	510852	WORD	n/a	wordpools/wordpool_EN.txt	FORK	2.0	11	n/a	n/a	pyFR	1	UP011
1267.299	1.6	511876	WORD	n/a	wordpools/wordpool_EN.txt	HOOK	3.0	11	n/a	n/a	pyFR	1	UP011
1270.1	1.6	512997	WORD	n/a	wordpools/wordpool_EN.txt	MOOSE	4.0	11	n/a	n/a	pyFR	1	UP011
1272.831	1.6	514089	WORD	n/a	wordpools/wordpool_EN.txt	OAR	5.0	11	n/a	n/a	pyFR	1	UP011
1275.471	1.6	515145	WORD	n/a	wordpools/wordpool_EN.txt	GRAPE	6.0	11	n/a	n/a	pyFR	1	UP011
1278.068	1.6	516184	WORD	n/a	wordpools/wordpool_EN.txt	SEED	7.0	11	n/a	n/a	pyFR	1	UP011
1280.711	1.6	517241	WORD	n/a	wordpools/wordpool_EN.txt	BRICK	8.0	11	n/a	n/a	pyFR	1	UP011
1283.215	1.6	518242	WORD	n/a	wordpools/wordpool_EN.txt	GOLD	9.0	11	n/a	n/a	pyFR	1	UP011
1285.788	1.6	519272	WORD	n/a	wordpools/wordpool_EN.txt	TREE	10.0	11	n/a	n/a	pyFR	1	UP011
1288.58	1.6	520388	WORD	n/a	wordpools/wordpool_EN.txt	PEARL	11.0	11	n/a	n/a	pyFR	1	UP011
1291.244	1.6	521454	WORD	n/a	wordpools/wordpool_EN.txt	BOY	12.0	11	n/a	n/a	pyFR	1	UP011
1293.931	1.6	522529	WORD	n/a	wordpools/wordpool_EN.txt	FOAM	13.0	11	n/a	n/a	pyFR	1	UP011
1296.56	1.6	523580	WORD	n/a	wordpools/wordpool_EN.txt	YARD	14.0	11	n/a	n/a	pyFR	1	UP011
1299.085	1.6	524590	WORD	n/a	wordpools/wordpool_EN.txt	GLASS	15.0	11	n/a	n/a	pyFR	1	UP011
1300.705	1.177	525238	START	n/a	n/a	n/a	n/a	11	[-999 -999 -999]	-999.0	pyFR	1	UP011
1301.882	4.046	525709	PROB	3.981	n/a	n/a	n/a	11	[8 6 9]	23.0	pyFR	1	UP011
1305.928	3.413	527327	PROB	3.363	n/a	n/a	n/a	11	[1 3 7]	11.0	pyFR	1	UP011
1309.341	4.412	528692	PROB	4.321	n/a	n/a	n/a	11	[1 5 3]	9.0	pyFR	1	UP011
1313.753	4.168	530457	PROB	4.076	n/a	n/a	n/a	11	[3 2 5]	10.0	pyFR	1	UP011
1317.921	4.088	532124	PROB	4.088	n/a	n/a	n/a	11	[4 9 8]	21.0	pyFR	1	UP011
1322.009	1.187	533759	STOP	n/a	n/a	n/a	n/a	11	[-999 -999 -999]	-999.0	pyFR	1	UP011
1323.196	3.93	534234	REC_START	n/a	n/a	n/a	-999.0	-999	n/a	n/a	pyFR	1	UP011
1327.126	1.23	535806	REC_WORD	3.93	n/a	LEMON	-999.0	11	n/a	n/a	pyFR	1	UP011
1328.356	1.045	536298	REC_WORD_VV	5.16	n/a	VV	-999.0	11	n/a	n/a	pyFR	1	UP011
1329.401	2.746	536716	REC_WORD	6.205	n/a	GRASS	-999.0	11	n/a	n/a	pyFR	1	UP011
1332.147	0.616	537814	REC_WORD	8.951	n/a	HOOK	-999.0	11	n/a	n/a	pyFR	1	UP011
1332.763	39.566	538061	REC_WORD	9.567	n/a	FORK	-999.0	11	n/a	n/a	pyFR	1	UP011
1372.329	0.016	553887	TRIAL	n/a	n/a	n/a	-999.0	-999	n/a	n/a	pyFR	1	UP011
1372.345	1.6	553893	ORIENT	n/a	n/a	n/a	-999.0	-999	n/a	n/a	pyFR	1	UP011
1375.35	1.6	555095	WORD	n/a	wordpools/wordpool_EN.txt	LAMP	1.0	12	n/a	n/a	pyFR	1	UP011
1378.161	1.6	556219	WORD	n/a	wordpools/wordpool_EN.txt	KEY	2.0	12	n/a	n/a	pyFR	1	UP011
1380.587	1.6	557190	WORD	n/a	wordpools/wordpool_EN.txt	SLIME	3.0	12	n/a	n/a	pyFR	1	UP011
1383.387	1.6	558310	WORD	n/a	wordpools/wordpool_EN.txt	STEM	4.0	12	n/a	n/a	pyFR	1	UP011
1385.922	1.6	559324	WORD	n/a	wordpools/wordpool_EN.txt	SIGN	5.0	12	n/a	n/a	pyFR	1	UP011
1388.362	1.6	560300	WORD	n/a	wordpools/wordpool_EN.txt	HAT	6.0	12	n/a	n/a	pyFR	1	UP011
1390.881	1.6	561307	WORD	n/a	wordpools/wordpool_EN.txt	PARK	7.0	12	n/a	n/a	pyFR	1	UP011
1393.64	1.6	562411	WORD	n/a	wordpools/wordpool_EN.txt	PRINCE	8.0	12	n/a	n/a	pyFR	1	UP011
1396.362	1.6	563499	WORD	n/a	wordpools/wordpool_EN.txt	SWORD	9.0	12	n/a	n/a	pyFR	1	UP011
1399.002	1.6	564555	WORD	n/a	wordpools/wordpool_EN.txt	SHIELD	10.0	12	n/a	n/a	pyFR	1	UP011
1401.54	1.6	565571	WORD	n/a	wordpools/wordpool_EN.txt	SNOW	11.0	12	n/a	n/a	pyFR	1	UP011
1404.222	1.6	566643	WORD	n/a	wordpools/wordpool_EN.txt	ROCK	12.0	12	n/a	n/a	pyFR	1	UP011
1406.856	1.6	567697	WORD	n/a	wordpools/wordpool_EN.txt	RAIN	13.0	12	n/a	n/a	pyFR	1	UP011
1409.365	1.6	568700	WORD	n/a	wordpools/wordpool_EN.txt	TIE	14.0	12	n/a	n/a	pyFR	1	UP011
1411.998	1.6	569754	WORD	n/a	wordpools/wordpool_EN.txt	COUCH	15.0	12	n/a	n/a	pyFR	1	UP011
1413.617	0.947	570401	START	n/a	n/a	n/a	n/a	12	[-999 -999 -999]	-999.0	pyFR	1	UP011
1414.564	3.598	570780	PROB	3.518	n/a	n/a	n/a	12	[2 9 8]	19.0	pyFR	1	UP011
1418.162	3.246	572219	PROB	3.153	n/a	n/a	n/a	12	[4 1 2]	7.0	pyFR	1	UP011
1421.408	4.206	573517	PROB	4.14	n/a	n/a	n/a	12	[4 4 3]	11.0	pyFR	1	UP011
1425.614	4.512	575200	PROB	4.428	n/a	n/a	n/a	12	[6 7 6]	19.0	pyFR	1	UP011
1430.126	2.581	577004	PROB	2.531	n/a	n/a	n/a	12	[5 1 7]	13.0	pyFR	1	UP011
1432.707	2.319	578037	PROB	2.319	n/a	n/a	n/a	12	[8 4 3]	15.0	pyFR	1	UP011
1435.026	1.128	578964	STOP	n/a	n/a	n/a	n/a	12	[-999 -999 -999]	-999.0	pyFR	1	UP011
1436.154	1.672	579416	REC_START	n/a	n/a	n/a	-999.0	-999	n/a	n/a	pyFR	1	UP011
1437.826	1.828	580084	REC_WORD	1.672	n/a	PRINCE	-999.0	12	n/a	n/a	pyFR	1	UP011
1439.654	0.79	580816	REC_WORD	3.5	n/a	SWORD	-999.0	12	n/a	n/a	pyFR	1	UP011
1440.444	6.853	581132	REC_WORD	4.29	n/a	SHIELD	-999.0	12	n/a	n/a	pyFR	1	UP011
1447.297	41.472	583873	REC_WORD	11.143	n/a	BENCH	-999.0	12	n/a	n/a	pyFR	1	UP011
1488.769	0.02	600461	TRIAL	n/a	n/a	n/a	-999.0	-999	n/a	n/a	pyFR	1	UP011
1488.789	1.6	600469	ORIENT	n/a	n/a	n/a	-999.0	-999	n/a	n/a	pyFR	1	UP011
1491.705	1.6	601635	WORD	n/a	wordpools/wordpool_EN.txt	BARN	1.0	13	n/a	n/a	pyFR	1	UP011
1494.516	1.6	602759	WORD	n/a	wordpools/wordpool_EN.txt	HORN	2.0	13	n/a	n/a	pyFR	1	UP011
1497.292	1.6	603870	WORD	n/a	wordpools/wordpool_EN.txt	HOSE	3.0	13	n/a	n/a	pyFR	1	UP011
1499.834	1.6	604887	WORD	n/a	wordpools/wordpool_EN.txt	SEAT	4.0	13	n/a	n/a	pyFR	1	UP011
1502.627	1.6	606004	WORD	n/a	wordpools/wordpool_EN.txt	ROOT	5.0	13	n/a	n/a	pyFR	1	UP011
1505.311	1.6	607077	WORD	n/a	wordpools/wordpool_EN.txt	HOUSE	6.0	13	n/a	n/a	pyFR	1	UP011
1507.992	1.6	608150	WORD	n/a	wordpools/wordpool_EN.txt	DAD	7.0	13	n/a	n/a	pyFR	1	UP011
1510.51	1.6	609157	WORD	n/a	wordpools/wordpool_EN.txt	BEAN	8.0	13	n/a	n/a	pyFR	1	UP011
1513.147	1.6	610212	WORD	n/a	wordpools/wordpool_EN.txt	SLEEVE	9.0	13	n/a	n/a	pyFR	1	UP011
1515.727	1.6	611243	WORD	n/a	wordpools/wordpool_EN.txt	NET	10.0	13	n/a	n/a	pyFR	1	UP011
1518.281	1.6	612265	WORD	n/a	wordpools/wordpool_EN.txt	DOLL	11.0	13	n/a	n/a	pyFR	1	UP011
1520.958	1.6	613336	WORD	n/a	wordpools/wordpool_EN.txt	BALL	12.0	13	n/a	n/a	pyFR	1	UP011
1523.582	1.6	614385	WORD	n/a	wordpools/wordpool_EN.txt	SPONGE	13.0	13	n/a	n/a	pyFR	1	UP011
1526.222	1.6	615441	WORD	n/a	wordpools/wordpool_EN.txt	JAIL	14.0	13	n/a	n/a	pyFR	1	UP011
1528.78	1.6	616464	WORD	n/a	wordpools/wordpool_EN.txt	MAZE	15.0	13	n/a	n/a	pyFR	1	UP011
1530.406	1.018	617115	START	n/a	n/a	n/a	n/a	13	[-999 -999 -999]	-999.0	pyFR	1	UP011
1531.424	2.993	617522	PROB	2.903	n/a	n/a	n/a	13	[4 5 8]	17.0	pyFR	1	UP011
1534.417	1.727	618719	PROB	1.669	n/a	n/a	n/a	13	[2 1 4]	7.0	pyFR	1	UP011
1536.144	1.724	619410	PROB	1.662	n/a	n/a	n/a	13	[3 7 1]	11.0	pyFR	1	UP011
1537.868	3.508	620100	PROB	3.416	n/a	n/a	n/a	13	[8 6 5]	19.0	pyFR	1	UP011
1541.376	4.439	621503	PROB	4.383	n/a	n/a	n/a	13	[6 1 3]	10.0	pyFR	1	UP011
1545.815	11.15	623278	PROB	11.15	n/a	n/a	n/a	13	[8 8 9]	25.0	pyFR	1	UP011
1556.965	1.127	627738	STOP	n/a	n/a	n/a	n/a	13	[-999 -999 -999]	-999.0	pyFR	1	UP011
1558.092	4.423	628189	REC_START	n/a	n/a	n/a	-999.0	-999	n/a	n/a	pyFR	1	UP011
1562.515	4.714	629958	REC_WORD	4.423	n/a	BARN	-999.0	13	n/a	n/a	pyFR	1	UP011
1567.229	1.41	631843	REC_WORD	9.137	n/a	ROOT	-999.0	13	n/a	n/a	pyFR	1	UP011
1568.639	0.976	632407	REC_WORD	10.547	n/a	HOUSE	-999.0	13	n/a	n/a	pyFR	1	UP011
1569.615	0.546	632798	REC_WORD	11.523	n/a	DAD	-999.0	13	n/a	n/a	pyFR	1	UP011
1570.161	2.427	633016	REC_WORD	12.069	n/a	SLEEVE	-999.0	13	n/a	n/a	pyFR	1	UP011
1572.588	14.42	633987	REC_WORD	14.496	n/a	DOLL	-999.0	13	n/a	n/a	pyFR	1	UP011
1587.008	18.282	639755	REC_WORD	28.916	n/a	BEAN	-999.0	13	n/a	n/a	pyFR	1	UP011
1605.29	0.02	647067	TRIAL	n/a	n/a	n/a	-999.0	-999	n/a	n/a	pyFR	1	UP011
1605.31	1.6	647075	ORIENT	n/a	n/a	n/a	-999.0	-999	n/a	n/a	pyFR	1	UP011
1608.279	1.6	648263	WORD	n/a	wordpools/wordpool_EN.txt	CAPE	1.0	14	n/a	n/a	pyFR	1	UP011
1611.077	1.6	649382	WORD	n/a	wordpools/wordpool_EN.txt	DRESS	2.0	14	n/a	n/a	pyFR	1	UP011
1613.632	1.6	650404	WORD	n/a	wordpools/wordpool_EN.txt	ROSE	3.0	14	n/a	n/a	pyFR	1	UP011
1616.228	1.6	651442	WORD	n/a	wordpools/wordpool_EN.txt	SINK	4.0	14	n/a	n/a	pyFR	1	UP011
1618.842	1.6	652488	WORD	n/a	wordpools/wordpool_EN.txt	MAIL	5.0	14	n/a	n/a	pyFR	1	UP011
1621.472	1.6	653540	WORD	n/a	wordpools/wordpool_EN.txt	SHIRT	6.0	14	n/a	n/a	pyFR	1	UP011
1623.875	1.6	654501	WORD	n/a	wordpools/wordpool_EN.txt	STORM	7.0	14	n/a	n/a	pyFR	1	UP011
1626.39	1.6	655507	WORD	n/a	wordpools/wordpool_EN.txt	HAWK	8.0	14	n/a	n/a	pyFR	1	UP011
1628.98	1.6	656543	WORD	n/a	wordpools/wordpool_EN.txt	LAND	9.0	14	n/a	n/a	pyFR	1	UP011
1631.664	1.6	657616	WORD	n/a	wordpools/wordpool_EN.txt	GOAT	10.0	14	n/a	n/a	pyFR	1	UP011
1634.423	1.6	658720	WORD	n/a	wordpools/wordpool_EN.txt	WALL	11.0	14	n/a	n/a	pyFR	1	UP011
1636.924	1.6	659720	WORD	n/a	wordpools/wordpool_EN.txt	FOOD	12.0	14	n/a	n/a	pyFR	1	UP011
1639.434	1.6	660724	WORD	n/a	wordpools/wordpool_EN.txt	FACE	13.0	14	n/a	n/a	pyFR	1	UP011
1641.966	1.6	661737	WORD	n/a	wordpools/wordpool_EN.txt	CAGE	14.0	14	n/a	n/a	pyFR	1	UP011
1644.726	1.6	662841	WORD	n/a	wordpools/wordpool_EN.txt	CONE	15.0	14	n/a	n/a	pyFR	1	UP011
1646.336	0.833	663485	START	n/a	n/a	n/a	n/a	14	[-999 -999 -999]	-999.0	pyFR	1	UP011
1647.169	2.488	663818	PROB	2.43	n/a	n/a	n/a	14	[2 2 6]	10.0	pyFR	1	UP011
1649.657	4.774	664813	PROB	4.7	n/a	n/a	n/a	14	[6 8 9]	23.0	pyFR	1	UP011
1654.431	3.69	666723	PROB	3.629	n/a	n/a	n/a	14	[5 8 1]	15.0	pyFR	1	UP011
1658.121	5.187	668199	PROB	5.138	n/a	n/a	n/a	14	[1 8 2]	11.0	pyFR	1	UP011
1663.308	3.5	670273	PROB	3.5	n/a	n/a	n/a	14	[2 6 7]	15.0	pyFR	1	UP011
1666.808	1.131	671673	STOP	n/a	n/a	n/a	n/a	14	[-999 -999 -999]	-999.0	pyFR	1	UP011
1667.939	3.896	672126	REC_START	n/a	n/a	n/a	-999.0	-999	n/a	n/a	pyFR	1	UP011
1671.835	1.382	673684	REC_WORD	3.896	n/a	FACE	-999.0	14	n/a	n/a	pyFR	1	UP011
1673.217	25.548	674237	REC_WORD	5.278	n/a	CAGE	-999.0	14	n/a	n/a	pyFR	1	UP011
1698.765	0.906	684456	REC_WORD	30.826	n/a	CAPE	-999.0	14	n/a	n/a	pyFR	1	UP011
1699.671	1.231	684818	REC_WORD	31.732	n/a	DRESS	-999.0	14	n/a	n/a	pyFR	1	UP011
1700.902	14.602	685310	REC_WORD	32.963	n/a	SHIRT	-999.0	14	n/a	n/a	pyFR	1	UP011
1715.504	0.016	691151	TRIAL	n/a	n/a	n/a	-999.0	-999	n/a	n/a	pyFR	1	UP011
1715.52	1.6	691157	ORIENT	n/a	n/a	n/a	-999.0	-999	n/a	n/a	pyFR	1	UP011
1718.508	1.6	692353	WORD	n/a	wordpools/wordpool_EN.txt	HORSE	1.0	15	n/a	n/a	pyFR	1	UP011
1721.023	1.6	693359	WORD	n/a	wordpools/wordpool_EN.txt	NEST	2.0	15	n/a	n/a	pyFR	1	UP011
1723.821	1.6	694478	WORD	n/a	wordpools/wordpool_EN.txt	SPOON	3.0	15	n/a	n/a	pyFR	1	UP011
1726.298	1.6	695468	WORD	n/a	wordpools/wordpool_EN.txt	CUBE	4.0	15	n/a	n/a	pyFR	1	UP011
1729.016	1.6	696556	WORD	n/a	wordpools/wordpool_EN.txt	STICK	5.0	15	n/a	n/a	pyFR	1	UP011
1731.542	1.6	697566	WORD	n/a	wordpools/wordpool_EN.txt	BEAK	6.0	15	n/a	n/a	pyFR	1	UP011
1734.189	1.6	698625	WORD	n/a	wordpools/wordpool_EN.txt	SKI	7.0	15	n/a	n/a	pyFR	1	UP011
1736.769	1.6	699657	WORD	n/a	wordpools/wordpool_EN.txt	SNAKE	8.0	15	n/a	n/a	pyFR	1	UP011
1739.461	1.6	700733	WORD	n/a	wordpools/wordpool_EN.txt	ELF	9.0	15	n/a	n/a	pyFR	1	UP011
1742.199	1.6	701829	WORD	n/a	wordpools/wordpool_EN.txt	CHIN	10.0	15	n/a	n/a	pyFR	1	UP011
1744.764	1.6	702855	WORD	n/a	wordpools/wordpool_EN.txt	BED	11.0	15	n/a	n/a	pyFR	1	UP011
1747.374	1.6	703899	WORD	n/a	wordpools/wordpool_EN.txt	BATH	12.0	15	n/a	n/a	pyFR	1	UP011
1750.18	1.6	705021	WORD	n/a	wordpools/wordpool_EN.txt	MOUTH	13.0	15	n/a	n/a	pyFR	1	UP011
1752.869	1.6	706096	WORD	n/a	wordpools/wordpool_EN.txt	LAKE	14.0	15	n/a	n/a	pyFR	1	UP011
1755.575	1.6	707179	WORD	n/a	wordpools/wordpool_EN.txt	JUDGE	15.0	15	n/a	n/a	pyFR	1	UP011
1757.192	1.175	707826	START	n/a	n/a	n/a	n/a	15	[-999 -999 -999]	-999.0	pyFR	1	UP011
1758.367	3.041	708296	PROB	2.989	n/a	n/a	n/a	15	[3 8 3]	14.0	pyFR	1	UP011
1761.408	2.707	709512	PROB	2.617	n/a	n/a	n/a	15	[4 6 6]	16.0	pyFR	1	UP011
1764.115	2.565	710595	PROB	2.5	n/a	n/a	n/a	15	[5 6 6]	17.0	pyFR	1	UP011
1766.68	2.286	711621	PROB	2.194	n/a	n/a	n/a	15	[1 9 5]	15.0	pyFR	1	UP011
1768.966	2.481	712535	PROB	2.432	n/a	n/a	n/a	15	[9 6 3]	18.0	pyFR	1	UP011
1771.447	3.028	713527	PROB	2.97	n/a	n/a	n/a	15	[3 1 6]	10.0	pyFR	1	UP011
1774.475	3.002	714738	PROB	3.002	n/a	n/a	n/a	15	[3 4 6]	13.0	pyFR	1	UP011
1777.477	1.094	715939	STOP	n/a	n/a	n/a	n/a	15	[-999 -999 -999]	-999.0	pyFR	1	UP011
1778.571	1.596	716377	REC_START	n/a	n/a	n/a	-999.0	-999	n/a	n/a	pyFR	1	UP011
1780.167	0.542	717015	REC_WORD	1.596	n/a	NEST	-999.0	15	n/a	n/a	pyFR	1	UP011
1780.709	1.353	717232	REC_WORD	2.138	n/a	STICK	-999.0	15	n/a	n/a	pyFR	1	UP011
1782.062	4.307	717773	REC_WORD	3.491	n/a	BEAK	-999.0	15	n/a	n/a	pyFR	1	UP011
1786.369	9.921	719496	REC_WORD	7.798	n/a	HORSE	-999.0	15	n/a	n/a	pyFR	1	UP011
1796.29	2.653	723464	REC_WORD	17.719	n/a	ELF	-999.0	15	n/a	n/a	pyFR	1	UP011
1798.943	0.692	724525	REC_WORD	20.372	n/a	BATH	-999.0	15	n/a	n/a	pyFR	1	UP011
1799.635	27.188	724802	REC_WORD	21.064	n/a	LAKE	-999.0	15	n/a	n/a	pyFR	1	UP011
1826.823	0.016	735677	TRIAL	n/a	n/a	n/a	-999.0	-999	n/a	n/a	pyFR	1	UP011
1826.839	1.6	735683	ORIENT	n/a	n/a	n/a	-999.0	-999	n/a	n/a	pyFR	1	UP011
1829.532	1.6	736760	WORD	n/a	wordpools/wordpool_EN.txt	HOLE	1.0	16	n/a	n/a	pyFR	1	UP011
1832.324	1.6	737877	WORD	n/a	wordpools/wordpool_EN.txt	TRAIN	2.0	16	n/a	n/a	pyFR	1	UP011
1835.114	1.6	738993	WORD	n/a	wordpools/wordpool_EN.txt	STRING	3.0	16	n/a	n/a	pyFR	1	UP011
1837.641	1.6	740004	WORD	n/a	wordpools/wordpool_EN.txt	BUSH	4.0	16	n/a	n/a	pyFR	1	UP011
1840.157	1.6	741010	WORD	n/a	wordpools/wordpool_EN.txt	THUMB	5.0	16	n/a	n/a	pyFR	1	UP011
1842.907	1.6	742110	WORD	n/a	wordpools/wordpool_EN.txt	CAR	6.0	16	n/a	n/a	pyFR	1	UP011
1845.4	1.6	743107	WORD	n/a	wordpools/wordpool_EN.txt	CHAIR	7.0	16	n/a	n/a	pyFR	1	UP011
1847.847	1.6	744086	WORD	n/a	wordpools/wordpool_EN.txt	WHALE	8.0	16	n/a	n/a	pyFR	1	UP011
1850.462	1.6	745132	WORD	n/a	wordpools/wordpool_EN.txt	BAND	9.0	16	n/a	n/a	pyFR	1	UP011
1853.109	1.6	746191	WORD	n/a	wordpools/wordpool_EN.txt	QUEEN	10.0	16	n/a	n/a	pyFR	1	UP011
1855.743	1.6	747244	WORD	n/a	wordpools/wordpool_EN.txt	DART	11.0	16	n/a	n/a	pyFR	1	UP011
1858.36	1.6	748291	WORD	n/a	wordpools/wordpool_EN.txt	TRAY	12.0	16	n/a	n/a	pyFR	1	UP011
1861.144	1.6	749405	WORD	n/a	wordpools/wordpool_EN.txt	MOUSE	13.0	16	n/a	n/a	pyFR	1	UP011
1863.59	1.6	750383	WORD	n/a	wordpools/wordpool_EN.txt	TANK	14.0	16	n/a	n/a	pyFR	1	UP011
1866.157	1.6	751410	WORD	n/a	wordpools/wordpool_EN.txt	TAPE	15.0	16	n/a	n/a	pyFR	1	UP011
1867.776	0.839	752057	START	n/a	n/a	n/a	n/a	16	[-999 -999 -999]	-999.0	pyFR	1	UP011
1868.615	2.773	752393	PROB	2.724	n/a	n/a	n/a	16	[7 5 1]	13.0	pyFR	1	UP011
1871.388	2.456	753502	PROB	2.372	n/a	n/a	n/a	16	[3 3 4]	10.0	pyFR	1	UP011
1873.844	4.551	754484	PROB	4.463	n/a	n/a	n/a	16	[6 6 7]	19.0	pyFR	1	UP011
1878.395	2.715	756305	PROB	2.651	n/a	n/a	n/a	16	[3 8 3]	14.0	pyFR	1	UP011
1881.11	2.325	757391	PROB	2.275	n/a	n/a	n/a	16	[1 2 6]	9.0	pyFR	1	UP011
1883.435	2.56	758321	PROB	2.5	n/a	n/a	n/a	16	[8 2 8]	18.0	pyFR	1	UP011
1885.995	3.399	759345	PROB	3.399	n/a	n/a	n/a	16	[7 2 7]	16.0	pyFR	1	UP011
1889.394	1.113	760704	STOP	n/a	n/a	n/a	n/a	16	[-999 -999 -999]	-999.0	pyFR	1	UP011
1890.507	2.653	761149	REC_START	n/a	n/a	n/a	-999.0	-999	n/a	n/a	pyFR	1	UP011
1893.16	6.617	762211	REC_WORD	2.653	n/a	TRAIN	-999.0	16	n/a	n/a	pyFR	1	UP011
1899.777	3.193	764857	REC_WORD	9.27	n/a	HOLE	-999.0	16	n/a	n/a	pyFR	1	UP011
1902.97	597.469	766134	REC_WORD	12.463	n/a	DART	-999.0	16	n/a	n/a	pyFR	1	UP011
2500.439	0.0	1005112	SESS_END	n/a	n/a	n/a	-999.0	-999	n/a	n/a	pyFR	1	UP011
2500.439	0.0	1005112	E	n/a	n/a	n/a	-999.0	-999	n/a	n/a	pyFR	1	UP011
