onset	duration	sample	trial_type	response_time	stim_file	item_name	serialpos	list	test	answer	experiment	session	subject
0.0	3.713	1007752	E	n/a	n/a	n/a	-999	12	n/a	n/a	pyFR	0	TJ080
3.713	0.001	1011465	B	n/a	n/a	n/a	-999	-999	n/a	n/a	pyFR	0	TJ080
3.714	67.591	1011466	SESS_START	n/a	n/a	n/a	-999	-999	n/a	n/a	pyFR	0	TJ080
71.305	0.012	1079054	START	n/a	n/a	n/a	n/a	0	[-999 -999 -999]	-999	pyFR	0	TJ080
71.317	9.399	1079066	PROB	9.376	n/a	n/a	n/a	0	[4 1 5]	10	pyFR	0	TJ080
80.716	11.17	1088465	PROB	11.138	n/a	n/a	n/a	0	[5 6 3]	14	pyFR	0	TJ080
91.886	8.981	1099634	PROB	8.952	n/a	n/a	n/a	0	[2 9 5]	16	pyFR	0	TJ080
100.867	8.201	1108615	PROB	8.201	n/a	n/a	n/a	0	[6 2 3]	11	pyFR	0	TJ080
109.068	71.751	1116816	STOP	n/a	n/a	n/a	n/a	0	[-999 -999 -999]	-999	pyFR	0	TJ080
180.819	0.016	1188564	TRIAL	n/a	n/a	n/a	-999	1	n/a	n/a	pyFR	0	TJ080
180.835	2.871	1188580	ORIENT	n/a	n/a	n/a	-999	1	n/a	n/a	pyFR	0	TJ080
183.706	2.622	1191451	WORD	n/a	wordpools/wordpool_EN.txt	TRAY	1	1	n/a	n/a	pyFR	0	TJ080
186.328	2.72	1194073	WORD	n/a	wordpools/wordpool_EN.txt	MOON	2	1	n/a	n/a	pyFR	0	TJ080
189.048	2.554	1196793	WORD	n/a	wordpools/wordpool_EN.txt	BOMB	3	1	n/a	n/a	pyFR	0	TJ080
191.602	2.454	1199347	WORD	n/a	wordpools/wordpool_EN.txt	CONE	4	1	n/a	n/a	pyFR	0	TJ080
194.056	2.672	1201801	WORD	n/a	wordpools/wordpool_EN.txt	SNAIL	5	1	n/a	n/a	pyFR	0	TJ080
196.728	2.788	1204473	WORD	n/a	wordpools/wordpool_EN.txt	TEETH	6	1	n/a	n/a	pyFR	0	TJ080
199.516	2.621	1207261	WORD	n/a	wordpools/wordpool_EN.txt	ROOF	7	1	n/a	n/a	pyFR	0	TJ080
202.137	2.789	1209881	WORD	n/a	wordpools/wordpool_EN.txt	PIE	8	1	n/a	n/a	pyFR	0	TJ080
204.926	2.536	1212670	WORD	n/a	wordpools/wordpool_EN.txt	NET	9	1	n/a	n/a	pyFR	0	TJ080
207.462	2.439	1215206	WORD	n/a	wordpools/wordpool_EN.txt	PLANT	10	1	n/a	n/a	pyFR	0	TJ080
209.901	2.737	1217645	WORD	n/a	wordpools/wordpool_EN.txt	CUBE	11	1	n/a	n/a	pyFR	0	TJ080
212.638	2.571	1220382	WORD	n/a	wordpools/wordpool_EN.txt	BOWL	12	1	n/a	n/a	pyFR	0	TJ080
215.209	2.655	1222953	WORD	n/a	wordpools/wordpool_EN.txt	TOY	13	1	n/a	n/a	pyFR	0	TJ080
217.864	2.771	1225608	WORD	n/a	wordpools/wordpool_EN.txt	DOG	14	1	n/a	n/a	pyFR	0	TJ080
220.635	1.603	1228379	WORD	n/a	wordpools/wordpool_EN.txt	MAZE	15	1	n/a	n/a	pyFR	0	TJ080
222.238	1.034	1229982	START	n/a	n/a	n/a	n/a	1	[-999 -999 -999]	-999	pyFR	0	TJ080
223.272	16.529	1231016	PROB	16.501	n/a	n/a	n/a	1	[4 4 9]	17	pyFR	0	TJ080
239.801	6.116	1247544	PROB	6.116	n/a	n/a	n/a	1	[5 2 5]	12	pyFR	0	TJ080
245.917	1.031	1253660	STOP	n/a	n/a	n/a	n/a	1	[-999 -999 -999]	-999	pyFR	0	TJ080
246.948	2.645	1254691	REC_START	n/a	n/a	n/a	-999	1	n/a	n/a	pyFR	0	TJ080
249.593	25.284	1257336	REC_WORD	2.645	n/a	CUBE	-999	1	n/a	n/a	pyFR	0	TJ080
274.877	13.871	1282619	REC_WORD	27.929	n/a	SNAIL	-999	1	n/a	n/a	pyFR	0	TJ080
288.748	40.954	1296489	REC_WORD	41.8	n/a	NET	-999	1	n/a	n/a	pyFR	0	TJ080
329.702	0.016	1337442	TRIAL	n/a	n/a	n/a	-999	2	n/a	n/a	pyFR	0	TJ080
329.718	2.905	1337458	ORIENT	n/a	n/a	n/a	-999	2	n/a	n/a	pyFR	0	TJ080
332.623	2.705	1340363	WORD	n/a	wordpools/wordpool_EN.txt	FORT	1	2	n/a	n/a	pyFR	0	TJ080
335.328	2.754	1343068	WORD	n/a	wordpools/wordpool_EN.txt	GOLD	2	2	n/a	n/a	pyFR	0	TJ080
338.082	2.472	1345822	WORD	n/a	wordpools/wordpool_EN.txt	WALL	3	2	n/a	n/a	pyFR	0	TJ080
340.554	2.453	1348293	WORD	n/a	wordpools/wordpool_EN.txt	FUR	4	2	n/a	n/a	pyFR	0	TJ080
343.007	2.504	1350746	WORD	n/a	wordpools/wordpool_EN.txt	STOVE	5	2	n/a	n/a	pyFR	0	TJ080
345.511	2.722	1353250	WORD	n/a	wordpools/wordpool_EN.txt	SHIRT	6	2	n/a	n/a	pyFR	0	TJ080
348.233	2.537	1355972	WORD	n/a	wordpools/wordpool_EN.txt	SINK	7	2	n/a	n/a	pyFR	0	TJ080
350.77	2.621	1358509	WORD	n/a	wordpools/wordpool_EN.txt	PANTS	8	2	n/a	n/a	pyFR	0	TJ080
353.391	2.472	1361130	WORD	n/a	wordpools/wordpool_EN.txt	WAVE	9	2	n/a	n/a	pyFR	0	TJ080
355.863	2.52	1363602	WORD	n/a	wordpools/wordpool_EN.txt	FAN	10	2	n/a	n/a	pyFR	0	TJ080
358.383	2.472	1366122	WORD	n/a	wordpools/wordpool_EN.txt	SHARK	11	2	n/a	n/a	pyFR	0	TJ080
360.855	2.62	1368594	WORD	n/a	wordpools/wordpool_EN.txt	STAIR	12	2	n/a	n/a	pyFR	0	TJ080
363.475	2.422	1371214	WORD	n/a	wordpools/wordpool_EN.txt	LAMB	13	2	n/a	n/a	pyFR	0	TJ080
365.897	2.453	1373636	WORD	n/a	wordpools/wordpool_EN.txt	GRASS	14	2	n/a	n/a	pyFR	0	TJ080
368.35	1.605	1376088	WORD	n/a	wordpools/wordpool_EN.txt	WORLD	15	2	n/a	n/a	pyFR	0	TJ080
369.955	0.85	1377693	START	n/a	n/a	n/a	n/a	2	[-999 -999 -999]	-999	pyFR	0	TJ080
370.805	13.906	1378543	PROB	13.872	n/a	n/a	n/a	2	[8 7 8]	23	pyFR	0	TJ080
384.711	13.606	1392449	PROB	13.606	n/a	n/a	n/a	2	[3 4 3]	10	pyFR	0	TJ080
398.317	1.236	1406054	STOP	n/a	n/a	n/a	n/a	2	[-999 -999 -999]	-999	pyFR	0	TJ080
399.553	5.788	1407290	REC_START	n/a	n/a	n/a	-999	2	n/a	n/a	pyFR	0	TJ080
405.341	2.801	1413078	REC_WORD	5.788	n/a	WALL	-999	2	n/a	n/a	pyFR	0	TJ080
408.142	11.152	1415879	REC_WORD	8.589	n/a	SHARK	-999	2	n/a	n/a	pyFR	0	TJ080
419.294	30.144	1427031	REC_WORD	19.741	n/a	FOOT	-999	2	n/a	n/a	pyFR	0	TJ080
449.438	0.015	1457174	TRIAL	n/a	n/a	n/a	-999	3	n/a	n/a	pyFR	0	TJ080
449.453	2.905	1457189	ORIENT	n/a	n/a	n/a	-999	3	n/a	n/a	pyFR	0	TJ080
452.358	2.704	1460093	WORD	n/a	wordpools/wordpool_EN.txt	SPOON	1	3	n/a	n/a	pyFR	0	TJ080
455.062	2.773	1462797	WORD	n/a	wordpools/wordpool_EN.txt	LIP	2	3	n/a	n/a	pyFR	0	TJ080
457.835	2.737	1465570	WORD	n/a	wordpools/wordpool_EN.txt	LAKE	3	3	n/a	n/a	pyFR	0	TJ080
460.572	2.621	1468307	WORD	n/a	wordpools/wordpool_EN.txt	QUEEN	4	3	n/a	n/a	pyFR	0	TJ080
463.193	2.437	1470928	WORD	n/a	wordpools/wordpool_EN.txt	BEAR	5	3	n/a	n/a	pyFR	0	TJ080
465.63	2.438	1473365	WORD	n/a	wordpools/wordpool_EN.txt	FUDGE	6	3	n/a	n/a	pyFR	0	TJ080
468.068	2.637	1475803	WORD	n/a	wordpools/wordpool_EN.txt	BARN	7	3	n/a	n/a	pyFR	0	TJ080
470.705	2.421	1478440	WORD	n/a	wordpools/wordpool_EN.txt	CRANE	8	3	n/a	n/a	pyFR	0	TJ080
473.126	2.772	1480861	WORD	n/a	wordpools/wordpool_EN.txt	HEART	9	3	n/a	n/a	pyFR	0	TJ080
475.898	2.554	1483633	WORD	n/a	wordpools/wordpool_EN.txt	PURSE	10	3	n/a	n/a	pyFR	0	TJ080
478.452	2.438	1486187	WORD	n/a	wordpools/wordpool_EN.txt	SEAT	11	3	n/a	n/a	pyFR	0	TJ080
480.89	2.687	1488624	WORD	n/a	wordpools/wordpool_EN.txt	DART	12	3	n/a	n/a	pyFR	0	TJ080
483.577	2.655	1491311	WORD	n/a	wordpools/wordpool_EN.txt	BLOOM	13	3	n/a	n/a	pyFR	0	TJ080
486.232	2.52	1493966	WORD	n/a	wordpools/wordpool_EN.txt	SWORD	14	3	n/a	n/a	pyFR	0	TJ080
488.752	1.604	1496486	WORD	n/a	wordpools/wordpool_EN.txt	FLEA	15	3	n/a	n/a	pyFR	0	TJ080
490.356	0.917	1498090	START	n/a	n/a	n/a	n/a	3	[-999 -999 -999]	-999	pyFR	0	TJ080
491.273	5.843	1499007	PROB	5.819	n/a	n/a	n/a	3	[2 1 3]	6	pyFR	0	TJ080
497.116	5.811	1504850	PROB	5.785	n/a	n/a	n/a	3	[8 8 1]	17	pyFR	0	TJ080
502.927	7.782	1510661	PROB	7.782	n/a	n/a	n/a	3	[8 9 5]	22	pyFR	0	TJ080
510.709	1.15	1518442	STOP	n/a	n/a	n/a	n/a	3	[-999 -999 -999]	-999	pyFR	0	TJ080
511.859	7.429	1519592	REC_START	n/a	n/a	n/a	-999	3	n/a	n/a	pyFR	0	TJ080
519.288	10.103	1527021	REC_WORD	7.429	n/a	SPOON	-999	3	n/a	n/a	pyFR	0	TJ080
529.391	26.697	1537124	REC_WORD	17.532	n/a	LAKE	-999	3	n/a	n/a	pyFR	0	TJ080
556.088	6.505	1563820	REC_WORD	44.229	n/a	DART	-999	3	n/a	n/a	pyFR	0	TJ080
562.593	0.017	1570325	TRIAL	n/a	n/a	n/a	-999	4	n/a	n/a	pyFR	0	TJ080
562.61	2.621	1570342	ORIENT	n/a	n/a	n/a	-999	4	n/a	n/a	pyFR	0	TJ080
565.231	2.504	1572962	WORD	n/a	wordpools/wordpool_EN.txt	SHIELD	1	4	n/a	n/a	pyFR	0	TJ080
567.735	2.738	1575466	WORD	n/a	wordpools/wordpool_EN.txt	TREE	2	4	n/a	n/a	pyFR	0	TJ080
570.473	2.571	1578204	WORD	n/a	wordpools/wordpool_EN.txt	ICE	3	4	n/a	n/a	pyFR	0	TJ080
573.044	2.705	1580775	WORD	n/a	wordpools/wordpool_EN.txt	BRIDGE	4	4	n/a	n/a	pyFR	0	TJ080
575.749	2.487	1583480	WORD	n/a	wordpools/wordpool_EN.txt	SEED	5	4	n/a	n/a	pyFR	0	TJ080
578.236	2.572	1585967	WORD	n/a	wordpools/wordpool_EN.txt	MOTH	6	4	n/a	n/a	pyFR	0	TJ080
580.808	2.537	1588539	WORD	n/a	wordpools/wordpool_EN.txt	MILK	7	4	n/a	n/a	pyFR	0	TJ080
583.345	2.555	1591076	WORD	n/a	wordpools/wordpool_EN.txt	DRESS	8	4	n/a	n/a	pyFR	0	TJ080
585.9	2.654	1593631	WORD	n/a	wordpools/wordpool_EN.txt	FOAM	9	4	n/a	n/a	pyFR	0	TJ080
588.554	2.738	1596285	WORD	n/a	wordpools/wordpool_EN.txt	PEAR	10	4	n/a	n/a	pyFR	0	TJ080
591.292	2.804	1599022	WORD	n/a	wordpools/wordpool_EN.txt	ROOM	11	4	n/a	n/a	pyFR	0	TJ080
594.096	2.638	1601826	WORD	n/a	wordpools/wordpool_EN.txt	BOOT	12	4	n/a	n/a	pyFR	0	TJ080
596.734	2.471	1604464	WORD	n/a	wordpools/wordpool_EN.txt	BENCH	13	4	n/a	n/a	pyFR	0	TJ080
599.205	2.639	1606935	WORD	n/a	wordpools/wordpool_EN.txt	SNAKE	14	4	n/a	n/a	pyFR	0	TJ080
601.844	1.602	1609574	WORD	n/a	wordpools/wordpool_EN.txt	DOLL	15	4	n/a	n/a	pyFR	0	TJ080
603.446	1.118	1611176	START	n/a	n/a	n/a	n/a	4	[-999 -999 -999]	-999	pyFR	0	TJ080
604.564	7.263	1612294	PROB	7.242	n/a	n/a	n/a	4	[1 3 5]	9	pyFR	0	TJ080
611.827	13.417	1619557	PROB	13.417	n/a	n/a	n/a	4	[7 6 6]	19	pyFR	0	TJ080
625.244	1.108	1632973	STOP	n/a	n/a	n/a	n/a	4	[-999 -999 -999]	-999	pyFR	0	TJ080
626.352	4.09	1634081	REC_START	n/a	n/a	n/a	-999	4	n/a	n/a	pyFR	0	TJ080
630.442	8.547	1638171	REC_WORD	4.09	n/a	DOLL	-999	4	n/a	n/a	pyFR	0	TJ080
638.989	35.66	1646718	REC_WORD	12.637	n/a	SNAIL	-999	4	n/a	n/a	pyFR	0	TJ080
674.649	0.016	1682376	TRIAL	n/a	n/a	n/a	-999	5	n/a	n/a	pyFR	0	TJ080
674.665	2.855	1682392	ORIENT	n/a	n/a	n/a	-999	5	n/a	n/a	pyFR	0	TJ080
677.52	2.537	1685247	WORD	n/a	wordpools/wordpool_EN.txt	VEST	1	5	n/a	n/a	pyFR	0	TJ080
680.057	2.789	1687784	WORD	n/a	wordpools/wordpool_EN.txt	TRUCK	2	5	n/a	n/a	pyFR	0	TJ080
682.846	2.604	1690573	WORD	n/a	wordpools/wordpool_EN.txt	DESK	3	5	n/a	n/a	pyFR	0	TJ080
685.45	2.539	1693177	WORD	n/a	wordpools/wordpool_EN.txt	AXE	4	5	n/a	n/a	pyFR	0	TJ080
687.989	2.62	1695716	WORD	n/a	wordpools/wordpool_EN.txt	TAIL	5	5	n/a	n/a	pyFR	0	TJ080
690.609	2.721	1698336	WORD	n/a	wordpools/wordpool_EN.txt	WHALE	6	5	n/a	n/a	pyFR	0	TJ080
693.33	2.605	1701057	WORD	n/a	wordpools/wordpool_EN.txt	HORN	7	5	n/a	n/a	pyFR	0	TJ080
695.935	2.42	1703662	WORD	n/a	wordpools/wordpool_EN.txt	ROOT	8	5	n/a	n/a	pyFR	0	TJ080
698.355	2.654	1706082	WORD	n/a	wordpools/wordpool_EN.txt	SKY	9	5	n/a	n/a	pyFR	0	TJ080
701.009	2.555	1708736	WORD	n/a	wordpools/wordpool_EN.txt	PASTE	10	5	n/a	n/a	pyFR	0	TJ080
703.564	2.637	1711290	WORD	n/a	wordpools/wordpool_EN.txt	BOX	11	5	n/a	n/a	pyFR	0	TJ080
706.201	2.622	1713927	WORD	n/a	wordpools/wordpool_EN.txt	PLANE	12	5	n/a	n/a	pyFR	0	TJ080
708.823	2.737	1716549	WORD	n/a	wordpools/wordpool_EN.txt	PIN	13	5	n/a	n/a	pyFR	0	TJ080
711.56	2.722	1719286	WORD	n/a	wordpools/wordpool_EN.txt	FORK	14	5	n/a	n/a	pyFR	0	TJ080
714.282	1.604	1722008	WORD	n/a	wordpools/wordpool_EN.txt	DIME	15	5	n/a	n/a	pyFR	0	TJ080
715.886	0.951	1723612	START	n/a	n/a	n/a	n/a	5	[-999 -999 -999]	-999	pyFR	0	TJ080
716.837	11.502	1724563	PROB	11.48	n/a	n/a	n/a	5	[6 6 9]	21	pyFR	0	TJ080
728.339	5.876	1736065	PROB	5.85	n/a	n/a	n/a	5	[5 4 2]	11	pyFR	0	TJ080
734.215	7.229	1741940	PROB	7.229	n/a	n/a	n/a	5	[4 6 9]	19	pyFR	0	TJ080
741.444	1.667	1749169	STOP	n/a	n/a	n/a	n/a	5	[-999 -999 -999]	-999	pyFR	0	TJ080
743.111	1.503	1750836	REC_START	n/a	n/a	n/a	-999	5	n/a	n/a	pyFR	0	TJ080
744.614	16.699	1752339	REC_WORD	1.503	n/a	FORK	-999	5	n/a	n/a	pyFR	0	TJ080
761.313	29.499	1769037	REC_WORD	18.202	n/a	TAIL	-999	5	n/a	n/a	pyFR	0	TJ080
790.812	0.016	1798535	TRIAL	n/a	n/a	n/a	-999	6	n/a	n/a	pyFR	0	TJ080
790.828	2.804	1798551	ORIENT	n/a	n/a	n/a	-999	6	n/a	n/a	pyFR	0	TJ080
793.632	2.487	1801355	WORD	n/a	wordpools/wordpool_EN.txt	RICE	1	6	n/a	n/a	pyFR	0	TJ080
796.119	2.555	1803842	WORD	n/a	wordpools/wordpool_EN.txt	CAGE	2	6	n/a	n/a	pyFR	0	TJ080
798.674	2.487	1806397	WORD	n/a	wordpools/wordpool_EN.txt	MOUSE	3	6	n/a	n/a	pyFR	0	TJ080
801.161	2.604	1808884	WORD	n/a	wordpools/wordpool_EN.txt	PLATE	4	6	n/a	n/a	pyFR	0	TJ080
803.765	2.538	1811488	WORD	n/a	wordpools/wordpool_EN.txt	BEAK	5	6	n/a	n/a	pyFR	0	TJ080
806.303	2.572	1814026	WORD	n/a	wordpools/wordpool_EN.txt	DITCH	6	6	n/a	n/a	pyFR	0	TJ080
808.875	2.47	1816598	WORD	n/a	wordpools/wordpool_EN.txt	BROOM	7	6	n/a	n/a	pyFR	0	TJ080
811.345	2.704	1819068	WORD	n/a	wordpools/wordpool_EN.txt	DOOR	8	6	n/a	n/a	pyFR	0	TJ080
814.049	2.688	1821772	WORD	n/a	wordpools/wordpool_EN.txt	CAKE	9	6	n/a	n/a	pyFR	0	TJ080
816.737	2.638	1824459	WORD	n/a	wordpools/wordpool_EN.txt	BEAN	10	6	n/a	n/a	pyFR	0	TJ080
819.375	2.655	1827097	WORD	n/a	wordpools/wordpool_EN.txt	GATE	11	6	n/a	n/a	pyFR	0	TJ080
822.03	2.671	1829752	WORD	n/a	wordpools/wordpool_EN.txt	STOOL	12	6	n/a	n/a	pyFR	0	TJ080
824.701	2.738	1832423	WORD	n/a	wordpools/wordpool_EN.txt	LOCK	13	6	n/a	n/a	pyFR	0	TJ080
827.439	2.704	1835161	WORD	n/a	wordpools/wordpool_EN.txt	BED	14	6	n/a	n/a	pyFR	0	TJ080
830.143	1.604	1837865	WORD	n/a	wordpools/wordpool_EN.txt	CHAIR	15	6	n/a	n/a	pyFR	0	TJ080
831.747	1.185	1839469	START	n/a	n/a	n/a	n/a	6	[-999 -999 -999]	-999	pyFR	0	TJ080
832.932	5.709	1840654	PROB	5.689	n/a	n/a	n/a	6	[6 4 2]	12	pyFR	0	TJ080
838.641	13.572	1846363	PROB	13.572	n/a	n/a	n/a	6	[7 8 4]	19	pyFR	0	TJ080
852.213	1.12	1859934	STOP	n/a	n/a	n/a	n/a	6	[-999 -999 -999]	-999	pyFR	0	TJ080
853.333	3.347	1861054	REC_START	n/a	n/a	n/a	-999	6	n/a	n/a	pyFR	0	TJ080
856.68	0.995	1864401	REC_WORD	3.347	n/a	BED	-999	6	n/a	n/a	pyFR	0	TJ080
857.675	12.724	1865396	REC_WORD	4.342	n/a	CHAIR	-999	6	n/a	n/a	pyFR	0	TJ080
870.399	6.454	1878119	REC_WORD	17.066	n/a	PEN	-999	6	n/a	n/a	pyFR	0	TJ080
876.853	26.314	1884573	REC_WORD	23.52	n/a	BEAK	-999	6	n/a	n/a	pyFR	0	TJ080
903.167	0.016	1910886	TRIAL	n/a	n/a	n/a	-999	7	n/a	n/a	pyFR	0	TJ080
903.183	2.855	1910902	ORIENT	n/a	n/a	n/a	-999	7	n/a	n/a	pyFR	0	TJ080
906.038	2.437	1913757	WORD	n/a	wordpools/wordpool_EN.txt	GIRL	1	7	n/a	n/a	pyFR	0	TJ080
908.475	2.472	1916194	WORD	n/a	wordpools/wordpool_EN.txt	RUG	2	7	n/a	n/a	pyFR	0	TJ080
910.947	2.62	1918666	WORD	n/a	wordpools/wordpool_EN.txt	PIG	3	7	n/a	n/a	pyFR	0	TJ080
913.567	2.671	1921286	WORD	n/a	wordpools/wordpool_EN.txt	STICK	4	7	n/a	n/a	pyFR	0	TJ080
916.238	2.589	1923957	WORD	n/a	wordpools/wordpool_EN.txt	PARK	5	7	n/a	n/a	pyFR	0	TJ080
918.827	2.536	1926546	WORD	n/a	wordpools/wordpool_EN.txt	STEAM	6	7	n/a	n/a	pyFR	0	TJ080
921.363	2.506	1929082	WORD	n/a	wordpools/wordpool_EN.txt	THREAD	7	7	n/a	n/a	pyFR	0	TJ080
923.869	2.736	1931588	WORD	n/a	wordpools/wordpool_EN.txt	EAR	8	7	n/a	n/a	pyFR	0	TJ080
926.605	2.722	1934323	WORD	n/a	wordpools/wordpool_EN.txt	WHEEL	9	7	n/a	n/a	pyFR	0	TJ080
929.327	2.589	1937045	WORD	n/a	wordpools/wordpool_EN.txt	CART	10	7	n/a	n/a	pyFR	0	TJ080
931.916	2.469	1939634	WORD	n/a	wordpools/wordpool_EN.txt	SHOE	11	7	n/a	n/a	pyFR	0	TJ080
934.385	2.705	1942103	WORD	n/a	wordpools/wordpool_EN.txt	FLUTE	12	7	n/a	n/a	pyFR	0	TJ080
937.09	2.671	1944808	WORD	n/a	wordpools/wordpool_EN.txt	SPARK	13	7	n/a	n/a	pyFR	0	TJ080
939.761	2.771	1947479	WORD	n/a	wordpools/wordpool_EN.txt	CAPE	14	7	n/a	n/a	pyFR	0	TJ080
942.532	1.604	1950250	WORD	n/a	wordpools/wordpool_EN.txt	OAK	15	7	n/a	n/a	pyFR	0	TJ080
944.136	0.884	1951854	START	n/a	n/a	n/a	n/a	7	[-999 -999 -999]	-999	pyFR	0	TJ080
945.02	5.676	1952738	PROB	5.656	n/a	n/a	n/a	7	[1 1 4]	6	pyFR	0	TJ080
950.696	8.331	1958414	PROB	8.301	n/a	n/a	n/a	7	[7 1 3]	11	pyFR	0	TJ080
959.027	8.018	1966744	PROB	8.018	n/a	n/a	n/a	7	[2 5 9]	16	pyFR	0	TJ080
967.045	1.214	1974762	STOP	n/a	n/a	n/a	n/a	7	[-999 -999 -999]	-999	pyFR	0	TJ080
968.259	37.833	1975976	REC_START	n/a	n/a	n/a	-999	7	n/a	n/a	pyFR	0	TJ080
1006.092	177.262	2013808	REC_WORD	37.833	n/a	FLUTE	-999	7	n/a	n/a	pyFR	0	TJ080
1183.354	0.017	2191063	TRIAL	n/a	n/a	n/a	-999	8	n/a	n/a	pyFR	0	TJ080
1183.371	2.771	2191080	ORIENT	n/a	n/a	n/a	-999	8	n/a	n/a	pyFR	0	TJ080
1186.142	2.554	2193851	WORD	n/a	wordpools/wordpool_EN.txt	CROW	1	8	n/a	n/a	pyFR	0	TJ080
1188.696	2.722	2196405	WORD	n/a	wordpools/wordpool_EN.txt	HOOF	2	8	n/a	n/a	pyFR	0	TJ080
1191.418	2.788	2199127	WORD	n/a	wordpools/wordpool_EN.txt	BIRD	3	8	n/a	n/a	pyFR	0	TJ080
1194.206	2.42	2201915	WORD	n/a	wordpools/wordpool_EN.txt	CARD	4	8	n/a	n/a	pyFR	0	TJ080
1196.626	2.738	2204335	WORD	n/a	wordpools/wordpool_EN.txt	CHIN	5	8	n/a	n/a	pyFR	0	TJ080
1199.364	2.539	2207073	WORD	n/a	wordpools/wordpool_EN.txt	MAIL	6	8	n/a	n/a	pyFR	0	TJ080
1201.903	2.754	2209612	WORD	n/a	wordpools/wordpool_EN.txt	ELF	7	8	n/a	n/a	pyFR	0	TJ080
1204.657	2.621	2212366	WORD	n/a	wordpools/wordpool_EN.txt	JET	8	8	n/a	n/a	pyFR	0	TJ080
1207.278	2.638	2214986	WORD	n/a	wordpools/wordpool_EN.txt	HOSE	9	8	n/a	n/a	pyFR	0	TJ080
1209.916	2.487	2217624	WORD	n/a	wordpools/wordpool_EN.txt	CUP	10	8	n/a	n/a	pyFR	0	TJ080
1212.403	2.589	2220111	WORD	n/a	wordpools/wordpool_EN.txt	BELL	11	8	n/a	n/a	pyFR	0	TJ080
1214.992	2.753	2222700	WORD	n/a	wordpools/wordpool_EN.txt	MAP	12	8	n/a	n/a	pyFR	0	TJ080
1217.745	2.588	2225453	WORD	n/a	wordpools/wordpool_EN.txt	FARM	13	8	n/a	n/a	pyFR	0	TJ080
1220.333	2.688	2228041	WORD	n/a	wordpools/wordpool_EN.txt	PRINCE	14	8	n/a	n/a	pyFR	0	TJ080
1223.021	1.604	2230729	WORD	n/a	wordpools/wordpool_EN.txt	SUIT	15	8	n/a	n/a	pyFR	0	TJ080
1224.625	0.967	2232333	START	n/a	n/a	n/a	n/a	8	[-999 -999 -999]	-999	pyFR	0	TJ080
1225.592	14.107	2233300	PROB	14.085	n/a	n/a	n/a	8	[8 7 4]	19	pyFR	0	TJ080
1239.699	7.53	2247406	PROB	7.53	n/a	n/a	n/a	8	[8 8 5]	21	pyFR	0	TJ080
1247.229	1.168	2254936	STOP	n/a	n/a	n/a	n/a	8	[-999 -999 -999]	-999	pyFR	0	TJ080
1248.397	21.124	2256104	REC_START	n/a	n/a	n/a	-999	8	n/a	n/a	pyFR	0	TJ080
1269.521	29.462	2277227	REC_WORD	21.124	n/a	CROW	-999	8	n/a	n/a	pyFR	0	TJ080
1298.983	0.017	2306688	TRIAL	n/a	n/a	n/a	-999	9	n/a	n/a	pyFR	0	TJ080
1299.0	2.888	2306705	ORIENT	n/a	n/a	n/a	-999	9	n/a	n/a	pyFR	0	TJ080
1301.888	2.787	2309593	WORD	n/a	wordpools/wordpool_EN.txt	MOLE	1	9	n/a	n/a	pyFR	0	TJ080
1304.675	2.504	2312380	WORD	n/a	wordpools/wordpool_EN.txt	JAR	2	9	n/a	n/a	pyFR	0	TJ080
1307.179	2.722	2314884	WORD	n/a	wordpools/wordpool_EN.txt	MOOSE	3	9	n/a	n/a	pyFR	0	TJ080
1309.901	2.587	2317606	WORD	n/a	wordpools/wordpool_EN.txt	TOAD	4	9	n/a	n/a	pyFR	0	TJ080
1312.488	2.654	2320193	WORD	n/a	wordpools/wordpool_EN.txt	EGG	5	9	n/a	n/a	pyFR	0	TJ080
1315.142	2.456	2322847	WORD	n/a	wordpools/wordpool_EN.txt	BREAD	6	9	n/a	n/a	pyFR	0	TJ080
1317.598	2.403	2325302	WORD	n/a	wordpools/wordpool_EN.txt	CLOTH	7	9	n/a	n/a	pyFR	0	TJ080
1320.001	2.721	2327705	WORD	n/a	wordpools/wordpool_EN.txt	STAR	8	9	n/a	n/a	pyFR	0	TJ080
1322.722	2.754	2330426	WORD	n/a	wordpools/wordpool_EN.txt	HOUSE	9	9	n/a	n/a	pyFR	0	TJ080
1325.476	2.622	2333180	WORD	n/a	wordpools/wordpool_EN.txt	SHRIMP	10	9	n/a	n/a	pyFR	0	TJ080
1328.098	2.705	2335802	WORD	n/a	wordpools/wordpool_EN.txt	SPONGE	11	9	n/a	n/a	pyFR	0	TJ080
1330.803	2.503	2338507	WORD	n/a	wordpools/wordpool_EN.txt	SLEEVE	12	9	n/a	n/a	pyFR	0	TJ080
1333.306	2.805	2341010	WORD	n/a	wordpools/wordpool_EN.txt	SALT	13	9	n/a	n/a	pyFR	0	TJ080
1336.111	2.722	2343815	WORD	n/a	wordpools/wordpool_EN.txt	SMOKE	14	9	n/a	n/a	pyFR	0	TJ080
1338.833	1.603	2346537	WORD	n/a	wordpools/wordpool_EN.txt	OAR	15	9	n/a	n/a	pyFR	0	TJ080
1340.436	0.917	2348140	START	n/a	n/a	n/a	n/a	9	[-999 -999 -999]	-999	pyFR	0	TJ080
1341.353	13.022	2349057	PROB	12.987	n/a	n/a	n/a	9	[8 9 4]	21	pyFR	0	TJ080
1354.375	5.142	2362078	PROB	5.109	n/a	n/a	n/a	9	[1 7 1]	9	pyFR	0	TJ080
1359.517	9.887	2367220	PROB	9.887	n/a	n/a	n/a	9	[6 6 5]	17	pyFR	0	TJ080
1369.404	1.182	2377107	STOP	n/a	n/a	n/a	n/a	9	[-999 -999 -999]	-999	pyFR	0	TJ080
1370.586	5.765	2378289	REC_START	n/a	n/a	n/a	-999	9	n/a	n/a	pyFR	0	TJ080
1376.351	18.044	2384053	REC_WORD	5.765	n/a	SLEEVE	-999	9	n/a	n/a	pyFR	0	TJ080
1394.395	25.458	2402097	REC_WORD	23.809	n/a	SALT	-999	9	n/a	n/a	pyFR	0	TJ080
1419.853	0.017	2427554	TRIAL	n/a	n/a	n/a	-999	10	n/a	n/a	pyFR	0	TJ080
1419.87	2.903	2427571	ORIENT	n/a	n/a	n/a	-999	10	n/a	n/a	pyFR	0	TJ080
1422.773	2.739	2430474	WORD	n/a	wordpools/wordpool_EN.txt	SAIL	1	10	n/a	n/a	pyFR	0	TJ080
1425.512	2.771	2433213	WORD	n/a	wordpools/wordpool_EN.txt	STORM	2	10	n/a	n/a	pyFR	0	TJ080
1428.283	2.588	2435984	WORD	n/a	wordpools/wordpool_EN.txt	WORM	3	10	n/a	n/a	pyFR	0	TJ080
1430.871	2.554	2438571	WORD	n/a	wordpools/wordpool_EN.txt	EEL	4	10	n/a	n/a	pyFR	0	TJ080
1433.425	2.621	2441125	WORD	n/a	wordpools/wordpool_EN.txt	CLIFF	5	10	n/a	n/a	pyFR	0	TJ080
1436.046	2.755	2443746	WORD	n/a	wordpools/wordpool_EN.txt	APE	6	10	n/a	n/a	pyFR	0	TJ080
1438.801	2.57	2446501	WORD	n/a	wordpools/wordpool_EN.txt	FRUIT	7	10	n/a	n/a	pyFR	0	TJ080
1441.371	2.738	2449071	WORD	n/a	wordpools/wordpool_EN.txt	FLOOR	8	10	n/a	n/a	pyFR	0	TJ080
1444.109	2.421	2451809	WORD	n/a	wordpools/wordpool_EN.txt	DOCK	9	10	n/a	n/a	pyFR	0	TJ080
1446.53	2.788	2454230	WORD	n/a	wordpools/wordpool_EN.txt	COAT	10	10	n/a	n/a	pyFR	0	TJ080
1449.318	2.505	2457018	WORD	n/a	wordpools/wordpool_EN.txt	FOOD	11	10	n/a	n/a	pyFR	0	TJ080
1451.823	2.437	2459523	WORD	n/a	wordpools/wordpool_EN.txt	COUCH	12	10	n/a	n/a	pyFR	0	TJ080
1454.26	2.689	2461960	WORD	n/a	wordpools/wordpool_EN.txt	TAPE	13	10	n/a	n/a	pyFR	0	TJ080
1456.949	2.686	2464648	WORD	n/a	wordpools/wordpool_EN.txt	SOUP	14	10	n/a	n/a	pyFR	0	TJ080
1459.635	1.604	2467334	WORD	n/a	wordpools/wordpool_EN.txt	OWL	15	10	n/a	n/a	pyFR	0	TJ080
1461.239	1.001	2468938	START	n/a	n/a	n/a	n/a	10	[-999 -999 -999]	-999	pyFR	0	TJ080
1462.24	30.277	2469939	PROB	30.277	n/a	n/a	n/a	10	[9 9 5]	23	pyFR	0	TJ080
1492.517	1.076	2500215	STOP	n/a	n/a	n/a	n/a	10	[-999 -999 -999]	-999	pyFR	0	TJ080
1493.593	4.299	2501291	REC_START	n/a	n/a	n/a	-999	10	n/a	n/a	pyFR	0	TJ080
1497.892	12.658	2505590	REC_WORD	4.299	n/a	SAIL	-999	10	n/a	n/a	pyFR	0	TJ080
1510.55	31.024	2518248	REC_WORD	16.957	n/a	APE	-999	10	n/a	n/a	pyFR	0	TJ080
1541.574	0.016	2549270	TRIAL	n/a	n/a	n/a	-999	11	n/a	n/a	pyFR	0	TJ080
1541.59	2.871	2549286	ORIENT	n/a	n/a	n/a	-999	11	n/a	n/a	pyFR	0	TJ080
1544.461	2.555	2552157	WORD	n/a	wordpools/wordpool_EN.txt	CAR	1	11	n/a	n/a	pyFR	0	TJ080
1547.016	2.504	2554712	WORD	n/a	wordpools/wordpool_EN.txt	TANK	2	11	n/a	n/a	pyFR	0	TJ080
1549.52	2.671	2557216	WORD	n/a	wordpools/wordpool_EN.txt	MOUTH	3	11	n/a	n/a	pyFR	0	TJ080
1552.191	2.806	2559887	WORD	n/a	wordpools/wordpool_EN.txt	CLOUD	4	11	n/a	n/a	pyFR	0	TJ080
1554.997	2.788	2562693	WORD	n/a	wordpools/wordpool_EN.txt	BOARD	5	11	n/a	n/a	pyFR	0	TJ080
1557.785	2.687	2565481	WORD	n/a	wordpools/wordpool_EN.txt	BAG	6	11	n/a	n/a	pyFR	0	TJ080
1560.472	2.654	2568168	WORD	n/a	wordpools/wordpool_EN.txt	BAND	7	11	n/a	n/a	pyFR	0	TJ080
1563.126	2.722	2570822	WORD	n/a	wordpools/wordpool_EN.txt	CORD	8	11	n/a	n/a	pyFR	0	TJ080
1565.848	2.737	2573544	WORD	n/a	wordpools/wordpool_EN.txt	BADGE	9	11	n/a	n/a	pyFR	0	TJ080
1568.585	2.555	2576280	WORD	n/a	wordpools/wordpool_EN.txt	CAVE	10	11	n/a	n/a	pyFR	0	TJ080
1571.14	2.705	2578835	WORD	n/a	wordpools/wordpool_EN.txt	SQUARE	11	11	n/a	n/a	pyFR	0	TJ080
1573.845	2.737	2581540	WORD	n/a	wordpools/wordpool_EN.txt	SHIP	12	11	n/a	n/a	pyFR	0	TJ080
1576.582	2.554	2584277	WORD	n/a	wordpools/wordpool_EN.txt	DRUM	13	11	n/a	n/a	pyFR	0	TJ080
1579.136	2.455	2586831	WORD	n/a	wordpools/wordpool_EN.txt	WOOD	14	11	n/a	n/a	pyFR	0	TJ080
1581.591	1.603	2589286	WORD	n/a	wordpools/wordpool_EN.txt	MUG	15	11	n/a	n/a	pyFR	0	TJ080
1583.194	1.101	2590889	START	n/a	n/a	n/a	n/a	11	[-999 -999 -999]	-999	pyFR	0	TJ080
1584.295	11.269	2591990	PROB	11.246	n/a	n/a	n/a	11	[3 5 6]	14	pyFR	0	TJ080
1595.564	5.377	2603259	PROB	5.346	n/a	n/a	n/a	11	[1 7 7]	15	pyFR	0	TJ080
1600.941	11.512	2608635	PROB	11.512	n/a	n/a	n/a	11	[6 9 4]	19	pyFR	0	TJ080
1612.453	1.225	2620147	STOP	n/a	n/a	n/a	n/a	11	[-999 -999 -999]	-999	pyFR	0	TJ080
1613.678	45.0	2621372	REC_START	n/a	n/a	n/a	-999	11	n/a	n/a	pyFR	0	TJ080
1658.678	30.811	2666370	REC_WORD_VV	45.0	n/a	<>	-999	11	n/a	n/a	pyFR	0	TJ080
1689.489	312.543	2697180	TRIAL	n/a	n/a	n/a	-999	12	n/a	n/a	pyFR	0	TJ080
2002.032	0.0	3009712	B	n/a	n/a	n/a	-999	12	n/a	n/a	pyFR	0	TJ080
2002.032	16.884	3009712	SESS_START	n/a	n/a	n/a	-999	12	n/a	n/a	pyFR	0	TJ080
2018.916	0.016	3026595	TRIAL	n/a	n/a	n/a	-999	12	n/a	n/a	pyFR	0	TJ080
2018.932	3.005	3026611	ORIENT	n/a	n/a	n/a	-999	12	n/a	n/a	pyFR	0	TJ080
2021.937	2.721	3029616	WORD	n/a	wordpools/wordpool_EN.txt	SOCK	1	12	n/a	n/a	pyFR	0	TJ080
2024.658	2.488	3032337	WORD	n/a	wordpools/wordpool_EN.txt	CASH	2	12	n/a	n/a	pyFR	0	TJ080
2027.146	2.655	3034825	WORD	n/a	wordpools/wordpool_EN.txt	HORSE	3	12	n/a	n/a	pyFR	0	TJ080
2029.801	2.603	3037480	WORD	n/a	wordpools/wordpool_EN.txt	BATH	4	12	n/a	n/a	pyFR	0	TJ080
2032.404	2.422	3040083	WORD	n/a	wordpools/wordpool_EN.txt	SLUSH	5	12	n/a	n/a	pyFR	0	TJ080
2034.826	2.57	3042505	WORD	n/a	wordpools/wordpool_EN.txt	LAMP	6	12	n/a	n/a	pyFR	0	TJ080
2037.396	2.638	3045075	WORD	n/a	wordpools/wordpool_EN.txt	CROWN	7	12	n/a	n/a	pyFR	0	TJ080
2040.034	2.637	3047713	WORD	n/a	wordpools/wordpool_EN.txt	SCHOOL	8	12	n/a	n/a	pyFR	0	TJ080
2042.671	2.439	3050350	WORD	n/a	wordpools/wordpool_EN.txt	SPEAR	9	12	n/a	n/a	pyFR	0	TJ080
2045.11	2.586	3052788	WORD	n/a	wordpools/wordpool_EN.txt	ARM	10	12	n/a	n/a	pyFR	0	TJ080
2047.696	2.672	3055374	WORD	n/a	wordpools/wordpool_EN.txt	GOAT	11	12	n/a	n/a	pyFR	0	TJ080
2050.368	2.521	3058046	WORD	n/a	wordpools/wordpool_EN.txt	POOL	12	12	n/a	n/a	pyFR	0	TJ080
2052.889	2.804	3060567	WORD	n/a	wordpools/wordpool_EN.txt	WING	13	12	n/a	n/a	pyFR	0	TJ080
2055.693	2.554	3063371	WORD	n/a	wordpools/wordpool_EN.txt	BLUSH	14	12	n/a	n/a	pyFR	0	TJ080
2058.247	1.605	3065925	WORD	n/a	wordpools/wordpool_EN.txt	POLE	15	12	n/a	n/a	pyFR	0	TJ080
2059.852	0.934	3067530	START	n/a	n/a	n/a	n/a	12	[-999 -999 -999]	-999	pyFR	0	TJ080
2060.786	10.75	3068464	PROB	10.714	n/a	n/a	n/a	12	[7 9 4]	20	pyFR	0	TJ080
2071.536	7.814	3079213	PROB	7.78	n/a	n/a	n/a	12	[6 6 2]	14	pyFR	0	TJ080
2079.35	19.038	3087027	PROB	19.038	n/a	n/a	n/a	12	[9 9 6]	23	pyFR	0	TJ080
2098.388	1.213	3106065	STOP	n/a	n/a	n/a	n/a	12	[-999 -999 -999]	-999	pyFR	0	TJ080
2099.601	16.264	3107277	REC_START	n/a	n/a	n/a	-999	12	n/a	n/a	pyFR	0	TJ080
2115.865	32.835	3123541	REC_WORD_VV	16.264	n/a	<>	-999	12	n/a	n/a	pyFR	0	TJ080
2148.7	0.016	3156375	TRIAL	n/a	n/a	n/a	-999	13	n/a	n/a	pyFR	0	TJ080
2148.716	2.655	3156391	ORIENT	n/a	n/a	n/a	-999	13	n/a	n/a	pyFR	0	TJ080
2151.371	2.739	3159046	WORD	n/a	wordpools/wordpool_EN.txt	SHEEP	1	13	n/a	n/a	pyFR	0	TJ080
2154.11	2.536	3161785	WORD	n/a	wordpools/wordpool_EN.txt	ROCK	2	13	n/a	n/a	pyFR	0	TJ080
2156.646	2.455	3164320	WORD	n/a	wordpools/wordpool_EN.txt	MULE	3	13	n/a	n/a	pyFR	0	TJ080
2159.101	2.805	3166775	WORD	n/a	wordpools/wordpool_EN.txt	TRAIN	4	13	n/a	n/a	pyFR	0	TJ080
2161.906	2.52	3169580	WORD	n/a	wordpools/wordpool_EN.txt	PEARL	5	13	n/a	n/a	pyFR	0	TJ080
2164.426	2.706	3172100	WORD	n/a	wordpools/wordpool_EN.txt	FOG	6	13	n/a	n/a	pyFR	0	TJ080
2167.132	2.654	3174806	WORD	n/a	wordpools/wordpool_EN.txt	SMILE	7	13	n/a	n/a	pyFR	0	TJ080
2169.786	2.57	3177460	WORD	n/a	wordpools/wordpool_EN.txt	SKI	8	13	n/a	n/a	pyFR	0	TJ080
2172.356	2.656	3180030	WORD	n/a	wordpools/wordpool_EN.txt	FLAG	9	13	n/a	n/a	pyFR	0	TJ080
2175.012	2.486	3182686	WORD	n/a	wordpools/wordpool_EN.txt	CORN	10	13	n/a	n/a	pyFR	0	TJ080
2177.498	2.689	3185172	WORD	n/a	wordpools/wordpool_EN.txt	PEN	11	13	n/a	n/a	pyFR	0	TJ080
2180.187	2.587	3187861	WORD	n/a	wordpools/wordpool_EN.txt	JAIL	12	13	n/a	n/a	pyFR	0	TJ080
2182.774	2.771	3190447	WORD	n/a	wordpools/wordpool_EN.txt	KING	13	13	n/a	n/a	pyFR	0	TJ080
2185.545	2.589	3193218	WORD	n/a	wordpools/wordpool_EN.txt	BRICK	14	13	n/a	n/a	pyFR	0	TJ080
2188.134	1.602	3195807	WORD	n/a	wordpools/wordpool_EN.txt	PIT	15	13	n/a	n/a	pyFR	0	TJ080
2189.736	0.868	3197409	START	n/a	n/a	n/a	n/a	13	[-999 -999 -999]	-999	pyFR	0	TJ080
2190.604	5.793	3198277	PROB	5.76	n/a	n/a	n/a	13	[3 1 2]	6	pyFR	0	TJ080
2196.397	7.413	3204070	PROB	7.392	n/a	n/a	n/a	13	[3 1 7]	11	pyFR	0	TJ080
2203.81	5.859	3211483	PROB	5.826	n/a	n/a	n/a	13	[6 5 5]	16	pyFR	0	TJ080
2209.669	9.936	3217342	PROB	9.936	n/a	n/a	n/a	13	[9 4 8]	21	pyFR	0	TJ080
2219.605	1.1	3227277	STOP	n/a	n/a	n/a	n/a	13	[-999 -999 -999]	-999	pyFR	0	TJ080
2220.705	1.143	3228377	REC_START	n/a	n/a	n/a	-999	13	n/a	n/a	pyFR	0	TJ080
2221.848	9.277	3229520	REC_WORD	1.143	n/a	TRAIN	-999	13	n/a	n/a	pyFR	0	TJ080
2231.125	7.933	3238797	REC_WORD	10.42	n/a	SKI	-999	13	n/a	n/a	pyFR	0	TJ080
2239.058	31.347	3246729	REC_WORD	18.353	n/a	MOLE	-999	13	n/a	n/a	pyFR	0	TJ080
2270.405	0.016	3278075	TRIAL	n/a	n/a	n/a	-999	14	n/a	n/a	pyFR	0	TJ080
2270.421	2.672	3278091	ORIENT	n/a	n/a	n/a	-999	14	n/a	n/a	pyFR	0	TJ080
2273.093	2.805	3280763	WORD	n/a	wordpools/wordpool_EN.txt	BRANCH	1	14	n/a	n/a	pyFR	0	TJ080
2275.898	2.587	3283568	WORD	n/a	wordpools/wordpool_EN.txt	RIB	2	14	n/a	n/a	pyFR	0	TJ080
2278.485	2.756	3286155	WORD	n/a	wordpools/wordpool_EN.txt	PHONE	3	14	n/a	n/a	pyFR	0	TJ080
2281.241	2.554	3288911	WORD	n/a	wordpools/wordpool_EN.txt	ROPE	4	14	n/a	n/a	pyFR	0	TJ080
2283.795	2.737	3291465	WORD	n/a	wordpools/wordpool_EN.txt	TEA	5	14	n/a	n/a	pyFR	0	TJ080
2286.532	2.672	3294202	WORD	n/a	wordpools/wordpool_EN.txt	TOOL	6	14	n/a	n/a	pyFR	0	TJ080
2289.204	2.788	3296874	WORD	n/a	wordpools/wordpool_EN.txt	DAD	7	14	n/a	n/a	pyFR	0	TJ080
2291.992	2.653	3299662	WORD	n/a	wordpools/wordpool_EN.txt	SEA	8	14	n/a	n/a	pyFR	0	TJ080
2294.645	2.572	3302314	WORD	n/a	wordpools/wordpool_EN.txt	POND	9	14	n/a	n/a	pyFR	0	TJ080
2297.217	2.621	3304886	WORD	n/a	wordpools/wordpool_EN.txt	STONE	10	14	n/a	n/a	pyFR	0	TJ080
2299.838	2.637	3307507	WORD	n/a	wordpools/wordpool_EN.txt	KITE	11	14	n/a	n/a	pyFR	0	TJ080
2302.475	2.805	3310144	WORD	n/a	wordpools/wordpool_EN.txt	SHEET	12	14	n/a	n/a	pyFR	0	TJ080
2305.28	2.421	3312949	WORD	n/a	wordpools/wordpool_EN.txt	TENT	13	14	n/a	n/a	pyFR	0	TJ080
2307.701	2.721	3315370	WORD	n/a	wordpools/wordpool_EN.txt	ANT	14	14	n/a	n/a	pyFR	0	TJ080
2310.422	1.604	3318091	WORD	n/a	wordpools/wordpool_EN.txt	LAND	15	14	n/a	n/a	pyFR	0	TJ080
2312.026	1.151	3319695	START	n/a	n/a	n/a	n/a	14	[-999 -999 -999]	-999	pyFR	0	TJ080
2313.177	8.999	3320846	PROB	8.972	n/a	n/a	n/a	14	[4 2 3]	9	pyFR	0	TJ080
2322.176	18.292	3329845	PROB	18.292	n/a	n/a	n/a	14	[8 4 4]	16	pyFR	0	TJ080
2340.468	1.224	3348136	STOP	n/a	n/a	n/a	n/a	14	[-999 -999 -999]	-999	pyFR	0	TJ080
2341.692	2.566	3349360	REC_START	n/a	n/a	n/a	-999	14	n/a	n/a	pyFR	0	TJ080
2344.258	2.794	3351926	REC_WORD	2.566	n/a	DAD	-999	14	n/a	n/a	pyFR	0	TJ080
2347.052	2.15	3354720	REC_WORD	5.36	n/a	ANT	-999	14	n/a	n/a	pyFR	0	TJ080
2349.202	41.488	3356870	REC_WORD	7.51	n/a	TENT	-999	14	n/a	n/a	pyFR	0	TJ080
2390.69	0.017	3398356	TRIAL	n/a	n/a	n/a	-999	15	n/a	n/a	pyFR	0	TJ080
2390.707	2.938	3398373	ORIENT	n/a	n/a	n/a	-999	15	n/a	n/a	pyFR	0	TJ080
2393.645	2.805	3401311	WORD	n/a	wordpools/wordpool_EN.txt	TOOTH	1	15	n/a	n/a	pyFR	0	TJ080
2396.45	2.772	3404116	WORD	n/a	wordpools/wordpool_EN.txt	FENCE	2	15	n/a	n/a	pyFR	0	TJ080
2399.222	2.688	3406888	WORD	n/a	wordpools/wordpool_EN.txt	PEACH	3	15	n/a	n/a	pyFR	0	TJ080
2401.91	2.52	3409576	WORD	n/a	wordpools/wordpool_EN.txt	GLASS	4	15	n/a	n/a	pyFR	0	TJ080
2404.43	2.555	3412096	WORD	n/a	wordpools/wordpool_EN.txt	SLIME	5	15	n/a	n/a	pyFR	0	TJ080
2406.985	2.721	3414650	WORD	n/a	wordpools/wordpool_EN.txt	FACE	6	15	n/a	n/a	pyFR	0	TJ080
2409.706	2.604	3417371	WORD	n/a	wordpools/wordpool_EN.txt	LEAF	7	15	n/a	n/a	pyFR	0	TJ080
2412.31	2.806	3419975	WORD	n/a	wordpools/wordpool_EN.txt	BOY	8	15	n/a	n/a	pyFR	0	TJ080
2415.116	2.503	3422781	WORD	n/a	wordpools/wordpool_EN.txt	CHEEK	9	15	n/a	n/a	pyFR	0	TJ080
2417.619	2.555	3425284	WORD	n/a	wordpools/wordpool_EN.txt	VAN	10	15	n/a	n/a	pyFR	0	TJ080
2420.174	2.587	3427839	WORD	n/a	wordpools/wordpool_EN.txt	STRAW	11	15	n/a	n/a	pyFR	0	TJ080
2422.761	2.571	3430426	WORD	n/a	wordpools/wordpool_EN.txt	ZOO	12	15	n/a	n/a	pyFR	0	TJ080
2425.332	2.739	3432997	WORD	n/a	wordpools/wordpool_EN.txt	LEG	13	15	n/a	n/a	pyFR	0	TJ080
2428.071	2.754	3435736	WORD	n/a	wordpools/wordpool_EN.txt	INK	14	15	n/a	n/a	pyFR	0	TJ080
2430.825	1.603	3438490	WORD	n/a	wordpools/wordpool_EN.txt	SUN	15	15	n/a	n/a	pyFR	0	TJ080
2432.428	0.934	3440093	START	n/a	n/a	n/a	n/a	15	[-999 -999 -999]	-999	pyFR	0	TJ080
2433.362	17.312	3441027	PROB	17.282	n/a	n/a	n/a	15	[8 4 9]	20	pyFR	0	TJ080
2450.674	10.746	3458338	PROB	10.746	n/a	n/a	n/a	15	[5 7 7]	19	pyFR	0	TJ080
2461.42	1.075	3469084	STOP	n/a	n/a	n/a	n/a	15	[-999 -999 -999]	-999	pyFR	0	TJ080
2462.495	5.768	3470158	REC_START	n/a	n/a	n/a	-999	15	n/a	n/a	pyFR	0	TJ080
2468.263	3.936	3475926	REC_WORD	5.768	n/a	BOY	-999	15	n/a	n/a	pyFR	0	TJ080
2472.199	7.437	3479862	REC_WORD	9.704	n/a	INK	-999	15	n/a	n/a	pyFR	0	TJ080
2479.636	33.126	3487299	REC_WORD	17.141	n/a	STRAW	-999	15	n/a	n/a	pyFR	0	TJ080
2512.762	0.017	3520424	TRIAL	n/a	n/a	n/a	-999	16	n/a	n/a	pyFR	0	TJ080
2512.779	2.688	3520441	ORIENT	n/a	n/a	n/a	-999	16	n/a	n/a	pyFR	0	TJ080
2515.467	2.755	3523129	WORD	n/a	wordpools/wordpool_EN.txt	NAIL	1	16	n/a	n/a	pyFR	0	TJ080
2518.222	2.722	3525883	WORD	n/a	wordpools/wordpool_EN.txt	HAWK	2	16	n/a	n/a	pyFR	0	TJ080
2520.944	2.419	3528605	WORD	n/a	wordpools/wordpool_EN.txt	MAT	3	16	n/a	n/a	pyFR	0	TJ080
2523.363	2.639	3531024	WORD	n/a	wordpools/wordpool_EN.txt	STEM	4	16	n/a	n/a	pyFR	0	TJ080
2526.002	2.537	3533663	WORD	n/a	wordpools/wordpool_EN.txt	JEEP	5	16	n/a	n/a	pyFR	0	TJ080
2528.539	2.572	3536200	WORD	n/a	wordpools/wordpool_EN.txt	SKUNK	6	16	n/a	n/a	pyFR	0	TJ080
2531.111	2.738	3538772	WORD	n/a	wordpools/wordpool_EN.txt	COW	7	16	n/a	n/a	pyFR	0	TJ080
2533.849	2.62	3541510	WORD	n/a	wordpools/wordpool_EN.txt	FISH	8	16	n/a	n/a	pyFR	0	TJ080
2536.469	2.538	3544130	WORD	n/a	wordpools/wordpool_EN.txt	FOX	9	16	n/a	n/a	pyFR	0	TJ080
2539.007	2.805	3546668	WORD	n/a	wordpools/wordpool_EN.txt	CLOWN	10	16	n/a	n/a	pyFR	0	TJ080
2541.812	2.437	3549473	WORD	n/a	wordpools/wordpool_EN.txt	SHELL	11	16	n/a	n/a	pyFR	0	TJ080
2544.249	2.705	3551910	WORD	n/a	wordpools/wordpool_EN.txt	VASE	12	16	n/a	n/a	pyFR	0	TJ080
2546.954	2.787	3554614	WORD	n/a	wordpools/wordpool_EN.txt	SNOW	13	16	n/a	n/a	pyFR	0	TJ080
2549.741	2.688	3557401	WORD	n/a	wordpools/wordpool_EN.txt	THUMB	14	16	n/a	n/a	pyFR	0	TJ080
2552.429	1.621	3560089	WORD	n/a	wordpools/wordpool_EN.txt	BRUSH	15	16	n/a	n/a	pyFR	0	TJ080
2554.05	0.851	3561710	START	n/a	n/a	n/a	n/a	16	[-999 -999 -999]	-999	pyFR	0	TJ080
2554.901	8.213	3562561	PROB	8.192	n/a	n/a	n/a	16	[3 4 7]	14	pyFR	0	TJ080
2563.114	11.723	3570774	PROB	11.723	n/a	n/a	n/a	16	[6 9 6]	21	pyFR	0	TJ080
2574.837	1.116	3582496	STOP	n/a	n/a	n/a	n/a	16	[-999 -999 -999]	-999	pyFR	0	TJ080
2575.953	1.784	3583612	REC_START	n/a	n/a	n/a	-999	16	n/a	n/a	pyFR	0	TJ080
2577.737	16.469	3585396	REC_WORD	1.784	n/a	JEEP	-999	16	n/a	n/a	pyFR	0	TJ080
2594.206	2.96	3601865	REC_WORD	18.253	n/a	SKUNK	-999	16	n/a	n/a	pyFR	0	TJ080
2597.166	13.386	3604825	REC_WORD	21.213	n/a	SNOW	-999	16	n/a	n/a	pyFR	0	TJ080
2610.552	536.227	3618210	REC_WORD	34.599	n/a	COW	-999	16	n/a	n/a	pyFR	0	TJ080
3146.779	0.051	4154418	SESS_END	n/a	n/a	n/a	-999	16	n/a	n/a	pyFR	0	TJ080
3146.83	0.0	4154469	E	n/a	n/a	n/a	-999	16	n/a	n/a	pyFR	0	TJ080
