onset	duration	sample	trial_type	response_time	stim_file	item_name	serialpos	list	test	answer	experiment	session	subject
0.0	0.0	189862	SESS_START	n/a	n/a	n/a	-999	-999	n/a	n/a	pyFR	1	TJ015
0.0	23.76	189862	B	n/a	n/a	n/a	-999	-999	n/a	n/a	pyFR	1	TJ015
23.76	0.024	199366	START	n/a	n/a	n/a	n/a	0	[-999 -999 -999]	-999	pyFR	1	TJ015
23.784	8.09	199375	PROB	n/a	n/a	n/a	n/a	0	[1 5 1]	7	pyFR	1	TJ015
31.874	5.553	202611	PROB	n/a	n/a	n/a	n/a	0	[7 3 2]	12	pyFR	1	TJ015
37.427	9.292	204832	PROB	n/a	n/a	n/a	n/a	0	[1 8 9]	18	pyFR	1	TJ015
46.719	6.273	208549	PROB	n/a	n/a	n/a	n/a	0	[3 6 4]	13	pyFR	1	TJ015
52.992	4.265	211058	PROB	n/a	n/a	n/a	n/a	0	[7 7 3]	17	pyFR	1	TJ015
57.257	29.747	212764	STOP	n/a	n/a	n/a	n/a	0	[-999 -999 -999]	-999	pyFR	1	TJ015
87.004	0.016	224663	TRIAL	n/a	n/a	n/a	-999	-999	n/a	n/a	pyFR	1	TJ015
87.02	2.651	224669	ORIENT	n/a	n/a	n/a	-999	-999	n/a	n/a	pyFR	1	TJ015
89.671	2.786	225730	WORD	n/a	wordpools/wordpool_EN.txt	WALL	1	1	n/a	n/a	pyFR	1	TJ015
92.457	2.787	226844	WORD	n/a	wordpools/wordpool_EN.txt	TOE	2	1	n/a	n/a	pyFR	1	TJ015
95.244	2.669	227959	WORD	n/a	wordpools/wordpool_EN.txt	MOLE	3	1	n/a	n/a	pyFR	1	TJ015
97.913	2.601	229027	WORD	n/a	wordpools/wordpool_EN.txt	SHRIMP	4	1	n/a	n/a	pyFR	1	TJ015
100.514	2.67	230067	WORD	n/a	wordpools/wordpool_EN.txt	TAPE	5	1	n/a	n/a	pyFR	1	TJ015
103.184	2.735	231135	WORD	n/a	wordpools/wordpool_EN.txt	SHEEP	6	1	n/a	n/a	pyFR	1	TJ015
105.919	2.618	232229	WORD	n/a	wordpools/wordpool_EN.txt	TRASH	7	1	n/a	n/a	pyFR	1	TJ015
108.537	2.47	233276	WORD	n/a	wordpools/wordpool_EN.txt	TOAD	8	1	n/a	n/a	pyFR	1	TJ015
111.007	2.786	234264	WORD	n/a	wordpools/wordpool_EN.txt	STAR	9	1	n/a	n/a	pyFR	1	TJ015
113.793	2.501	235378	WORD	n/a	wordpools/wordpool_EN.txt	LIP	10	1	n/a	n/a	pyFR	1	TJ015
116.294	2.82	236379	WORD	n/a	wordpools/wordpool_EN.txt	SAIL	11	1	n/a	n/a	pyFR	1	TJ015
119.114	2.685	237507	WORD	n/a	wordpools/wordpool_EN.txt	BOARD	12	1	n/a	n/a	pyFR	1	TJ015
121.799	2.452	238581	WORD	n/a	wordpools/wordpool_EN.txt	HOOK	13	1	n/a	n/a	pyFR	1	TJ015
124.251	2.468	239562	WORD	n/a	wordpools/wordpool_EN.txt	SPOON	14	1	n/a	n/a	pyFR	1	TJ015
126.719	1.62	240549	WORD	n/a	wordpools/wordpool_EN.txt	HILL	15	1	n/a	n/a	pyFR	1	TJ015
128.339	1.149	241197	START	n/a	n/a	n/a	n/a	1	[-999 -999 -999]	-999	pyFR	1	TJ015
129.488	7.424	241656	PROB	n/a	n/a	n/a	n/a	1	[2 6 9]	17	pyFR	1	TJ015
136.912	4.204	244626	PROB	n/a	n/a	n/a	n/a	1	[6 4 3]	13	pyFR	1	TJ015
141.116	4.152	246308	PROB	n/a	n/a	n/a	n/a	1	[4 1 7]	12	pyFR	1	TJ015
145.268	8.751	247968	PROB	n/a	n/a	n/a	n/a	1	[8 6 5]	19	pyFR	1	TJ015
154.019	1.14	251469	STOP	n/a	n/a	n/a	n/a	1	[-999 -999 -999]	-999	pyFR	1	TJ015
155.159	1.377	251925	REC_START	n/a	n/a	n/a	-999	-999	n/a	n/a	pyFR	1	TJ015
156.536	1.049	252476	REC_WORD	1.049	n/a	WALL	-999	1	n/a	n/a	pyFR	1	TJ015
157.585	1.362	252895	REC_WORD	1.362	n/a	TOAD	-999	1	n/a	n/a	pyFR	1	TJ015
158.947	1.048	253440	REC_WORD	1.048	n/a	MOLE	-999	1	n/a	n/a	pyFR	1	TJ015
159.995	1.896	253859	REC_WORD	1.896	n/a	SHRIMP	-999	1	n/a	n/a	pyFR	1	TJ015
161.891	3.7	254617	REC_WORD	3.7	n/a	SPOON	-999	1	n/a	n/a	pyFR	1	TJ015
165.591	2.299	256097	REC_WORD	2.299	n/a	HOOK	-999	1	n/a	n/a	pyFR	1	TJ015
167.89	39.498	257017	REC_WORD	39.498	n/a	BOARD	-999	1	n/a	n/a	pyFR	1	TJ015
207.388	0.016	272816	TRIAL	n/a	n/a	n/a	-999	-999	n/a	n/a	pyFR	1	TJ015
207.404	2.919	272823	ORIENT	n/a	n/a	n/a	-999	-999	n/a	n/a	pyFR	1	TJ015
210.323	2.703	273990	WORD	n/a	wordpools/wordpool_EN.txt	PEAR	1	2	n/a	n/a	pyFR	1	TJ015
213.026	2.618	275071	WORD	n/a	wordpools/wordpool_EN.txt	PIG	2	2	n/a	n/a	pyFR	1	TJ015
215.644	2.669	276118	WORD	n/a	wordpools/wordpool_EN.txt	STRING	3	2	n/a	n/a	pyFR	1	TJ015
218.313	2.703	277186	WORD	n/a	wordpools/wordpool_EN.txt	TRAY	4	2	n/a	n/a	pyFR	1	TJ015
221.016	2.651	278267	WORD	n/a	wordpools/wordpool_EN.txt	FORK	5	2	n/a	n/a	pyFR	1	TJ015
223.667	2.736	279328	WORD	n/a	wordpools/wordpool_EN.txt	ROCK	6	2	n/a	n/a	pyFR	1	TJ015
226.403	2.77	280422	WORD	n/a	wordpools/wordpool_EN.txt	BEAR	7	2	n/a	n/a	pyFR	1	TJ015
229.173	2.685	281530	WORD	n/a	wordpools/wordpool_EN.txt	APE	8	2	n/a	n/a	pyFR	1	TJ015
231.858	2.485	282604	WORD	n/a	wordpools/wordpool_EN.txt	SNAIL	9	2	n/a	n/a	pyFR	1	TJ015
234.343	2.686	283598	WORD	n/a	wordpools/wordpool_EN.txt	SWAMP	10	2	n/a	n/a	pyFR	1	TJ015
237.029	2.602	284672	WORD	n/a	wordpools/wordpool_EN.txt	CAR	11	2	n/a	n/a	pyFR	1	TJ015
239.631	2.569	285713	WORD	n/a	wordpools/wordpool_EN.txt	SHELL	12	2	n/a	n/a	pyFR	1	TJ015
242.2	2.769	286741	WORD	n/a	wordpools/wordpool_EN.txt	BAG	13	2	n/a	n/a	pyFR	1	TJ015
244.969	2.803	287848	WORD	n/a	wordpools/wordpool_EN.txt	FOX	14	2	n/a	n/a	pyFR	1	TJ015
247.772	1.618	288970	WORD	n/a	wordpools/wordpool_EN.txt	WOOD	15	2	n/a	n/a	pyFR	1	TJ015
249.39	1.116	289617	START	n/a	n/a	n/a	n/a	2	[-999 -999 -999]	-999	pyFR	1	TJ015
250.506	9.676	290063	PROB	n/a	n/a	n/a	n/a	2	[8 6 6]	20	pyFR	1	TJ015
260.182	4.988	293933	PROB	n/a	n/a	n/a	n/a	2	[3 6 3]	12	pyFR	1	TJ015
265.17	7.68	295929	PROB	n/a	n/a	n/a	n/a	2	[4 6 8]	18	pyFR	1	TJ015
272.85	1.228	299001	STOP	n/a	n/a	n/a	n/a	2	[-999 -999 -999]	-999	pyFR	1	TJ015
274.078	3.856	299492	REC_START	n/a	n/a	n/a	-999	-999	n/a	n/a	pyFR	1	TJ015
277.934	0.721	301034	REC_WORD	0.721	n/a	WALL	-999	2	n/a	n/a	pyFR	1	TJ015
278.655	1.918	301323	REC_WORD	1.918	n/a	FORK	-999	2	n/a	n/a	pyFR	1	TJ015
280.573	1.148	302090	REC_WORD	1.148	n/a	BEAR	-999	2	n/a	n/a	pyFR	1	TJ015
281.721	8.085	302549	REC_WORD	8.085	n/a	PIG	-999	2	n/a	n/a	pyFR	1	TJ015
289.806	22.463	305783	REC_WORD	22.463	n/a	WOOD	-999	2	n/a	n/a	pyFR	1	TJ015
312.269	1.289	314768	REC_WORD_VV	1.289	n/a	VV	-999	2	n/a	n/a	pyFR	1	TJ015
313.558	9.81	315284	REC_WORD	9.81	n/a	FLUTE	-999	2	n/a	n/a	pyFR	1	TJ015
323.368	0.016	319208	TRIAL	n/a	n/a	n/a	-999	-999	n/a	n/a	pyFR	1	TJ015
323.384	2.653	319214	ORIENT	n/a	n/a	n/a	-999	-999	n/a	n/a	pyFR	1	TJ015
326.037	2.668	320275	WORD	n/a	wordpools/wordpool_EN.txt	ANT	1	3	n/a	n/a	pyFR	1	TJ015
328.705	2.686	321342	WORD	n/a	wordpools/wordpool_EN.txt	FROG	2	3	n/a	n/a	pyFR	1	TJ015
331.391	2.503	322417	WORD	n/a	wordpools/wordpool_EN.txt	WAND	3	3	n/a	n/a	pyFR	1	TJ015
333.894	2.718	323418	WORD	n/a	wordpools/wordpool_EN.txt	COAT	4	3	n/a	n/a	pyFR	1	TJ015
336.612	2.52	324505	WORD	n/a	wordpools/wordpool_EN.txt	BOX	5	3	n/a	n/a	pyFR	1	TJ015
339.132	2.484	325513	WORD	n/a	wordpools/wordpool_EN.txt	BEAN	6	3	n/a	n/a	pyFR	1	TJ015
341.616	2.47	326507	WORD	n/a	wordpools/wordpool_EN.txt	EEL	7	3	n/a	n/a	pyFR	1	TJ015
344.086	2.601	327495	WORD	n/a	wordpools/wordpool_EN.txt	MOTH	8	3	n/a	n/a	pyFR	1	TJ015
346.687	2.719	328535	WORD	n/a	wordpools/wordpool_EN.txt	COW	9	3	n/a	n/a	pyFR	1	TJ015
349.406	2.586	329623	WORD	n/a	wordpools/wordpool_EN.txt	BRUSH	10	3	n/a	n/a	pyFR	1	TJ015
351.992	2.652	330657	WORD	n/a	wordpools/wordpool_EN.txt	STOVE	11	3	n/a	n/a	pyFR	1	TJ015
354.644	2.702	331718	WORD	n/a	wordpools/wordpool_EN.txt	BLUSH	12	3	n/a	n/a	pyFR	1	TJ015
357.346	2.603	332799	WORD	n/a	wordpools/wordpool_EN.txt	RAIN	13	3	n/a	n/a	pyFR	1	TJ015
359.949	2.618	333840	WORD	n/a	wordpools/wordpool_EN.txt	GIRL	14	3	n/a	n/a	pyFR	1	TJ015
362.567	1.621	334887	WORD	n/a	wordpools/wordpool_EN.txt	CROWN	15	3	n/a	n/a	pyFR	1	TJ015
364.188	1.215	335535	START	n/a	n/a	n/a	n/a	3	[-999 -999 -999]	-999	pyFR	1	TJ015
365.403	4.971	336021	PROB	n/a	n/a	n/a	n/a	3	[4 1 5]	10	pyFR	1	TJ015
370.374	8.307	338010	PROB	n/a	n/a	n/a	n/a	3	[7 7 4]	18	pyFR	1	TJ015
378.681	4.421	341333	PROB	n/a	n/a	n/a	n/a	3	[8 8 4]	20	pyFR	1	TJ015
383.102	17.307	343101	PROB	n/a	n/a	n/a	n/a	3	[5 4 5]	14	pyFR	1	TJ015
400.409	1.075	350024	STOP	n/a	n/a	n/a	n/a	3	[-999 -999 -999]	-999	pyFR	1	TJ015
401.484	2.654	350454	REC_START	n/a	n/a	n/a	-999	-999	n/a	n/a	pyFR	1	TJ015
404.138	1.029	351515	REC_WORD	1.029	n/a	STOVE	-999	3	n/a	n/a	pyFR	1	TJ015
405.167	1.748	351927	REC_WORD	1.748	n/a	EEL	-999	3	n/a	n/a	pyFR	1	TJ015
406.915	0.626	352626	REC_WORD	0.626	n/a	ANT	-999	3	n/a	n/a	pyFR	1	TJ015
407.541	41.684	352876	REC_WORD	41.684	n/a	WALL	-999	3	n/a	n/a	pyFR	1	TJ015
449.225	0.016	369550	TRIAL	n/a	n/a	n/a	-999	-999	n/a	n/a	pyFR	1	TJ015
449.241	2.919	369556	ORIENT	n/a	n/a	n/a	-999	-999	n/a	n/a	pyFR	1	TJ015
452.16	2.802	370724	WORD	n/a	wordpools/wordpool_EN.txt	CROW	1	4	n/a	n/a	pyFR	1	TJ015
454.962	2.618	371845	WORD	n/a	wordpools/wordpool_EN.txt	TREE	2	4	n/a	n/a	pyFR	1	TJ015
457.58	2.537	372892	WORD	n/a	wordpools/wordpool_EN.txt	MILK	3	4	n/a	n/a	pyFR	1	TJ015
460.117	2.752	373907	WORD	n/a	wordpools/wordpool_EN.txt	MOOSE	4	4	n/a	n/a	pyFR	1	TJ015
462.869	2.434	375007	WORD	n/a	wordpools/wordpool_EN.txt	STEAK	5	4	n/a	n/a	pyFR	1	TJ015
465.303	2.47	375981	WORD	n/a	wordpools/wordpool_EN.txt	BEACH	6	4	n/a	n/a	pyFR	1	TJ015
467.773	2.601	376969	WORD	n/a	wordpools/wordpool_EN.txt	CUBE	7	4	n/a	n/a	pyFR	1	TJ015
470.374	2.637	378009	WORD	n/a	wordpools/wordpool_EN.txt	DAD	8	4	n/a	n/a	pyFR	1	TJ015
473.011	2.451	379064	WORD	n/a	wordpools/wordpool_EN.txt	CUP	9	4	n/a	n/a	pyFR	1	TJ015
475.462	2.786	380045	WORD	n/a	wordpools/wordpool_EN.txt	SPEAR	10	4	n/a	n/a	pyFR	1	TJ015
478.248	2.468	381159	WORD	n/a	wordpools/wordpool_EN.txt	PEA	11	4	n/a	n/a	pyFR	1	TJ015
480.716	2.786	382146	WORD	n/a	wordpools/wordpool_EN.txt	DIME	12	4	n/a	n/a	pyFR	1	TJ015
483.502	2.436	383261	WORD	n/a	wordpools/wordpool_EN.txt	PHONE	13	4	n/a	n/a	pyFR	1	TJ015
485.938	2.551	384235	WORD	n/a	wordpools/wordpool_EN.txt	GEESE	14	4	n/a	n/a	pyFR	1	TJ015
488.489	1.621	385255	WORD	n/a	wordpools/wordpool_EN.txt	OAK	15	4	n/a	n/a	pyFR	1	TJ015
490.11	1.083	385904	START	n/a	n/a	n/a	n/a	4	[-999 -999 -999]	-999	pyFR	1	TJ015
491.193	10.274	386337	PROB	n/a	n/a	n/a	n/a	4	[7 9 3]	19	pyFR	1	TJ015
501.467	6.506	390447	PROB	n/a	n/a	n/a	n/a	4	[8 5 4]	17	pyFR	1	TJ015
507.973	7.966	393049	PROB	n/a	n/a	n/a	n/a	4	[3 1 6]	10	pyFR	1	TJ015
515.939	1.109	396235	STOP	n/a	n/a	n/a	n/a	4	[-999 -999 -999]	-999	pyFR	1	TJ015
517.048	4.833	396679	REC_START	n/a	n/a	n/a	-999	-999	n/a	n/a	pyFR	1	TJ015
521.881	1.273	398612	REC_WORD	1.273	n/a	GEESE	-999	4	n/a	n/a	pyFR	1	TJ015
523.154	1.0	399121	REC_WORD	1.0	n/a	STOVE	-999	4	n/a	n/a	pyFR	1	TJ015
524.154	3.23	399521	REC_WORD_VV	3.23	n/a	VV	-999	4	n/a	n/a	pyFR	1	TJ015
527.384	39.69	400813	REC_WORD_VV	39.69	n/a	VV	-999	4	n/a	n/a	pyFR	1	TJ015
567.074	0.016	416689	TRIAL	n/a	n/a	n/a	-999	-999	n/a	n/a	pyFR	1	TJ015
567.09	2.969	416695	ORIENT	n/a	n/a	n/a	-999	-999	n/a	n/a	pyFR	1	TJ015
570.059	2.568	417883	WORD	n/a	wordpools/wordpool_EN.txt	ROOM	1	5	n/a	n/a	pyFR	1	TJ015
572.627	2.469	418910	WORD	n/a	wordpools/wordpool_EN.txt	MOON	2	5	n/a	n/a	pyFR	1	TJ015
575.096	2.653	419898	WORD	n/a	wordpools/wordpool_EN.txt	PALM	3	5	n/a	n/a	pyFR	1	TJ015
577.749	2.734	420959	WORD	n/a	wordpools/wordpool_EN.txt	JUICE	4	5	n/a	n/a	pyFR	1	TJ015
580.483	2.587	422053	WORD	n/a	wordpools/wordpool_EN.txt	FLAME	5	5	n/a	n/a	pyFR	1	TJ015
583.07	2.518	423087	WORD	n/a	wordpools/wordpool_EN.txt	RAT	6	5	n/a	n/a	pyFR	1	TJ015
585.588	2.503	424095	WORD	n/a	wordpools/wordpool_EN.txt	WAVE	7	5	n/a	n/a	pyFR	1	TJ015
588.091	2.819	425096	WORD	n/a	wordpools/wordpool_EN.txt	CAGE	8	5	n/a	n/a	pyFR	1	TJ015
590.91	2.601	426223	WORD	n/a	wordpools/wordpool_EN.txt	SPARK	9	5	n/a	n/a	pyFR	1	TJ015
593.511	2.603	427264	WORD	n/a	wordpools/wordpool_EN.txt	JAIL	10	5	n/a	n/a	pyFR	1	TJ015
596.114	2.501	428305	WORD	n/a	wordpools/wordpool_EN.txt	OAR	11	5	n/a	n/a	pyFR	1	TJ015
598.615	2.537	429305	WORD	n/a	wordpools/wordpool_EN.txt	BENCH	12	5	n/a	n/a	pyFR	1	TJ015
601.152	2.517	430320	WORD	n/a	wordpools/wordpool_EN.txt	TAIL	13	5	n/a	n/a	pyFR	1	TJ015
603.669	2.736	431327	WORD	n/a	wordpools/wordpool_EN.txt	HOLE	14	5	n/a	n/a	pyFR	1	TJ015
606.405	1.621	432421	WORD	n/a	wordpools/wordpool_EN.txt	VASE	15	5	n/a	n/a	pyFR	1	TJ015
608.026	0.982	433070	START	n/a	n/a	n/a	n/a	5	[-999 -999 -999]	-999	pyFR	1	TJ015
609.008	17.999	433462	PROB	n/a	n/a	n/a	n/a	5	[8 4 6]	18	pyFR	1	TJ015
627.007	5.203	440662	PROB	n/a	n/a	n/a	n/a	5	[2 3 9]	14	pyFR	1	TJ015
632.21	1.085	442743	STOP	n/a	n/a	n/a	n/a	5	[-999 -999 -999]	-999	pyFR	1	TJ015
633.295	3.597	443177	REC_START	n/a	n/a	n/a	-999	-999	n/a	n/a	pyFR	1	TJ015
636.892	1.822	444616	REC_WORD	1.822	n/a	ROOM	-999	5	n/a	n/a	pyFR	1	TJ015
638.714	1.928	445345	REC_WORD	1.928	n/a	GEESE	-999	5	n/a	n/a	pyFR	1	TJ015
640.642	2.802	446116	REC_WORD	2.802	n/a	TAIL	-999	5	n/a	n/a	pyFR	1	TJ015
643.444	21.68	447237	REC_WORD	21.68	n/a	ART	-999	5	n/a	n/a	pyFR	1	TJ015
665.124	4.174	455909	REC_WORD	4.174	n/a	BENCH	-999	5	n/a	n/a	pyFR	1	TJ015
669.298	2.461	457578	REC_WORD	2.461	n/a	PALM	-999	5	n/a	n/a	pyFR	1	TJ015
671.759	9.56	458563	REC_WORD	9.56	n/a	JUICE	-999	5	n/a	n/a	pyFR	1	TJ015
681.319	0.016	462387	TRIAL	n/a	n/a	n/a	-999	-999	n/a	n/a	pyFR	1	TJ015
681.335	2.952	462393	ORIENT	n/a	n/a	n/a	-999	-999	n/a	n/a	pyFR	1	TJ015
684.287	2.487	463574	WORD	n/a	wordpools/wordpool_EN.txt	FUDGE	1	6	n/a	n/a	pyFR	1	TJ015
686.774	2.751	464569	WORD	n/a	wordpools/wordpool_EN.txt	BOY	2	6	n/a	n/a	pyFR	1	TJ015
689.525	2.586	465669	WORD	n/a	wordpools/wordpool_EN.txt	BELL	3	6	n/a	n/a	pyFR	1	TJ015
692.111	2.652	466703	WORD	n/a	wordpools/wordpool_EN.txt	FLOOR	4	6	n/a	n/a	pyFR	1	TJ015
694.763	2.602	467764	WORD	n/a	wordpools/wordpool_EN.txt	PEN	5	6	n/a	n/a	pyFR	1	TJ015
697.365	2.603	468805	WORD	n/a	wordpools/wordpool_EN.txt	BADGE	6	6	n/a	n/a	pyFR	1	TJ015
699.968	2.718	469846	WORD	n/a	wordpools/wordpool_EN.txt	ZOO	7	6	n/a	n/a	pyFR	1	TJ015
702.686	2.585	470933	WORD	n/a	wordpools/wordpool_EN.txt	ROOF	8	6	n/a	n/a	pyFR	1	TJ015
705.271	2.47	471967	WORD	n/a	wordpools/wordpool_EN.txt	BRIDGE	9	6	n/a	n/a	pyFR	1	TJ015
707.741	2.668	472955	WORD	n/a	wordpools/wordpool_EN.txt	EGG	10	6	n/a	n/a	pyFR	1	TJ015
710.409	2.436	474022	WORD	n/a	wordpools/wordpool_EN.txt	DOLL	11	6	n/a	n/a	pyFR	1	TJ015
712.845	2.501	474997	WORD	n/a	wordpools/wordpool_EN.txt	NAIL	12	6	n/a	n/a	pyFR	1	TJ015
715.346	2.67	475997	WORD	n/a	wordpools/wordpool_EN.txt	TRUCK	13	6	n/a	n/a	pyFR	1	TJ015
718.016	2.568	477065	WORD	n/a	wordpools/wordpool_EN.txt	NOSE	14	6	n/a	n/a	pyFR	1	TJ015
720.584	1.621	478092	WORD	n/a	wordpools/wordpool_EN.txt	POND	15	6	n/a	n/a	pyFR	1	TJ015
722.205	1.182	478741	START	n/a	n/a	n/a	n/a	6	[-999 -999 -999]	-999	pyFR	1	TJ015
723.387	4.22	479214	PROB	n/a	n/a	n/a	n/a	6	[4 2 1]	7	pyFR	1	TJ015
727.607	3.42	480902	PROB	n/a	n/a	n/a	n/a	6	[3 9 9]	21	pyFR	1	TJ015
731.027	10.059	482270	PROB	n/a	n/a	n/a	n/a	6	[5 3 3]	11	pyFR	1	TJ015
741.086	7.028	486293	PROB	n/a	n/a	n/a	n/a	6	[2 5 7]	14	pyFR	1	TJ015
748.114	1.113	489104	STOP	n/a	n/a	n/a	n/a	6	[-999 -999 -999]	-999	pyFR	1	TJ015
749.227	0.658	489550	REC_START	n/a	n/a	n/a	-999	-999	n/a	n/a	pyFR	1	TJ015
749.885	1.211	489813	REC_WORD	1.211	n/a	FUDGE	-999	6	n/a	n/a	pyFR	1	TJ015
751.096	3.067	490297	REC_WORD	3.067	n/a	BOY	-999	6	n/a	n/a	pyFR	1	TJ015
754.163	2.811	491524	REC_WORD	2.811	n/a	PEN	-999	6	n/a	n/a	pyFR	1	TJ015
756.974	3.149	492648	REC_WORD	3.149	n/a	FLOOR	-999	6	n/a	n/a	pyFR	1	TJ015
760.123	40.847	493908	REC_WORD	40.847	n/a	TRUCK	-999	6	n/a	n/a	pyFR	1	TJ015
800.97	0.016	510246	TRIAL	n/a	n/a	n/a	-999	-999	n/a	n/a	pyFR	1	TJ015
800.986	2.718	510253	ORIENT	n/a	n/a	n/a	-999	-999	n/a	n/a	pyFR	1	TJ015
803.704	2.685	511340	WORD	n/a	wordpools/wordpool_EN.txt	ARK	1	7	n/a	n/a	pyFR	1	TJ015
806.389	2.504	512414	WORD	n/a	wordpools/wordpool_EN.txt	THUMB	2	7	n/a	n/a	pyFR	1	TJ015
808.893	2.534	513416	WORD	n/a	wordpools/wordpool_EN.txt	FACE	3	7	n/a	n/a	pyFR	1	TJ015
811.427	2.637	514429	WORD	n/a	wordpools/wordpool_EN.txt	WEB	4	7	n/a	n/a	pyFR	1	TJ015
814.064	2.752	515484	WORD	n/a	wordpools/wordpool_EN.txt	WHALE	5	7	n/a	n/a	pyFR	1	TJ015
816.816	2.501	516585	WORD	n/a	wordpools/wordpool_EN.txt	ROOT	6	7	n/a	n/a	pyFR	1	TJ015
819.317	2.787	517585	WORD	n/a	wordpools/wordpool_EN.txt	STEAM	7	7	n/a	n/a	pyFR	1	TJ015
822.104	2.785	518700	WORD	n/a	wordpools/wordpool_EN.txt	CARD	8	7	n/a	n/a	pyFR	1	TJ015
824.889	2.818	519814	WORD	n/a	wordpools/wordpool_EN.txt	PIT	9	7	n/a	n/a	pyFR	1	TJ015
827.707	2.453	520941	WORD	n/a	wordpools/wordpool_EN.txt	SLUSH	10	7	n/a	n/a	pyFR	1	TJ015
830.16	2.603	521922	WORD	n/a	wordpools/wordpool_EN.txt	BLOOM	11	7	n/a	n/a	pyFR	1	TJ015
832.763	2.768	522964	WORD	n/a	wordpools/wordpool_EN.txt	CLOTH	12	7	n/a	n/a	pyFR	1	TJ015
835.531	2.62	524071	WORD	n/a	wordpools/wordpool_EN.txt	FARM	13	7	n/a	n/a	pyFR	1	TJ015
838.151	2.585	525119	WORD	n/a	wordpools/wordpool_EN.txt	PLANE	14	7	n/a	n/a	pyFR	1	TJ015
840.736	1.619	526153	WORD	n/a	wordpools/wordpool_EN.txt	BOOT	15	7	n/a	n/a	pyFR	1	TJ015
842.355	0.966	526800	START	n/a	n/a	n/a	n/a	7	[-999 -999 -999]	-999	pyFR	1	TJ015
843.321	10.576	527187	PROB	n/a	n/a	n/a	n/a	7	[4 2 8]	14	pyFR	1	TJ015
853.897	5.021	531417	PROB	n/a	n/a	n/a	n/a	7	[1 8 8]	17	pyFR	1	TJ015
858.918	10.932	533425	PROB	n/a	n/a	n/a	n/a	7	[7 7 8]	22	pyFR	1	TJ015
869.85	1.129	537798	STOP	n/a	n/a	n/a	n/a	7	[-999 -999 -999]	-999	pyFR	1	TJ015
870.979	1.037	538250	REC_START	n/a	n/a	n/a	-999	-999	n/a	n/a	pyFR	1	TJ015
872.016	1.01	538665	REC_WORD	1.01	n/a	ARK	-999	7	n/a	n/a	pyFR	1	TJ015
873.026	3.541	539069	REC_WORD	3.541	n/a	THUMB	-999	7	n/a	n/a	pyFR	1	TJ015
876.567	1.727	540485	REC_WORD	1.727	n/a	FENCE	-999	7	n/a	n/a	pyFR	1	TJ015
878.294	43.611	541176	REC_WORD	43.611	n/a	PLOT	-999	7	n/a	n/a	pyFR	1	TJ015
921.905	0.016	558620	TRIAL	n/a	n/a	n/a	-999	-999	n/a	n/a	pyFR	1	TJ015
921.921	2.819	558626	ORIENT	n/a	n/a	n/a	-999	-999	n/a	n/a	pyFR	1	TJ015
924.74	2.568	559754	WORD	n/a	wordpools/wordpool_EN.txt	FLEA	1	8	n/a	n/a	pyFR	1	TJ015
927.308	2.569	560781	WORD	n/a	wordpools/wordpool_EN.txt	FAN	2	8	n/a	n/a	pyFR	1	TJ015
929.877	2.602	561809	WORD	n/a	wordpools/wordpool_EN.txt	SINK	3	8	n/a	n/a	pyFR	1	TJ015
932.479	2.486	562850	WORD	n/a	wordpools/wordpool_EN.txt	WHEEL	4	8	n/a	n/a	pyFR	1	TJ015
934.965	2.668	563844	WORD	n/a	wordpools/wordpool_EN.txt	ROPE	5	8	n/a	n/a	pyFR	1	TJ015
937.633	2.553	564911	WORD	n/a	wordpools/wordpool_EN.txt	TEETH	6	8	n/a	n/a	pyFR	1	TJ015
940.186	2.702	565932	WORD	n/a	wordpools/wordpool_EN.txt	BUSH	7	8	n/a	n/a	pyFR	1	TJ015
942.888	2.785	567013	WORD	n/a	wordpools/wordpool_EN.txt	MAZE	8	8	n/a	n/a	pyFR	1	TJ015
945.673	2.686	568127	WORD	n/a	wordpools/wordpool_EN.txt	LEG	9	8	n/a	n/a	pyFR	1	TJ015
948.359	2.57	569201	WORD	n/a	wordpools/wordpool_EN.txt	SHARK	10	8	n/a	n/a	pyFR	1	TJ015
950.929	2.667	570229	WORD	n/a	wordpools/wordpool_EN.txt	CAVE	11	8	n/a	n/a	pyFR	1	TJ015
953.596	2.753	571296	WORD	n/a	wordpools/wordpool_EN.txt	FILM	12	8	n/a	n/a	pyFR	1	TJ015
956.349	2.72	572397	WORD	n/a	wordpools/wordpool_EN.txt	COIN	13	8	n/a	n/a	pyFR	1	TJ015
959.069	2.451	573485	WORD	n/a	wordpools/wordpool_EN.txt	HORN	14	8	n/a	n/a	pyFR	1	TJ015
961.52	1.621	574466	WORD	n/a	wordpools/wordpool_EN.txt	BOAT	15	8	n/a	n/a	pyFR	1	TJ015
963.141	1.099	575114	START	n/a	n/a	n/a	n/a	8	[-999 -999 -999]	-999	pyFR	1	TJ015
964.24	7.739	575554	PROB	n/a	n/a	n/a	n/a	8	[7 3 6]	16	pyFR	1	TJ015
971.979	11.326	578649	PROB	n/a	n/a	n/a	n/a	8	[7 6 3]	16	pyFR	1	TJ015
983.305	1.068	583180	STOP	n/a	n/a	n/a	n/a	8	[-999 -999 -999]	-999	pyFR	1	TJ015
984.373	1.438	583607	REC_START	n/a	n/a	n/a	-999	-999	n/a	n/a	pyFR	1	TJ015
985.811	0.356	584182	REC_WORD_VV	0.356	n/a	VV	-999	8	n/a	n/a	pyFR	1	TJ015
986.167	1.355	584325	REC_WORD	1.355	n/a	FLEA	-999	8	n/a	n/a	pyFR	1	TJ015
987.522	1.39	584867	REC_WORD	1.39	n/a	FAN	-999	8	n/a	n/a	pyFR	1	TJ015
988.912	2.09	585423	REC_WORD	2.09	n/a	SWIM	-999	8	n/a	n/a	pyFR	1	TJ015
991.002	43.313	586259	REC_WORD	43.313	n/a	ART	-999	8	n/a	n/a	pyFR	1	TJ015
1034.315	0.016	603584	TRIAL	n/a	n/a	n/a	-999	-999	n/a	n/a	pyFR	1	TJ015
1034.331	2.903	603590	ORIENT	n/a	n/a	n/a	-999	-999	n/a	n/a	pyFR	1	TJ015
1037.234	2.752	604751	WORD	n/a	wordpools/wordpool_EN.txt	BEE	1	9	n/a	n/a	pyFR	1	TJ015
1039.986	2.468	605852	WORD	n/a	wordpools/wordpool_EN.txt	FOOD	2	9	n/a	n/a	pyFR	1	TJ015
1042.454	2.537	606839	WORD	n/a	wordpools/wordpool_EN.txt	TOAST	3	9	n/a	n/a	pyFR	1	TJ015
1044.991	2.718	607854	WORD	n/a	wordpools/wordpool_EN.txt	TOOTH	4	9	n/a	n/a	pyFR	1	TJ015
1047.709	2.685	608941	WORD	n/a	wordpools/wordpool_EN.txt	CLOWN	5	9	n/a	n/a	pyFR	1	TJ015
1050.394	2.77	610015	WORD	n/a	wordpools/wordpool_EN.txt	MAT	6	9	n/a	n/a	pyFR	1	TJ015
1053.164	2.535	611123	WORD	n/a	wordpools/wordpool_EN.txt	PASTE	7	9	n/a	n/a	pyFR	1	TJ015
1055.699	2.719	612137	WORD	n/a	wordpools/wordpool_EN.txt	BRICK	8	9	n/a	n/a	pyFR	1	TJ015
1058.418	2.636	613225	WORD	n/a	wordpools/wordpool_EN.txt	BED	9	9	n/a	n/a	pyFR	1	TJ015
1061.054	2.786	614279	WORD	n/a	wordpools/wordpool_EN.txt	TIE	10	9	n/a	n/a	pyFR	1	TJ015
1063.84	2.718	615393	WORD	n/a	wordpools/wordpool_EN.txt	CLIFF	11	9	n/a	n/a	pyFR	1	TJ015
1066.558	2.52	616481	WORD	n/a	wordpools/wordpool_EN.txt	ROSE	12	9	n/a	n/a	pyFR	1	TJ015
1069.078	2.634	617489	WORD	n/a	wordpools/wordpool_EN.txt	FOAM	13	9	n/a	n/a	pyFR	1	TJ015
1071.712	2.52	618542	WORD	n/a	wordpools/wordpool_EN.txt	STRAW	14	9	n/a	n/a	pyFR	1	TJ015
1074.232	1.62	619550	WORD	n/a	wordpools/wordpool_EN.txt	EAR	15	9	n/a	n/a	pyFR	1	TJ015
1075.852	0.966	620198	START	n/a	n/a	n/a	n/a	9	[-999 -999 -999]	-999	pyFR	1	TJ015
1076.818	6.205	620585	PROB	n/a	n/a	n/a	n/a	9	[9 4 4]	17	pyFR	1	TJ015
1083.023	15.043	623067	PROB	n/a	n/a	n/a	n/a	9	[4 5 6]	15	pyFR	1	TJ015
1098.066	1.071	629084	STOP	n/a	n/a	n/a	n/a	9	[-999 -999 -999]	-999	pyFR	1	TJ015
1099.137	2.898	629512	REC_START	n/a	n/a	n/a	-999	-999	n/a	n/a	pyFR	1	TJ015
1102.035	6.939	630671	REC_WORD	6.939	n/a	BEE	-999	9	n/a	n/a	pyFR	1	TJ015
1108.974	41.273	633447	REC_WORD	41.273	n/a	OAK	-999	9	n/a	n/a	pyFR	1	TJ015
1150.247	0.014	649956	TRIAL	n/a	n/a	n/a	-999	-999	n/a	n/a	pyFR	1	TJ015
1150.261	2.921	649961	ORIENT	n/a	n/a	n/a	-999	-999	n/a	n/a	pyFR	1	TJ015
1153.182	2.669	651130	WORD	n/a	wordpools/wordpool_EN.txt	NET	1	10	n/a	n/a	pyFR	1	TJ015
1155.851	2.617	652197	WORD	n/a	wordpools/wordpool_EN.txt	ROAD	2	10	n/a	n/a	pyFR	1	TJ015
1158.468	2.637	653244	WORD	n/a	wordpools/wordpool_EN.txt	CHIEF	3	10	n/a	n/a	pyFR	1	TJ015
1161.105	2.719	654299	WORD	n/a	wordpools/wordpool_EN.txt	CAT	4	10	n/a	n/a	pyFR	1	TJ015
1163.824	2.651	655387	WORD	n/a	wordpools/wordpool_EN.txt	FENCE	5	10	n/a	n/a	pyFR	1	TJ015
1166.475	2.836	656447	WORD	n/a	wordpools/wordpool_EN.txt	SOUP	6	10	n/a	n/a	pyFR	1	TJ015
1169.311	2.703	657581	WORD	n/a	wordpools/wordpool_EN.txt	SHEET	7	10	n/a	n/a	pyFR	1	TJ015
1172.014	2.802	658663	WORD	n/a	wordpools/wordpool_EN.txt	CART	8	10	n/a	n/a	pyFR	1	TJ015
1174.816	2.502	659783	WORD	n/a	wordpools/wordpool_EN.txt	MUG	9	10	n/a	n/a	pyFR	1	TJ015
1177.318	2.703	660784	WORD	n/a	wordpools/wordpool_EN.txt	GOLD	10	10	n/a	n/a	pyFR	1	TJ015
1180.021	2.468	661865	WORD	n/a	wordpools/wordpool_EN.txt	PIPE	11	10	n/a	n/a	pyFR	1	TJ015
1182.489	2.636	662853	WORD	n/a	wordpools/wordpool_EN.txt	LAKE	12	10	n/a	n/a	pyFR	1	TJ015
1185.125	2.501	663907	WORD	n/a	wordpools/wordpool_EN.txt	CLAY	13	10	n/a	n/a	pyFR	1	TJ015
1187.626	2.686	664907	WORD	n/a	wordpools/wordpool_EN.txt	BAND	14	10	n/a	n/a	pyFR	1	TJ015
1190.312	1.62	665982	WORD	n/a	wordpools/wordpool_EN.txt	TOY	15	10	n/a	n/a	pyFR	1	TJ015
1191.932	1.15	666630	START	n/a	n/a	n/a	n/a	10	[-999 -999 -999]	-999	pyFR	1	TJ015
1193.082	16.78	667090	PROB	n/a	n/a	n/a	n/a	10	[6 9 4]	19	pyFR	1	TJ015
1209.862	13.715	673802	PROB	n/a	n/a	n/a	n/a	10	[4 8 6]	24	pyFR	1	TJ015
1223.577	1.199	679288	STOP	n/a	n/a	n/a	n/a	10	[-999 -999 -999]	-999	pyFR	1	TJ015
1224.776	3.136	679767	REC_START	n/a	n/a	n/a	-999	-999	n/a	n/a	pyFR	1	TJ015
1227.912	1.321	681022	REC_WORD_VV	1.321	n/a	VV	-999	10	n/a	n/a	pyFR	1	TJ015
1229.233	1.26	681550	REC_WORD	1.26	n/a	GOLD	-999	10	n/a	n/a	pyFR	1	TJ015
1230.493	4.131	682054	REC_WORD	4.131	n/a	ROAD	-999	10	n/a	n/a	pyFR	1	TJ015
1234.624	39.443	683706	REC_WORD	39.443	n/a	VAN	-999	10	n/a	n/a	pyFR	1	TJ015
1274.067	0.016	699483	TRIAL	n/a	n/a	n/a	-999	-999	n/a	n/a	pyFR	1	TJ015
1274.083	2.652	699490	ORIENT	n/a	n/a	n/a	-999	-999	n/a	n/a	pyFR	1	TJ015
1276.735	2.486	700551	WORD	n/a	wordpools/wordpool_EN.txt	BALL	1	11	n/a	n/a	pyFR	1	TJ015
1279.221	2.819	701545	WORD	n/a	wordpools/wordpool_EN.txt	FLUTE	2	11	n/a	n/a	pyFR	1	TJ015
1282.04	2.584	702673	WORD	n/a	wordpools/wordpool_EN.txt	GLOVE	3	11	n/a	n/a	pyFR	1	TJ015
1284.624	2.819	703706	WORD	n/a	wordpools/wordpool_EN.txt	RICE	4	11	n/a	n/a	pyFR	1	TJ015
1287.443	2.787	704834	WORD	n/a	wordpools/wordpool_EN.txt	HOSE	5	11	n/a	n/a	pyFR	1	TJ015
1290.23	2.819	705949	WORD	n/a	wordpools/wordpool_EN.txt	JET	6	11	n/a	n/a	pyFR	1	TJ015
1293.049	2.802	707076	WORD	n/a	wordpools/wordpool_EN.txt	JUDGE	7	11	n/a	n/a	pyFR	1	TJ015
1295.851	2.685	708197	WORD	n/a	wordpools/wordpool_EN.txt	CASH	8	11	n/a	n/a	pyFR	1	TJ015
1298.536	2.603	709271	WORD	n/a	wordpools/wordpool_EN.txt	TEA	9	11	n/a	n/a	pyFR	1	TJ015
1301.139	2.535	710312	WORD	n/a	wordpools/wordpool_EN.txt	BARN	10	11	n/a	n/a	pyFR	1	TJ015
1303.674	2.602	711326	WORD	n/a	wordpools/wordpool_EN.txt	COUCH	11	11	n/a	n/a	pyFR	1	TJ015
1306.276	2.703	712367	WORD	n/a	wordpools/wordpool_EN.txt	BRANCH	12	11	n/a	n/a	pyFR	1	TJ015
1308.979	2.518	713448	WORD	n/a	wordpools/wordpool_EN.txt	FOOT	13	11	n/a	n/a	pyFR	1	TJ015
1311.497	2.785	714455	WORD	n/a	wordpools/wordpool_EN.txt	JEEP	14	11	n/a	n/a	pyFR	1	TJ015
1314.282	1.621	715569	WORD	n/a	wordpools/wordpool_EN.txt	PANTS	15	11	n/a	n/a	pyFR	1	TJ015
1315.903	0.999	716218	START	n/a	n/a	n/a	n/a	11	[-999 -999 -999]	-999	pyFR	1	TJ015
1316.902	7.907	716617	PROB	n/a	n/a	n/a	n/a	11	[8 6 6]	20	pyFR	1	TJ015
1324.809	3.669	719780	PROB	n/a	n/a	n/a	n/a	11	[3 3 1]	7	pyFR	1	TJ015
1328.478	5.639	721248	PROB	n/a	n/a	n/a	n/a	11	[9 1 6]	16	pyFR	1	TJ015
1334.117	4.436	723503	PROB	n/a	n/a	n/a	n/a	11	[8 1 2]	11	pyFR	1	TJ015
1338.553	1.186	725278	STOP	n/a	n/a	n/a	n/a	11	[-999 -999 -999]	-999	pyFR	1	TJ015
1339.739	6.249	725752	REC_START	n/a	n/a	n/a	-999	-999	n/a	n/a	pyFR	1	TJ015
1345.988	0.821	728251	REC_WORD	0.821	n/a	FOOT	-999	11	n/a	n/a	pyFR	1	TJ015
1346.809	4.276	728580	REC_WORD	4.276	n/a	ROPE	-999	11	n/a	n/a	pyFR	1	TJ015
1351.085	2.927	730290	REC_WORD	2.927	n/a	BED	-999	11	n/a	n/a	pyFR	1	TJ015
1354.012	34.7	731461	REC_WORD	34.7	n/a	HAND	-999	11	n/a	n/a	pyFR	1	TJ015
1388.712	0.017	745341	TRIAL	n/a	n/a	n/a	-999	-999	n/a	n/a	pyFR	1	TJ015
1388.729	2.685	745348	ORIENT	n/a	n/a	n/a	-999	-999	n/a	n/a	pyFR	1	TJ015
1391.414	2.553	746422	WORD	n/a	wordpools/wordpool_EN.txt	DRESS	1	12	n/a	n/a	pyFR	1	TJ015
1393.967	2.751	747443	WORD	n/a	wordpools/wordpool_EN.txt	CHALK	2	12	n/a	n/a	pyFR	1	TJ015
1396.718	2.487	748543	WORD	n/a	wordpools/wordpool_EN.txt	KEY	3	12	n/a	n/a	pyFR	1	TJ015
1399.205	2.669	749538	WORD	n/a	wordpools/wordpool_EN.txt	POOL	4	12	n/a	n/a	pyFR	1	TJ015
1401.874	2.634	750606	WORD	n/a	wordpools/wordpool_EN.txt	TENT	5	12	n/a	n/a	pyFR	1	TJ015
1404.508	2.437	751659	WORD	n/a	wordpools/wordpool_EN.txt	WOLF	6	12	n/a	n/a	pyFR	1	TJ015
1406.945	2.501	752634	WORD	n/a	wordpools/wordpool_EN.txt	GRASS	7	12	n/a	n/a	pyFR	1	TJ015
1409.446	2.653	753634	WORD	n/a	wordpools/wordpool_EN.txt	STORM	8	12	n/a	n/a	pyFR	1	TJ015
1412.099	2.752	754696	WORD	n/a	wordpools/wordpool_EN.txt	GATE	9	12	n/a	n/a	pyFR	1	TJ015
1414.851	2.735	755796	WORD	n/a	wordpools/wordpool_EN.txt	DUCK	10	12	n/a	n/a	pyFR	1	TJ015
1417.586	2.819	756890	WORD	n/a	wordpools/wordpool_EN.txt	CAPE	11	12	n/a	n/a	pyFR	1	TJ015
1420.405	2.67	758018	WORD	n/a	wordpools/wordpool_EN.txt	STORE	12	12	n/a	n/a	pyFR	1	TJ015
1423.075	2.501	759086	WORD	n/a	wordpools/wordpool_EN.txt	CALF	13	12	n/a	n/a	pyFR	1	TJ015
1425.576	2.486	760086	WORD	n/a	wordpools/wordpool_EN.txt	PET	14	12	n/a	n/a	pyFR	1	TJ015
1428.062	1.619	761081	WORD	n/a	wordpools/wordpool_EN.txt	WING	15	12	n/a	n/a	pyFR	1	TJ015
1429.681	1.05	761728	START	n/a	n/a	n/a	n/a	12	[-999 -999 -999]	-999	pyFR	1	TJ015
1430.731	19.376	762148	PROB	n/a	n/a	n/a	n/a	12	[2 9 5]	16	pyFR	1	TJ015
1450.107	1.142	769899	STOP	n/a	n/a	n/a	n/a	12	[-999 -999 -999]	-999	pyFR	1	TJ015
1451.249	2.046	770355	REC_START	n/a	n/a	n/a	-999	-999	n/a	n/a	pyFR	1	TJ015
1453.295	1.354	771174	REC_WORD	1.354	n/a	CALF	-999	12	n/a	n/a	pyFR	1	TJ015
1454.649	3.275	771715	REC_WORD	3.275	n/a	PET	-999	12	n/a	n/a	pyFR	1	TJ015
1457.924	44.135	773025	REC_WORD	44.135	n/a	WOLF	-999	12	n/a	n/a	pyFR	1	TJ015
1502.059	0.015	790679	TRIAL	n/a	n/a	n/a	-999	-999	n/a	n/a	pyFR	1	TJ015
1502.074	2.786	790685	ORIENT	n/a	n/a	n/a	-999	-999	n/a	n/a	pyFR	1	TJ015
1504.86	2.818	791800	WORD	n/a	wordpools/wordpool_EN.txt	SKUNK	1	13	n/a	n/a	pyFR	1	TJ015
1507.678	2.769	792927	WORD	n/a	wordpools/wordpool_EN.txt	SOCK	2	13	n/a	n/a	pyFR	1	TJ015
1510.447	2.503	794034	WORD	n/a	wordpools/wordpool_EN.txt	GOAT	3	13	n/a	n/a	pyFR	1	TJ015
1512.95	2.618	795036	WORD	n/a	wordpools/wordpool_EN.txt	GUARD	4	13	n/a	n/a	pyFR	1	TJ015
1515.568	2.553	796083	WORD	n/a	wordpools/wordpool_EN.txt	LEAF	5	13	n/a	n/a	pyFR	1	TJ015
1518.121	2.636	797104	WORD	n/a	wordpools/wordpool_EN.txt	DOCK	6	13	n/a	n/a	pyFR	1	TJ015
1520.757	2.784	798158	WORD	n/a	wordpools/wordpool_EN.txt	CAKE	7	13	n/a	n/a	pyFR	1	TJ015
1523.541	2.487	799272	WORD	n/a	wordpools/wordpool_EN.txt	LAMB	8	13	n/a	n/a	pyFR	1	TJ015
1526.028	2.836	800267	WORD	n/a	wordpools/wordpool_EN.txt	SALT	9	13	n/a	n/a	pyFR	1	TJ015
1528.864	2.534	801401	WORD	n/a	wordpools/wordpool_EN.txt	SEED	10	13	n/a	n/a	pyFR	1	TJ015
1531.398	2.77	802415	WORD	n/a	wordpools/wordpool_EN.txt	HEN	11	13	n/a	n/a	pyFR	1	TJ015
1534.168	2.685	803523	WORD	n/a	wordpools/wordpool_EN.txt	PIN	12	13	n/a	n/a	pyFR	1	TJ015
1536.853	2.535	804597	WORD	n/a	wordpools/wordpool_EN.txt	BOWL	13	13	n/a	n/a	pyFR	1	TJ015
1539.388	2.77	805611	WORD	n/a	wordpools/wordpool_EN.txt	FORT	14	13	n/a	n/a	pyFR	1	TJ015
1542.158	1.62	806719	WORD	n/a	wordpools/wordpool_EN.txt	PIE	15	13	n/a	n/a	pyFR	1	TJ015
1543.778	1.199	807367	START	n/a	n/a	n/a	n/a	13	[-999 -999 -999]	-999	pyFR	1	TJ015
1544.977	7.106	807846	PROB	n/a	n/a	n/a	n/a	13	[4 3 7]	14	pyFR	1	TJ015
1552.083	24.711	810689	PROB	n/a	n/a	n/a	n/a	13	[8 9 7]	24	pyFR	1	TJ015
1576.794	1.228	820573	STOP	n/a	n/a	n/a	n/a	13	[-999 -999 -999]	-999	pyFR	1	TJ015
1578.022	3.82	821064	REC_START	n/a	n/a	n/a	-999	-999	n/a	n/a	pyFR	1	TJ015
1581.842	22.538	822592	REC_WORD	22.538	n/a	SKUNK	-999	13	n/a	n/a	pyFR	1	TJ015
1604.38	1.915	831607	REC_WORD	1.915	n/a	BRANCH	-999	13	n/a	n/a	pyFR	1	TJ015
1606.295	20.401	832373	REC_WORD	20.401	n/a	WALK	-999	13	n/a	n/a	pyFR	1	TJ015
1626.696	0.015	840534	TRIAL	n/a	n/a	n/a	-999	-999	n/a	n/a	pyFR	1	TJ015
1626.711	2.903	840540	ORIENT	n/a	n/a	n/a	-999	-999	n/a	n/a	pyFR	1	TJ015
1629.614	2.719	841701	WORD	n/a	wordpools/wordpool_EN.txt	SPONGE	1	14	n/a	n/a	pyFR	1	TJ015
1632.333	2.519	842788	WORD	n/a	wordpools/wordpool_EN.txt	BATH	2	14	n/a	n/a	pyFR	1	TJ015
1634.852	2.485	843796	WORD	n/a	wordpools/wordpool_EN.txt	SHIP	3	14	n/a	n/a	pyFR	1	TJ015
1637.337	2.586	844790	WORD	n/a	wordpools/wordpool_EN.txt	TOOL	4	14	n/a	n/a	pyFR	1	TJ015
1639.923	2.451	845824	WORD	n/a	wordpools/wordpool_EN.txt	FUR	5	14	n/a	n/a	pyFR	1	TJ015
1642.374	2.604	846805	WORD	n/a	wordpools/wordpool_EN.txt	BROOM	6	14	n/a	n/a	pyFR	1	TJ015
1644.978	2.734	847846	WORD	n/a	wordpools/wordpool_EN.txt	STICK	7	14	n/a	n/a	pyFR	1	TJ015
1647.712	2.752	848940	WORD	n/a	wordpools/wordpool_EN.txt	MAP	8	14	n/a	n/a	pyFR	1	TJ015
1650.464	2.487	850041	WORD	n/a	wordpools/wordpool_EN.txt	HEART	9	14	n/a	n/a	pyFR	1	TJ015
1652.951	2.701	851035	WORD	n/a	wordpools/wordpool_EN.txt	SKI	10	14	n/a	n/a	pyFR	1	TJ015
1655.652	2.602	852116	WORD	n/a	wordpools/wordpool_EN.txt	SPRING	11	14	n/a	n/a	pyFR	1	TJ015
1658.254	2.804	853157	WORD	n/a	wordpools/wordpool_EN.txt	BIRD	12	14	n/a	n/a	pyFR	1	TJ015
1661.058	2.769	854278	WORD	n/a	wordpools/wordpool_EN.txt	AXE	13	14	n/a	n/a	pyFR	1	TJ015
1663.827	2.501	855386	WORD	n/a	wordpools/wordpool_EN.txt	SHOE	14	14	n/a	n/a	pyFR	1	TJ015
1666.328	1.62	856386	WORD	n/a	wordpools/wordpool_EN.txt	DESK	15	14	n/a	n/a	pyFR	1	TJ015
1667.948	1.066	857034	START	n/a	n/a	n/a	n/a	14	[-999 -999 -999]	-999	pyFR	1	TJ015
1669.014	7.19	857461	PROB	n/a	n/a	n/a	n/a	14	[4 8 6]	18	pyFR	1	TJ015
1676.204	5.588	860337	PROB	n/a	n/a	n/a	n/a	14	[3 5 1]	9	pyFR	1	TJ015
1681.792	11.474	862572	PROB	n/a	n/a	n/a	n/a	14	[3 9 5]	17	pyFR	1	TJ015
1693.266	1.186	867161	STOP	n/a	n/a	n/a	n/a	14	[-999 -999 -999]	-999	pyFR	1	TJ015
1694.452	1.132	867636	REC_START	n/a	n/a	n/a	-999	-999	n/a	n/a	pyFR	1	TJ015
1695.584	1.129	868088	REC_WORD	1.129	n/a	SPRING	-999	14	n/a	n/a	pyFR	1	TJ015
1696.713	0.753	868540	REC_WORD	0.753	n/a	BIRD	-999	14	n/a	n/a	pyFR	1	TJ015
1697.466	0.786	868841	REC_WORD	0.786	n/a	MAP	-999	14	n/a	n/a	pyFR	1	TJ015
1698.252	44.992	869156	REC_WORD	44.992	n/a	SHOE	-999	14	n/a	n/a	pyFR	1	TJ015
1743.244	0.016	887152	TRIAL	n/a	n/a	n/a	-999	-999	n/a	n/a	pyFR	1	TJ015
1743.26	2.636	887159	ORIENT	n/a	n/a	n/a	-999	-999	n/a	n/a	pyFR	1	TJ015
1745.896	2.434	888213	WORD	n/a	wordpools/wordpool_EN.txt	FLAG	1	15	n/a	n/a	pyFR	1	TJ015
1748.33	2.536	889187	WORD	n/a	wordpools/wordpool_EN.txt	MULE	2	15	n/a	n/a	pyFR	1	TJ015
1750.866	2.635	890201	WORD	n/a	wordpools/wordpool_EN.txt	PLANT	3	15	n/a	n/a	pyFR	1	TJ015
1753.501	2.52	891255	WORD	n/a	wordpools/wordpool_EN.txt	DOOR	4	15	n/a	n/a	pyFR	1	TJ015
1756.021	2.752	892263	WORD	n/a	wordpools/wordpool_EN.txt	CORD	5	15	n/a	n/a	pyFR	1	TJ015
1758.773	2.551	893364	WORD	n/a	wordpools/wordpool_EN.txt	CHIN	6	15	n/a	n/a	pyFR	1	TJ015
1761.324	2.737	894384	WORD	n/a	wordpools/wordpool_EN.txt	CANE	7	15	n/a	n/a	pyFR	1	TJ015
1764.061	2.568	895479	WORD	n/a	wordpools/wordpool_EN.txt	BOMB	8	15	n/a	n/a	pyFR	1	TJ015
1766.629	2.52	896506	WORD	n/a	wordpools/wordpool_EN.txt	TANK	9	15	n/a	n/a	pyFR	1	TJ015
1769.149	2.718	897514	WORD	n/a	wordpools/wordpool_EN.txt	SKY	10	15	n/a	n/a	pyFR	1	TJ015
1771.867	2.718	898601	WORD	n/a	wordpools/wordpool_EN.txt	SHIRT	11	15	n/a	n/a	pyFR	1	TJ015
1774.585	2.637	899689	WORD	n/a	wordpools/wordpool_EN.txt	GRAPE	12	15	n/a	n/a	pyFR	1	TJ015
1777.222	2.669	900743	WORD	n/a	wordpools/wordpool_EN.txt	PLATE	13	15	n/a	n/a	pyFR	1	TJ015
1779.891	2.651	901811	WORD	n/a	wordpools/wordpool_EN.txt	NEST	14	15	n/a	n/a	pyFR	1	TJ015
1782.542	1.621	902871	WORD	n/a	wordpools/wordpool_EN.txt	VINE	15	15	n/a	n/a	pyFR	1	TJ015
1784.163	1.032	903520	START	n/a	n/a	n/a	n/a	15	[-999 -999 -999]	-999	pyFR	1	TJ015
1785.195	8.189	903932	PROB	n/a	n/a	n/a	n/a	15	[2 8 5]	15	pyFR	1	TJ015
1793.384	7.825	907208	PROB	n/a	n/a	n/a	n/a	15	[3 2 7]	12	pyFR	1	TJ015
1801.209	16.858	910338	PROB	n/a	n/a	n/a	n/a	15	[9 4 6]	19	pyFR	1	TJ015
1818.067	1.107	917081	STOP	n/a	n/a	n/a	n/a	15	[-999 -999 -999]	-999	pyFR	1	TJ015
1819.174	2.98	917524	REC_START	n/a	n/a	n/a	-999	-999	n/a	n/a	pyFR	1	TJ015
1822.154	0.981	918716	REC_WORD	0.981	n/a	SPRING	-999	15	n/a	n/a	pyFR	1	TJ015
1823.135	0.874	919108	REC_WORD	0.874	n/a	NEST	-999	15	n/a	n/a	pyFR	1	TJ015
1824.009	4.513	919458	REC_WORD	4.513	n/a	CAMP	-999	15	n/a	n/a	pyFR	1	TJ015
1828.522	1.0	921263	REC_WORD	1.0	n/a	SHOE	-999	15	n/a	n/a	pyFR	1	TJ015
1829.522	37.376	921663	REC_WORD_VV	37.376	n/a	VV	-999	15	n/a	n/a	pyFR	1	TJ015
1866.898	0.016	936613	TRIAL	n/a	n/a	n/a	-999	-999	n/a	n/a	pyFR	1	TJ015
1866.914	2.684	936620	ORIENT	n/a	n/a	n/a	-999	-999	n/a	n/a	pyFR	1	TJ015
1869.598	2.437	937693	WORD	n/a	wordpools/wordpool_EN.txt	LOCK	1	16	n/a	n/a	pyFR	1	TJ015
1872.035	2.568	938668	WORD	n/a	wordpools/wordpool_EN.txt	DITCH	2	16	n/a	n/a	pyFR	1	TJ015
1874.603	2.453	939695	WORD	n/a	wordpools/wordpool_EN.txt	HAT	3	16	n/a	n/a	pyFR	1	TJ015
1877.056	2.769	940677	WORD	n/a	wordpools/wordpool_EN.txt	HAND	4	16	n/a	n/a	pyFR	1	TJ015
1879.825	2.618	941784	WORD	n/a	wordpools/wordpool_EN.txt	LAMP	5	16	n/a	n/a	pyFR	1	TJ015
1882.443	2.503	942831	WORD	n/a	wordpools/wordpool_EN.txt	KITE	6	16	n/a	n/a	pyFR	1	TJ015
1884.946	2.667	943832	WORD	n/a	wordpools/wordpool_EN.txt	WORLD	7	16	n/a	n/a	pyFR	1	TJ015
1887.613	2.703	944899	WORD	n/a	wordpools/wordpool_EN.txt	SNOW	8	16	n/a	n/a	pyFR	1	TJ015
1890.316	2.753	945980	WORD	n/a	wordpools/wordpool_EN.txt	HOUSE	9	16	n/a	n/a	pyFR	1	TJ015
1893.069	2.719	947082	WORD	n/a	wordpools/wordpool_EN.txt	PURSE	10	16	n/a	n/a	pyFR	1	TJ015
1895.788	2.685	948169	WORD	n/a	wordpools/wordpool_EN.txt	MAIL	11	16	n/a	n/a	pyFR	1	TJ015
1898.473	2.503	949243	WORD	n/a	wordpools/wordpool_EN.txt	SWORD	12	16	n/a	n/a	pyFR	1	TJ015
1900.976	2.701	950244	WORD	n/a	wordpools/wordpool_EN.txt	FRUIT	13	16	n/a	n/a	pyFR	1	TJ015
1903.677	2.52	951325	WORD	n/a	wordpools/wordpool_EN.txt	BAT	14	16	n/a	n/a	pyFR	1	TJ015
1906.197	1.619	952333	WORD	n/a	wordpools/wordpool_EN.txt	SUIT	15	16	n/a	n/a	pyFR	1	TJ015
1907.816	1.133	952980	START	n/a	n/a	n/a	n/a	16	[-999 -999 -999]	-999	pyFR	1	TJ015
1908.949	20.357	953434	PROB	n/a	n/a	n/a	n/a	16	[9 7 4]	21	pyFR	1	TJ015
1929.306	1.211	961576	STOP	n/a	n/a	n/a	n/a	16	[-999 -999 -999]	-999	pyFR	1	TJ015
1930.517	3.564	962061	REC_START	n/a	n/a	n/a	-999	-999	n/a	n/a	pyFR	1	TJ015
1934.081	0.852	963486	REC_WORD	0.852	n/a	LOCK	-999	16	n/a	n/a	pyFR	1	TJ015
1934.933	4.042	963827	REC_WORD	4.042	n/a	DITCH	-999	16	n/a	n/a	pyFR	1	TJ015
1938.975	1.125	965444	REC_WORD	1.125	n/a	HAT	-999	16	n/a	n/a	pyFR	1	TJ015
1940.1	3.936	965894	REC_WORD	3.936	n/a	SWAMP	-999	16	n/a	n/a	pyFR	1	TJ015
1944.036	12.832	967468	REC_WORD	12.832	n/a	KITE	-999	16	n/a	n/a	pyFR	1	TJ015
1956.868	494.287	972601	REC_WORD	494.287	n/a	KNIFE	-999	16	n/a	n/a	pyFR	1	TJ015
2451.155	0.1	1170314	SESS_END	n/a	n/a	n/a	-999	-999	n/a	n/a	pyFR	1	TJ015
2451.255	0.0	1170354	E	n/a	n/a	n/a	-999	-999	n/a	n/a	pyFR	1	TJ015
