onset	duration	sample	trial_type	response_time	stim_file	item_name	serialpos	list	test	answer	experiment	session	subject
0.0	0.0	114773	B	n/a	n/a	n/a	-999	-999	n/a	n/a	pyFR	0	TJ071
0.0	77.063	114773	SESS_START	n/a	n/a	n/a	-999	-999	n/a	n/a	pyFR	0	TJ071
77.063	0.021	191835	START	n/a	n/a	n/a	n/a	0	[-999 -999 -999]	-999	pyFR	0	TJ071
77.084	10.421	191856	PROB	n/a	n/a	n/a	n/a	0	[6 9 6]	21	pyFR	0	TJ071
87.505	9.369	202277	PROB	n/a	n/a	n/a	n/a	0	[9 5 4]	18	pyFR	0	TJ071
96.874	12.445	211646	PROB	n/a	n/a	n/a	n/a	0	[9 8 8]	25	pyFR	0	TJ071
109.319	26.601	224091	STOP	n/a	n/a	n/a	n/a	0	[-999 -999 -999]	-999	pyFR	0	TJ071
135.92	0.017	250691	TRIAL	n/a	n/a	n/a	-999	1	n/a	n/a	pyFR	0	TJ071
135.937	2.989	250708	ORIENT	n/a	n/a	n/a	-999	1	n/a	n/a	pyFR	0	TJ071
138.926	2.456	253697	WORD	n/a	wordpools/wordpool_EN.txt	PET	1	1	n/a	n/a	pyFR	0	TJ071
141.382	2.689	256153	WORD	n/a	wordpools/wordpool_EN.txt	PIE	2	1	n/a	n/a	pyFR	0	TJ071
144.071	2.52	258842	WORD	n/a	wordpools/wordpool_EN.txt	FISH	3	1	n/a	n/a	pyFR	0	TJ071
146.591	2.473	261362	WORD	n/a	wordpools/wordpool_EN.txt	WALL	4	1	n/a	n/a	pyFR	0	TJ071
149.064	2.738	263835	WORD	n/a	wordpools/wordpool_EN.txt	SPOON	5	1	n/a	n/a	pyFR	0	TJ071
151.802	2.573	266573	WORD	n/a	wordpools/wordpool_EN.txt	DITCH	6	1	n/a	n/a	pyFR	0	TJ071
154.375	2.504	269146	WORD	n/a	wordpools/wordpool_EN.txt	DOLL	7	1	n/a	n/a	pyFR	0	TJ071
156.879	2.689	271650	WORD	n/a	wordpools/wordpool_EN.txt	APE	8	1	n/a	n/a	pyFR	0	TJ071
159.568	2.74	274339	WORD	n/a	wordpools/wordpool_EN.txt	OWL	9	1	n/a	n/a	pyFR	0	TJ071
162.308	2.571	277079	WORD	n/a	wordpools/wordpool_EN.txt	TOAST	10	1	n/a	n/a	pyFR	0	TJ071
164.879	2.755	279650	WORD	n/a	wordpools/wordpool_EN.txt	HOUSE	11	1	n/a	n/a	pyFR	0	TJ071
167.634	2.423	282405	WORD	n/a	wordpools/wordpool_EN.txt	RAIN	12	1	n/a	n/a	pyFR	0	TJ071
170.057	2.487	284828	WORD	n/a	wordpools/wordpool_EN.txt	STOOL	13	1	n/a	n/a	pyFR	0	TJ071
172.544	2.59	287315	WORD	n/a	wordpools/wordpool_EN.txt	LEG	14	1	n/a	n/a	pyFR	0	TJ071
175.134	1.603	289905	WORD	n/a	wordpools/wordpool_EN.txt	CLOUD	15	1	n/a	n/a	pyFR	0	TJ071
176.737	1.101	291508	START	n/a	n/a	n/a	n/a	1	[-999 -999 -999]	-999	pyFR	0	TJ071
177.838	7.616	292609	PROB	n/a	n/a	n/a	n/a	1	[3 4 1]	8	pyFR	0	TJ071
185.454	10.739	300225	PROB	n/a	n/a	n/a	n/a	1	[3 7 8]	18	pyFR	0	TJ071
196.193	7.261	310964	PROB	n/a	n/a	n/a	n/a	1	[3 2 7]	12	pyFR	0	TJ071
203.454	1.173	318225	STOP	n/a	n/a	n/a	n/a	1	[-999 -999 -999]	-999	pyFR	0	TJ071
204.627	5.637	319398	REC_START	n/a	n/a	n/a	-999	1	n/a	n/a	pyFR	0	TJ071
210.264	11.499	325034	REC_WORD	11.499	n/a	APE	-999	1	n/a	n/a	pyFR	0	TJ071
221.763	55.127	336533	REC_WORD	55.127	n/a	HOUSE	-999	1	n/a	n/a	pyFR	0	TJ071
276.89	0.016	391660	TRIAL	n/a	n/a	n/a	-999	2	n/a	n/a	pyFR	0	TJ071
276.906	2.689	391676	ORIENT	n/a	n/a	n/a	-999	2	n/a	n/a	pyFR	0	TJ071
279.595	2.773	394365	WORD	n/a	wordpools/wordpool_EN.txt	FLAG	1	2	n/a	n/a	pyFR	0	TJ071
282.368	2.471	397138	WORD	n/a	wordpools/wordpool_EN.txt	MOON	2	2	n/a	n/a	pyFR	0	TJ071
284.839	2.473	399609	WORD	n/a	wordpools/wordpool_EN.txt	LEAF	3	2	n/a	n/a	pyFR	0	TJ071
287.312	2.705	402082	WORD	n/a	wordpools/wordpool_EN.txt	WAND	4	2	n/a	n/a	pyFR	0	TJ071
290.017	2.437	404786	WORD	n/a	wordpools/wordpool_EN.txt	FOG	5	2	n/a	n/a	pyFR	0	TJ071
292.454	2.607	407223	WORD	n/a	wordpools/wordpool_EN.txt	STREET	6	2	n/a	n/a	pyFR	0	TJ071
295.061	2.688	409830	WORD	n/a	wordpools/wordpool_EN.txt	SLIME	7	2	n/a	n/a	pyFR	0	TJ071
297.749	2.638	412518	WORD	n/a	wordpools/wordpool_EN.txt	CAKE	8	2	n/a	n/a	pyFR	0	TJ071
300.387	2.606	415156	WORD	n/a	wordpools/wordpool_EN.txt	SMOKE	9	2	n/a	n/a	pyFR	0	TJ071
302.993	2.438	417762	WORD	n/a	wordpools/wordpool_EN.txt	SHOE	10	2	n/a	n/a	pyFR	0	TJ071
305.431	2.573	420200	WORD	n/a	wordpools/wordpool_EN.txt	GRASS	11	2	n/a	n/a	pyFR	0	TJ071
308.004	2.671	422773	WORD	n/a	wordpools/wordpool_EN.txt	WAVE	12	2	n/a	n/a	pyFR	0	TJ071
310.675	2.506	425444	WORD	n/a	wordpools/wordpool_EN.txt	SPARK	13	2	n/a	n/a	pyFR	0	TJ071
313.181	2.454	427950	WORD	n/a	wordpools/wordpool_EN.txt	PLANE	14	2	n/a	n/a	pyFR	0	TJ071
315.635	1.606	430404	WORD	n/a	wordpools/wordpool_EN.txt	SNAIL	15	2	n/a	n/a	pyFR	0	TJ071
317.241	0.967	432010	START	n/a	n/a	n/a	n/a	2	[-999 -999 -999]	-999	pyFR	0	TJ071
318.208	21.903	432977	PROB	n/a	n/a	n/a	n/a	2	[8 7 8]	23	pyFR	0	TJ071
340.111	1.178	454880	STOP	n/a	n/a	n/a	n/a	2	[-999 -999 -999]	-999	pyFR	0	TJ071
341.289	45.0	456058	REC_START	n/a	n/a	n/a	-999	2	n/a	n/a	pyFR	0	TJ071
386.289	14.771	501057	REC_WORD_VV	14.771	n/a	<>	-999	2	n/a	n/a	pyFR	0	TJ071
401.06	0.016	515828	TRIAL	n/a	n/a	n/a	-999	3	n/a	n/a	pyFR	0	TJ071
401.076	2.705	515844	ORIENT	n/a	n/a	n/a	-999	3	n/a	n/a	pyFR	0	TJ071
403.781	2.639	518549	WORD	n/a	wordpools/wordpool_EN.txt	FARM	1	3	n/a	n/a	pyFR	0	TJ071
406.42	2.689	521188	WORD	n/a	wordpools/wordpool_EN.txt	STAIR	2	3	n/a	n/a	pyFR	0	TJ071
409.109	2.588	523877	WORD	n/a	wordpools/wordpool_EN.txt	TIE	3	3	n/a	n/a	pyFR	0	TJ071
411.697	2.489	526465	WORD	n/a	wordpools/wordpool_EN.txt	ZOO	4	3	n/a	n/a	pyFR	0	TJ071
414.186	2.555	528954	WORD	n/a	wordpools/wordpool_EN.txt	HAND	5	3	n/a	n/a	pyFR	0	TJ071
416.741	2.472	531509	WORD	n/a	wordpools/wordpool_EN.txt	MOUTH	6	3	n/a	n/a	pyFR	0	TJ071
419.213	2.454	533981	WORD	n/a	wordpools/wordpool_EN.txt	JET	7	3	n/a	n/a	pyFR	0	TJ071
421.667	2.657	536435	WORD	n/a	wordpools/wordpool_EN.txt	PEARL	8	3	n/a	n/a	pyFR	0	TJ071
424.324	2.571	539092	WORD	n/a	wordpools/wordpool_EN.txt	PRINCE	9	3	n/a	n/a	pyFR	0	TJ071
426.895	2.672	541663	WORD	n/a	wordpools/wordpool_EN.txt	DUCK	10	3	n/a	n/a	pyFR	0	TJ071
429.567	2.489	544335	WORD	n/a	wordpools/wordpool_EN.txt	PEN	11	3	n/a	n/a	pyFR	0	TJ071
432.056	2.721	546824	WORD	n/a	wordpools/wordpool_EN.txt	PEAR	12	3	n/a	n/a	pyFR	0	TJ071
434.777	2.44	549545	WORD	n/a	wordpools/wordpool_EN.txt	BANK	13	3	n/a	n/a	pyFR	0	TJ071
437.217	2.57	551985	WORD	n/a	wordpools/wordpool_EN.txt	MAP	14	3	n/a	n/a	pyFR	0	TJ071
439.787	1.605	554555	WORD	n/a	wordpools/wordpool_EN.txt	FLOOR	15	3	n/a	n/a	pyFR	0	TJ071
441.392	1.101	556160	START	n/a	n/a	n/a	n/a	3	[-999 -999 -999]	-999	pyFR	0	TJ071
442.493	5.646	557261	PROB	n/a	n/a	n/a	n/a	3	[1 5 1]	7	pyFR	0	TJ071
448.139	7.932	562907	PROB	n/a	n/a	n/a	n/a	3	[5 7 7]	19	pyFR	0	TJ071
456.071	4.293	570839	PROB	n/a	n/a	n/a	n/a	3	[1 2 4]	7	pyFR	0	TJ071
460.364	9.467	575131	PROB	n/a	n/a	n/a	n/a	3	[6 2 3]	11	pyFR	0	TJ071
469.831	1.037	584598	STOP	n/a	n/a	n/a	n/a	3	[-999 -999 -999]	-999	pyFR	0	TJ071
470.868	5.003	585635	REC_START	n/a	n/a	n/a	-999	3	n/a	n/a	pyFR	0	TJ071
475.871	1.829	590638	REC_WORD	1.829	n/a	HOUSE	-999	3	n/a	n/a	pyFR	0	TJ071
477.7	2.029	592467	REC_WORD	2.029	n/a	PATH	-999	3	n/a	n/a	pyFR	0	TJ071
479.729	8.094	594496	REC_WORD	8.094	n/a	ZOO	-999	3	n/a	n/a	pyFR	0	TJ071
487.823	35.902	602590	REC_WORD	35.902	n/a	JET	-999	3	n/a	n/a	pyFR	0	TJ071
523.725	0.017	638492	TRIAL	n/a	n/a	n/a	-999	4	n/a	n/a	pyFR	0	TJ071
523.742	2.822	638509	ORIENT	n/a	n/a	n/a	-999	4	n/a	n/a	pyFR	0	TJ071
526.564	2.773	641331	WORD	n/a	wordpools/wordpool_EN.txt	BELL	1	4	n/a	n/a	pyFR	0	TJ071
529.337	2.656	644104	WORD	n/a	wordpools/wordpool_EN.txt	STEAM	2	4	n/a	n/a	pyFR	0	TJ071
531.993	2.671	646760	WORD	n/a	wordpools/wordpool_EN.txt	SEAT	3	4	n/a	n/a	pyFR	0	TJ071
534.664	2.589	649431	WORD	n/a	wordpools/wordpool_EN.txt	CLOWN	4	4	n/a	n/a	pyFR	0	TJ071
537.253	2.471	652020	WORD	n/a	wordpools/wordpool_EN.txt	TOOL	5	4	n/a	n/a	pyFR	0	TJ071
539.724	2.722	654491	WORD	n/a	wordpools/wordpool_EN.txt	DIME	6	4	n/a	n/a	pyFR	0	TJ071
542.446	2.54	657212	WORD	n/a	wordpools/wordpool_EN.txt	VEST	7	4	n/a	n/a	pyFR	0	TJ071
544.986	2.688	659752	WORD	n/a	wordpools/wordpool_EN.txt	CHEEK	8	4	n/a	n/a	pyFR	0	TJ071
547.674	2.472	662440	WORD	n/a	wordpools/wordpool_EN.txt	MAZE	9	4	n/a	n/a	pyFR	0	TJ071
550.146	2.755	664912	WORD	n/a	wordpools/wordpool_EN.txt	BRICK	10	4	n/a	n/a	pyFR	0	TJ071
552.901	2.789	667667	WORD	n/a	wordpools/wordpool_EN.txt	PANTS	11	4	n/a	n/a	pyFR	0	TJ071
555.69	2.639	670456	WORD	n/a	wordpools/wordpool_EN.txt	ROSE	12	4	n/a	n/a	pyFR	0	TJ071
558.329	2.571	673095	WORD	n/a	wordpools/wordpool_EN.txt	CAVE	13	4	n/a	n/a	pyFR	0	TJ071
560.9	2.423	675666	WORD	n/a	wordpools/wordpool_EN.txt	RAKE	14	4	n/a	n/a	pyFR	0	TJ071
563.323	1.604	678089	WORD	n/a	wordpools/wordpool_EN.txt	SNOW	15	4	n/a	n/a	pyFR	0	TJ071
564.927	0.95	679693	START	n/a	n/a	n/a	n/a	4	[-999 -999 -999]	-999	pyFR	0	TJ071
565.877	8.0	680643	PROB	n/a	n/a	n/a	n/a	4	[6 7 5]	18	pyFR	0	TJ071
573.877	5.128	688643	PROB	n/a	n/a	n/a	n/a	4	[5 4 5]	14	pyFR	0	TJ071
579.005	19.865	693771	PROB	n/a	n/a	n/a	n/a	4	[5 9 6]	20	pyFR	0	TJ071
598.87	1.145	713636	STOP	n/a	n/a	n/a	n/a	4	[-999 -999 -999]	-999	pyFR	0	TJ071
600.015	5.001	714781	REC_START	n/a	n/a	n/a	-999	4	n/a	n/a	pyFR	0	TJ071
605.016	6.868	719782	REC_WORD	6.868	n/a	ZOO	-999	4	n/a	n/a	pyFR	0	TJ071
611.884	5.894	726650	REC_WORD	5.894	n/a	RAKE	-999	4	n/a	n/a	pyFR	0	TJ071
617.778	7.297	732544	REC_WORD	7.297	n/a	SNOW	-999	4	n/a	n/a	pyFR	0	TJ071
625.075	7.016	739840	REC_WORD	7.016	n/a	PLANE	-999	4	n/a	n/a	pyFR	0	TJ071
632.091	9.299	746856	REC_WORD	9.299	n/a	HOUSE	-999	4	n/a	n/a	pyFR	0	TJ071
641.39	12.033	756155	REC_WORD	12.033	n/a	PIE	-999	4	n/a	n/a	pyFR	0	TJ071
653.423	0.016	768188	TRIAL	n/a	n/a	n/a	-999	5	n/a	n/a	pyFR	0	TJ071
653.439	2.673	768204	ORIENT	n/a	n/a	n/a	-999	5	n/a	n/a	pyFR	0	TJ071
656.112	2.754	770877	WORD	n/a	wordpools/wordpool_EN.txt	BOAT	1	5	n/a	n/a	pyFR	0	TJ071
658.866	2.622	773631	WORD	n/a	wordpools/wordpool_EN.txt	WHALE	2	5	n/a	n/a	pyFR	0	TJ071
661.488	2.422	776253	WORD	n/a	wordpools/wordpool_EN.txt	CHIEF	3	5	n/a	n/a	pyFR	0	TJ071
663.91	2.488	778675	WORD	n/a	wordpools/wordpool_EN.txt	BRUSH	4	5	n/a	n/a	pyFR	0	TJ071
666.398	2.723	781163	WORD	n/a	wordpools/wordpool_EN.txt	POND	5	5	n/a	n/a	pyFR	0	TJ071
669.121	2.738	783886	WORD	n/a	wordpools/wordpool_EN.txt	HOOF	6	5	n/a	n/a	pyFR	0	TJ071
671.859	2.689	786624	WORD	n/a	wordpools/wordpool_EN.txt	EEL	7	5	n/a	n/a	pyFR	0	TJ071
674.548	2.49	789313	WORD	n/a	wordpools/wordpool_EN.txt	JEEP	8	5	n/a	n/a	pyFR	0	TJ071
677.038	2.52	791803	WORD	n/a	wordpools/wordpool_EN.txt	FENCE	9	5	n/a	n/a	pyFR	0	TJ071
679.558	2.557	794323	WORD	n/a	wordpools/wordpool_EN.txt	CLAY	10	5	n/a	n/a	pyFR	0	TJ071
682.115	2.504	796880	WORD	n/a	wordpools/wordpool_EN.txt	MILK	11	5	n/a	n/a	pyFR	0	TJ071
684.619	2.756	799384	WORD	n/a	wordpools/wordpool_EN.txt	TREE	12	5	n/a	n/a	pyFR	0	TJ071
687.375	2.488	802140	WORD	n/a	wordpools/wordpool_EN.txt	SOUP	13	5	n/a	n/a	pyFR	0	TJ071
689.863	2.439	804628	WORD	n/a	wordpools/wordpool_EN.txt	CROW	14	5	n/a	n/a	pyFR	0	TJ071
692.302	1.604	807067	WORD	n/a	wordpools/wordpool_EN.txt	PIT	15	5	n/a	n/a	pyFR	0	TJ071
693.906	0.917	808671	START	n/a	n/a	n/a	n/a	5	[-999 -999 -999]	-999	pyFR	0	TJ071
694.823	11.924	809588	PROB	n/a	n/a	n/a	n/a	5	[6 3 4]	13	pyFR	0	TJ071
706.747	8.651	821512	PROB	n/a	n/a	n/a	n/a	5	[6 3 4]	13	pyFR	0	TJ071
715.398	1.17	830162	STOP	n/a	n/a	n/a	n/a	5	[-999 -999 -999]	-999	pyFR	0	TJ071
716.568	45.0	831332	REC_START	n/a	n/a	n/a	-999	5	n/a	n/a	pyFR	0	TJ071
761.568	5.085	876332	REC_WORD_VV	5.085	n/a	<>	-999	5	n/a	n/a	pyFR	0	TJ071
766.653	0.016	881417	TRIAL	n/a	n/a	n/a	-999	6	n/a	n/a	pyFR	0	TJ071
766.669	2.623	881433	ORIENT	n/a	n/a	n/a	-999	6	n/a	n/a	pyFR	0	TJ071
769.292	2.487	884056	WORD	n/a	wordpools/wordpool_EN.txt	PIG	1	6	n/a	n/a	pyFR	0	TJ071
771.779	2.689	886543	WORD	n/a	wordpools/wordpool_EN.txt	OAR	2	6	n/a	n/a	pyFR	0	TJ071
774.468	2.54	889232	WORD	n/a	wordpools/wordpool_EN.txt	VAN	3	6	n/a	n/a	pyFR	0	TJ071
777.008	2.571	891772	WORD	n/a	wordpools/wordpool_EN.txt	BLUSH	4	6	n/a	n/a	pyFR	0	TJ071
779.579	2.572	894343	WORD	n/a	wordpools/wordpool_EN.txt	WORLD	5	6	n/a	n/a	pyFR	0	TJ071
782.151	2.538	896915	WORD	n/a	wordpools/wordpool_EN.txt	WING	6	6	n/a	n/a	pyFR	0	TJ071
784.689	2.673	899453	WORD	n/a	wordpools/wordpool_EN.txt	SQUARE	7	6	n/a	n/a	pyFR	0	TJ071
787.362	2.806	902126	WORD	n/a	wordpools/wordpool_EN.txt	BOY	8	6	n/a	n/a	pyFR	0	TJ071
790.168	2.738	904932	WORD	n/a	wordpools/wordpool_EN.txt	FACE	9	6	n/a	n/a	pyFR	0	TJ071
792.906	2.739	907669	WORD	n/a	wordpools/wordpool_EN.txt	WOLF	10	6	n/a	n/a	pyFR	0	TJ071
795.645	2.455	910408	WORD	n/a	wordpools/wordpool_EN.txt	SHARK	11	6	n/a	n/a	pyFR	0	TJ071
798.1	2.571	912863	WORD	n/a	wordpools/wordpool_EN.txt	GEESE	12	6	n/a	n/a	pyFR	0	TJ071
800.671	2.44	915434	WORD	n/a	wordpools/wordpool_EN.txt	BALL	13	6	n/a	n/a	pyFR	0	TJ071
803.111	2.788	917874	WORD	n/a	wordpools/wordpool_EN.txt	CASH	14	6	n/a	n/a	pyFR	0	TJ071
805.899	1.604	920662	WORD	n/a	wordpools/wordpool_EN.txt	HORN	15	6	n/a	n/a	pyFR	0	TJ071
807.503	0.917	922266	START	n/a	n/a	n/a	n/a	6	[-999 -999 -999]	-999	pyFR	0	TJ071
808.42	19.394	923183	PROB	n/a	n/a	n/a	n/a	6	[7 9 9]	25	pyFR	0	TJ071
827.814	1.099	942577	STOP	n/a	n/a	n/a	n/a	6	[-999 -999 -999]	-999	pyFR	0	TJ071
828.913	4.689	943676	REC_START	n/a	n/a	n/a	-999	6	n/a	n/a	pyFR	0	TJ071
833.602	1.68	948365	REC_WORD	1.68	n/a	PIG	-999	6	n/a	n/a	pyFR	0	TJ071
835.282	2.082	950045	REC_WORD	2.082	n/a	HOUSE	-999	6	n/a	n/a	pyFR	0	TJ071
837.364	2.341	952127	REC_WORD	2.341	n/a	SHARK	-999	6	n/a	n/a	pyFR	0	TJ071
839.705	6.329	954468	REC_WORD	6.329	n/a	BOAT	-999	6	n/a	n/a	pyFR	0	TJ071
846.034	9.973	960797	REC_WORD	9.973	n/a	VAN	-999	6	n/a	n/a	pyFR	0	TJ071
856.007	4.082	970770	REC_WORD	4.082	n/a	BOY	-999	6	n/a	n/a	pyFR	0	TJ071
860.089	8.453	974852	REC_WORD	8.453	n/a	FACE	-999	6	n/a	n/a	pyFR	0	TJ071
868.542	11.976	983305	REC_WORD	11.976	n/a	ZOO	-999	6	n/a	n/a	pyFR	0	TJ071
880.518	0.016	995280	TRIAL	n/a	n/a	n/a	-999	7	n/a	n/a	pyFR	0	TJ071
880.534	2.872	995296	ORIENT	n/a	n/a	n/a	-999	7	n/a	n/a	pyFR	0	TJ071
883.406	2.54	998168	WORD	n/a	wordpools/wordpool_EN.txt	MAIL	1	7	n/a	n/a	pyFR	0	TJ071
885.946	2.654	1000708	WORD	n/a	wordpools/wordpool_EN.txt	CHALK	2	7	n/a	n/a	pyFR	0	TJ071
888.6	2.673	1003362	WORD	n/a	wordpools/wordpool_EN.txt	SKUNK	3	7	n/a	n/a	pyFR	0	TJ071
891.273	2.756	1006035	WORD	n/a	wordpools/wordpool_EN.txt	DRESS	4	7	n/a	n/a	pyFR	0	TJ071
894.029	2.788	1008791	WORD	n/a	wordpools/wordpool_EN.txt	SHIRT	5	7	n/a	n/a	pyFR	0	TJ071
896.817	2.422	1011579	WORD	n/a	wordpools/wordpool_EN.txt	BOX	6	7	n/a	n/a	pyFR	0	TJ071
899.239	2.488	1014001	WORD	n/a	wordpools/wordpool_EN.txt	SALT	7	7	n/a	n/a	pyFR	0	TJ071
901.727	2.772	1016489	WORD	n/a	wordpools/wordpool_EN.txt	ROPE	8	7	n/a	n/a	pyFR	0	TJ071
904.499	2.807	1019261	WORD	n/a	wordpools/wordpool_EN.txt	BRANCH	9	7	n/a	n/a	pyFR	0	TJ071
907.306	2.421	1022068	WORD	n/a	wordpools/wordpool_EN.txt	TOY	10	7	n/a	n/a	pyFR	0	TJ071
909.727	2.789	1024489	WORD	n/a	wordpools/wordpool_EN.txt	POOL	11	7	n/a	n/a	pyFR	0	TJ071
912.516	2.79	1027278	WORD	n/a	wordpools/wordpool_EN.txt	CUP	12	7	n/a	n/a	pyFR	0	TJ071
915.306	2.42	1030068	WORD	n/a	wordpools/wordpool_EN.txt	CAR	13	7	n/a	n/a	pyFR	0	TJ071
917.726	2.623	1032488	WORD	n/a	wordpools/wordpool_EN.txt	VINE	14	7	n/a	n/a	pyFR	0	TJ071
920.349	1.605	1035111	WORD	n/a	wordpools/wordpool_EN.txt	BAND	15	7	n/a	n/a	pyFR	0	TJ071
921.954	0.984	1036716	START	n/a	n/a	n/a	n/a	7	[-999 -999 -999]	-999	pyFR	0	TJ071
922.938	5.994	1037700	PROB	n/a	n/a	n/a	n/a	7	[9 9 1]	19	pyFR	0	TJ071
928.932	7.049	1043694	PROB	n/a	n/a	n/a	n/a	7	[8 9 1]	18	pyFR	0	TJ071
935.981	6.689	1050743	PROB	n/a	n/a	n/a	n/a	7	[8 6 6]	20	pyFR	0	TJ071
942.67	1.127	1057432	STOP	n/a	n/a	n/a	n/a	7	[-999 -999 -999]	-999	pyFR	0	TJ071
943.797	13.16	1058559	REC_START	n/a	n/a	n/a	-999	7	n/a	n/a	pyFR	0	TJ071
956.957	36.224	1071719	REC_WORD	36.224	n/a	BRANCH	-999	7	n/a	n/a	pyFR	0	TJ071
993.181	0.016	1107942	TRIAL	n/a	n/a	n/a	-999	8	n/a	n/a	pyFR	0	TJ071
993.197	2.739	1107958	ORIENT	n/a	n/a	n/a	-999	8	n/a	n/a	pyFR	0	TJ071
995.936	2.722	1110697	WORD	n/a	wordpools/wordpool_EN.txt	PEACH	1	8	n/a	n/a	pyFR	0	TJ071
998.658	2.539	1113419	WORD	n/a	wordpools/wordpool_EN.txt	JUDGE	2	8	n/a	n/a	pyFR	0	TJ071
1001.197	2.739	1115958	WORD	n/a	wordpools/wordpool_EN.txt	RUG	3	8	n/a	n/a	pyFR	0	TJ071
1003.936	2.487	1118697	WORD	n/a	wordpools/wordpool_EN.txt	GIRL	4	8	n/a	n/a	pyFR	0	TJ071
1006.423	2.64	1121184	WORD	n/a	wordpools/wordpool_EN.txt	DRUM	5	8	n/a	n/a	pyFR	0	TJ071
1009.063	2.604	1123824	WORD	n/a	wordpools/wordpool_EN.txt	SHIELD	6	8	n/a	n/a	pyFR	0	TJ071
1011.667	2.44	1126428	WORD	n/a	wordpools/wordpool_EN.txt	JAIL	7	8	n/a	n/a	pyFR	0	TJ071
1014.107	2.487	1128868	WORD	n/a	wordpools/wordpool_EN.txt	BLOOM	8	8	n/a	n/a	pyFR	0	TJ071
1016.594	2.556	1131355	WORD	n/a	wordpools/wordpool_EN.txt	HEART	9	8	n/a	n/a	pyFR	0	TJ071
1019.15	2.655	1133911	WORD	n/a	wordpools/wordpool_EN.txt	SCHOOL	10	8	n/a	n/a	pyFR	0	TJ071
1021.805	2.705	1136566	WORD	n/a	wordpools/wordpool_EN.txt	PIN	11	8	n/a	n/a	pyFR	0	TJ071
1024.51	2.69	1139271	WORD	n/a	wordpools/wordpool_EN.txt	CAGE	12	8	n/a	n/a	pyFR	0	TJ071
1027.2	2.789	1141961	WORD	n/a	wordpools/wordpool_EN.txt	DOG	13	8	n/a	n/a	pyFR	0	TJ071
1029.989	2.471	1144750	WORD	n/a	wordpools/wordpool_EN.txt	PASTE	14	8	n/a	n/a	pyFR	0	TJ071
1032.46	1.605	1147221	WORD	n/a	wordpools/wordpool_EN.txt	WEED	15	8	n/a	n/a	pyFR	0	TJ071
1034.065	1.018	1148826	START	n/a	n/a	n/a	n/a	8	[-999 -999 -999]	-999	pyFR	0	TJ071
1035.083	5.962	1149844	PROB	n/a	n/a	n/a	n/a	8	[2 1 3]	6	pyFR	0	TJ071
1041.045	4.641	1155806	PROB	n/a	n/a	n/a	n/a	8	[6 1 1]	8	pyFR	0	TJ071
1045.686	4.26	1160446	PROB	n/a	n/a	n/a	n/a	8	[3 3 7]	13	pyFR	0	TJ071
1049.946	13.692	1164706	PROB	n/a	n/a	n/a	n/a	8	[1 6 8]	15	pyFR	0	TJ071
1063.638	1.222	1178398	STOP	n/a	n/a	n/a	n/a	8	[-999 -999 -999]	-999	pyFR	0	TJ071
1064.86	7.543	1179620	REC_START	n/a	n/a	n/a	-999	8	n/a	n/a	pyFR	0	TJ071
1072.403	1.559	1187163	REC_WORD	1.559	n/a	GIRL	-999	8	n/a	n/a	pyFR	0	TJ071
1073.962	2.402	1188722	REC_WORD	2.402	n/a	MAGNET	-999	8	n/a	n/a	pyFR	0	TJ071
1076.364	1.463	1191124	REC_WORD	1.463	n/a	HOUSE	-999	8	n/a	n/a	pyFR	0	TJ071
1077.827	2.016	1192587	REC_WORD	2.016	n/a	SCHOOL	-999	8	n/a	n/a	pyFR	0	TJ071
1079.843	6.692	1194603	REC_WORD	6.692	n/a	SKUNK	-999	8	n/a	n/a	pyFR	0	TJ071
1086.535	28.109	1201295	REC_WORD	28.109	n/a	TEA	-999	8	n/a	n/a	pyFR	0	TJ071
1114.644	0.016	1229404	TRIAL	n/a	n/a	n/a	-999	9	n/a	n/a	pyFR	0	TJ071
1114.66	2.772	1229420	ORIENT	n/a	n/a	n/a	-999	9	n/a	n/a	pyFR	0	TJ071
1117.432	2.607	1232192	WORD	n/a	wordpools/wordpool_EN.txt	SPRING	1	9	n/a	n/a	pyFR	0	TJ071
1120.039	2.487	1234799	WORD	n/a	wordpools/wordpool_EN.txt	DART	2	9	n/a	n/a	pyFR	0	TJ071
1122.526	2.456	1237286	WORD	n/a	wordpools/wordpool_EN.txt	HOOK	3	9	n/a	n/a	pyFR	0	TJ071
1124.982	2.588	1239742	WORD	n/a	wordpools/wordpool_EN.txt	ANT	4	9	n/a	n/a	pyFR	0	TJ071
1127.57	2.723	1242329	WORD	n/a	wordpools/wordpool_EN.txt	PLANT	5	9	n/a	n/a	pyFR	0	TJ071
1130.293	2.471	1245052	WORD	n/a	wordpools/wordpool_EN.txt	GRAPE	6	9	n/a	n/a	pyFR	0	TJ071
1132.764	2.489	1247523	WORD	n/a	wordpools/wordpool_EN.txt	JUICE	7	9	n/a	n/a	pyFR	0	TJ071
1135.253	2.421	1250012	WORD	n/a	wordpools/wordpool_EN.txt	MULE	8	9	n/a	n/a	pyFR	0	TJ071
1137.674	2.506	1252433	WORD	n/a	wordpools/wordpool_EN.txt	BEE	9	9	n/a	n/a	pyFR	0	TJ071
1140.18	2.687	1254939	WORD	n/a	wordpools/wordpool_EN.txt	INK	10	9	n/a	n/a	pyFR	0	TJ071
1142.867	2.473	1257626	WORD	n/a	wordpools/wordpool_EN.txt	LAKE	11	9	n/a	n/a	pyFR	0	TJ071
1145.34	2.689	1260099	WORD	n/a	wordpools/wordpool_EN.txt	SWAMP	12	9	n/a	n/a	pyFR	0	TJ071
1148.029	2.504	1262788	WORD	n/a	wordpools/wordpool_EN.txt	GATE	13	9	n/a	n/a	pyFR	0	TJ071
1150.533	2.807	1265292	WORD	n/a	wordpools/wordpool_EN.txt	ROOF	14	9	n/a	n/a	pyFR	0	TJ071
1153.34	1.604	1268099	WORD	n/a	wordpools/wordpool_EN.txt	HORSE	15	9	n/a	n/a	pyFR	0	TJ071
1154.944	1.035	1269703	START	n/a	n/a	n/a	n/a	9	[-999 -999 -999]	-999	pyFR	0	TJ071
1155.979	9.952	1270738	PROB	n/a	n/a	n/a	n/a	9	[9 5 4]	18	pyFR	0	TJ071
1165.931	8.618	1280690	PROB	n/a	n/a	n/a	n/a	9	[9 2 4]	15	pyFR	0	TJ071
1174.549	4.73	1289308	PROB	n/a	n/a	n/a	n/a	9	[5 2 1]	8	pyFR	0	TJ071
1179.279	1.083	1294038	STOP	n/a	n/a	n/a	n/a	9	[-999 -999 -999]	-999	pyFR	0	TJ071
1180.362	44.997	1295121	REC_START	n/a	n/a	n/a	-999	9	n/a	n/a	pyFR	0	TJ071
1225.359	10.967	1340117	REC_WORD_VV	10.967	n/a	<>	-999	9	n/a	n/a	pyFR	0	TJ071
1236.326	0.016	1351084	TRIAL	n/a	n/a	n/a	-999	10	n/a	n/a	pyFR	0	TJ071
1236.342	2.756	1351100	ORIENT	n/a	n/a	n/a	-999	10	n/a	n/a	pyFR	0	TJ071
1239.098	2.721	1353856	WORD	n/a	wordpools/wordpool_EN.txt	MOOSE	1	10	n/a	n/a	pyFR	0	TJ071
1241.819	2.523	1356577	WORD	n/a	wordpools/wordpool_EN.txt	WORM	2	10	n/a	n/a	pyFR	0	TJ071
1244.342	2.487	1359100	WORD	n/a	wordpools/wordpool_EN.txt	FOOD	3	10	n/a	n/a	pyFR	0	TJ071
1246.829	2.722	1361587	WORD	n/a	wordpools/wordpool_EN.txt	PARK	4	10	n/a	n/a	pyFR	0	TJ071
1249.551	2.573	1364309	WORD	n/a	wordpools/wordpool_EN.txt	KITE	5	10	n/a	n/a	pyFR	0	TJ071
1252.124	2.638	1366882	WORD	n/a	wordpools/wordpool_EN.txt	CONE	6	10	n/a	n/a	pyFR	0	TJ071
1254.762	2.655	1369520	WORD	n/a	wordpools/wordpool_EN.txt	FOX	7	10	n/a	n/a	pyFR	0	TJ071
1257.417	2.505	1372175	WORD	n/a	wordpools/wordpool_EN.txt	BUSH	8	10	n/a	n/a	pyFR	0	TJ071
1259.922	2.672	1374680	WORD	n/a	wordpools/wordpool_EN.txt	MOLE	9	10	n/a	n/a	pyFR	0	TJ071
1262.594	2.64	1377352	WORD	n/a	wordpools/wordpool_EN.txt	KEY	10	10	n/a	n/a	pyFR	0	TJ071
1265.234	2.604	1379992	WORD	n/a	wordpools/wordpool_EN.txt	TOOTH	11	10	n/a	n/a	pyFR	0	TJ071
1267.838	2.456	1382596	WORD	n/a	wordpools/wordpool_EN.txt	STRAW	12	10	n/a	n/a	pyFR	0	TJ071
1270.294	2.806	1385052	WORD	n/a	wordpools/wordpool_EN.txt	CORD	13	10	n/a	n/a	pyFR	0	TJ071
1273.1	2.421	1387858	WORD	n/a	wordpools/wordpool_EN.txt	HAT	14	10	n/a	n/a	pyFR	0	TJ071
1275.521	1.605	1390279	WORD	n/a	wordpools/wordpool_EN.txt	ICE	15	10	n/a	n/a	pyFR	0	TJ071
1277.126	1.018	1391884	START	n/a	n/a	n/a	n/a	10	[-999 -999 -999]	-999	pyFR	0	TJ071
1278.144	7.983	1392902	PROB	n/a	n/a	n/a	n/a	10	[7 4 1]	12	pyFR	0	TJ071
1286.127	6.796	1400885	PROB	n/a	n/a	n/a	n/a	10	[1 9 8]	18	pyFR	0	TJ071
1292.923	6.683	1407681	PROB	n/a	n/a	n/a	n/a	10	[4 6 4]	14	pyFR	0	TJ071
1299.606	1.2	1414363	STOP	n/a	n/a	n/a	n/a	10	[-999 -999 -999]	-999	pyFR	0	TJ071
1300.806	10.053	1415563	REC_START	n/a	n/a	n/a	-999	10	n/a	n/a	pyFR	0	TJ071
1310.859	40.467	1425616	REC_WORD	40.467	n/a	MOOSE	-999	10	n/a	n/a	pyFR	0	TJ071
1351.326	0.017	1466083	TRIAL	n/a	n/a	n/a	-999	11	n/a	n/a	pyFR	0	TJ071
1351.343	2.722	1466100	ORIENT	n/a	n/a	n/a	-999	11	n/a	n/a	pyFR	0	TJ071
1354.065	2.487	1468822	WORD	n/a	wordpools/wordpool_EN.txt	BIRD	1	11	n/a	n/a	pyFR	0	TJ071
1356.552	2.657	1471309	WORD	n/a	wordpools/wordpool_EN.txt	STORM	2	11	n/a	n/a	pyFR	0	TJ071
1359.209	2.42	1473966	WORD	n/a	wordpools/wordpool_EN.txt	BED	3	11	n/a	n/a	pyFR	0	TJ071
1361.629	2.573	1476386	WORD	n/a	wordpools/wordpool_EN.txt	LOCK	4	11	n/a	n/a	pyFR	0	TJ071
1364.202	2.688	1478959	WORD	n/a	wordpools/wordpool_EN.txt	HEN	5	11	n/a	n/a	pyFR	0	TJ071
1366.89	2.622	1481647	WORD	n/a	wordpools/wordpool_EN.txt	GOAT	6	11	n/a	n/a	pyFR	0	TJ071
1369.512	2.74	1484269	WORD	n/a	wordpools/wordpool_EN.txt	BAG	7	11	n/a	n/a	pyFR	0	TJ071
1372.252	2.42	1487009	WORD	n/a	wordpools/wordpool_EN.txt	BOARD	8	11	n/a	n/a	pyFR	0	TJ071
1374.672	2.573	1489429	WORD	n/a	wordpools/wordpool_EN.txt	PEA	9	11	n/a	n/a	pyFR	0	TJ071
1377.245	2.471	1492002	WORD	n/a	wordpools/wordpool_EN.txt	PLATE	10	11	n/a	n/a	pyFR	0	TJ071
1379.716	2.739	1494472	WORD	n/a	wordpools/wordpool_EN.txt	TAIL	11	11	n/a	n/a	pyFR	0	TJ071
1382.455	2.673	1497211	WORD	n/a	wordpools/wordpool_EN.txt	HOSE	12	11	n/a	n/a	pyFR	0	TJ071
1385.128	2.454	1499884	WORD	n/a	wordpools/wordpool_EN.txt	SLEEVE	13	11	n/a	n/a	pyFR	0	TJ071
1387.582	2.69	1502338	WORD	n/a	wordpools/wordpool_EN.txt	STRING	14	11	n/a	n/a	pyFR	0	TJ071
1390.272	1.603	1505028	WORD	n/a	wordpools/wordpool_EN.txt	FORT	15	11	n/a	n/a	pyFR	0	TJ071
1391.875	0.968	1506631	START	n/a	n/a	n/a	n/a	11	[-999 -999 -999]	-999	pyFR	0	TJ071
1392.843	14.947	1507599	PROB	n/a	n/a	n/a	n/a	11	[3 2 9]	14	pyFR	0	TJ071
1407.79	5.465	1522546	PROB	n/a	n/a	n/a	n/a	11	[5 3 1]	8	pyFR	0	TJ071
1413.255	1.066	1528011	STOP	n/a	n/a	n/a	n/a	11	[-999 -999 -999]	-999	pyFR	0	TJ071
1414.321	44.994	1529077	REC_START	n/a	n/a	n/a	-999	11	n/a	n/a	pyFR	0	TJ071
1459.315	4.356	1574071	REC_WORD_VV	4.356	n/a	<>	-999	11	n/a	n/a	pyFR	0	TJ071
1463.671	0.016	1578426	TRIAL	n/a	n/a	n/a	-999	12	n/a	n/a	pyFR	0	TJ071
1463.687	2.64	1578442	ORIENT	n/a	n/a	n/a	-999	12	n/a	n/a	pyFR	0	TJ071
1466.327	2.638	1581082	WORD	n/a	wordpools/wordpool_EN.txt	ROAD	1	12	n/a	n/a	pyFR	0	TJ071
1468.965	2.604	1583720	WORD	n/a	wordpools/wordpool_EN.txt	DEER	2	12	n/a	n/a	pyFR	0	TJ071
1471.569	2.473	1586324	WORD	n/a	wordpools/wordpool_EN.txt	STORE	3	12	n/a	n/a	pyFR	0	TJ071
1474.042	2.454	1588797	WORD	n/a	wordpools/wordpool_EN.txt	SWORD	4	12	n/a	n/a	pyFR	0	TJ071
1476.496	2.757	1591251	WORD	n/a	wordpools/wordpool_EN.txt	HOLE	5	12	n/a	n/a	pyFR	0	TJ071
1479.253	2.654	1594008	WORD	n/a	wordpools/wordpool_EN.txt	KING	6	12	n/a	n/a	pyFR	0	TJ071
1481.907	2.672	1596662	WORD	n/a	wordpools/wordpool_EN.txt	RIB	7	12	n/a	n/a	pyFR	0	TJ071
1484.579	2.657	1599334	WORD	n/a	wordpools/wordpool_EN.txt	POLE	8	12	n/a	n/a	pyFR	0	TJ071
1487.236	2.621	1601991	WORD	n/a	wordpools/wordpool_EN.txt	GOLD	9	12	n/a	n/a	pyFR	0	TJ071
1489.857	2.689	1604612	WORD	n/a	wordpools/wordpool_EN.txt	CLOTH	10	12	n/a	n/a	pyFR	0	TJ071
1492.546	2.506	1607301	WORD	n/a	wordpools/wordpool_EN.txt	FLAME	11	12	n/a	n/a	pyFR	0	TJ071
1495.052	2.621	1609807	WORD	n/a	wordpools/wordpool_EN.txt	WEB	12	12	n/a	n/a	pyFR	0	TJ071
1497.673	2.722	1612428	WORD	n/a	wordpools/wordpool_EN.txt	COAT	13	12	n/a	n/a	pyFR	0	TJ071
1500.395	2.64	1615150	WORD	n/a	wordpools/wordpool_EN.txt	PALM	14	12	n/a	n/a	pyFR	0	TJ071
1503.035	1.603	1617790	WORD	n/a	wordpools/wordpool_EN.txt	SHIP	15	12	n/a	n/a	pyFR	0	TJ071
1504.638	1.134	1619393	START	n/a	n/a	n/a	n/a	12	[-999 -999 -999]	-999	pyFR	0	TJ071
1505.772	10.306	1620527	PROB	n/a	n/a	n/a	n/a	12	[4 4 7]	15	pyFR	0	TJ071
1516.078	10.664	1630833	PROB	n/a	n/a	n/a	n/a	12	[6 3 6]	15	pyFR	0	TJ071
1526.742	1.159	1641497	STOP	n/a	n/a	n/a	n/a	12	[-999 -999 -999]	-999	pyFR	0	TJ071
1527.901	4.291	1642656	REC_START	n/a	n/a	n/a	-999	12	n/a	n/a	pyFR	0	TJ071
1532.192	45.044	1646947	REC_WORD	45.044	n/a	DEER	-999	12	n/a	n/a	pyFR	0	TJ071
1577.236	0.016	1691990	TRIAL	n/a	n/a	n/a	-999	13	n/a	n/a	pyFR	0	TJ071
1577.252	2.839	1692006	ORIENT	n/a	n/a	n/a	-999	13	n/a	n/a	pyFR	0	TJ071
1580.091	2.538	1694845	WORD	n/a	wordpools/wordpool_EN.txt	BOOT	1	13	n/a	n/a	pyFR	0	TJ071
1582.629	2.456	1697383	WORD	n/a	wordpools/wordpool_EN.txt	HAWK	2	13	n/a	n/a	pyFR	0	TJ071
1585.085	2.654	1699839	WORD	n/a	wordpools/wordpool_EN.txt	NET	3	13	n/a	n/a	pyFR	0	TJ071
1587.739	2.773	1702493	WORD	n/a	wordpools/wordpool_EN.txt	DOOR	4	13	n/a	n/a	pyFR	0	TJ071
1590.512	2.572	1705266	WORD	n/a	wordpools/wordpool_EN.txt	LAND	5	13	n/a	n/a	pyFR	0	TJ071
1593.084	2.505	1707838	WORD	n/a	wordpools/wordpool_EN.txt	ELF	6	13	n/a	n/a	pyFR	0	TJ071
1595.589	2.472	1710343	WORD	n/a	wordpools/wordpool_EN.txt	BADGE	7	13	n/a	n/a	pyFR	0	TJ071
1598.061	2.772	1712815	WORD	n/a	wordpools/wordpool_EN.txt	BOOK	8	13	n/a	n/a	pyFR	0	TJ071
1600.833	2.571	1715587	WORD	n/a	wordpools/wordpool_EN.txt	ROOM	9	13	n/a	n/a	pyFR	0	TJ071
1603.404	2.489	1718158	WORD	n/a	wordpools/wordpool_EN.txt	CALF	10	13	n/a	n/a	pyFR	0	TJ071
1605.893	2.588	1720647	WORD	n/a	wordpools/wordpool_EN.txt	WHEEL	11	13	n/a	n/a	pyFR	0	TJ071
1608.481	2.523	1723235	WORD	n/a	wordpools/wordpool_EN.txt	BOWL	12	13	n/a	n/a	pyFR	0	TJ071
1611.004	2.538	1725758	WORD	n/a	wordpools/wordpool_EN.txt	FLUTE	13	13	n/a	n/a	pyFR	0	TJ071
1613.542	2.506	1728296	WORD	n/a	wordpools/wordpool_EN.txt	RICE	14	13	n/a	n/a	pyFR	0	TJ071
1616.048	1.603	1730802	WORD	n/a	wordpools/wordpool_EN.txt	LAWN	15	13	n/a	n/a	pyFR	0	TJ071
1617.651	1.168	1732405	START	n/a	n/a	n/a	n/a	13	[-999 -999 -999]	-999	pyFR	0	TJ071
1618.819	11.59	1733573	PROB	n/a	n/a	n/a	n/a	13	[7 4 6]	17	pyFR	0	TJ071
1630.409	4.561	1745162	PROB	n/a	n/a	n/a	n/a	13	[2 4 2]	8	pyFR	0	TJ071
1634.97	8.149	1749723	PROB	n/a	n/a	n/a	n/a	13	[7 6 7]	20	pyFR	0	TJ071
1643.119	1.087	1757872	STOP	n/a	n/a	n/a	n/a	13	[-999 -999 -999]	-999	pyFR	0	TJ071
1644.206	44.994	1758959	REC_START	n/a	n/a	n/a	-999	13	n/a	n/a	pyFR	0	TJ071
1689.2	79.491	1803953	REC_WORD_VV	79.491	n/a	<>	-999	13	n/a	n/a	pyFR	0	TJ071
1768.691	0.016	1883443	TRIAL	n/a	n/a	n/a	-999	14	n/a	n/a	pyFR	0	TJ071
1768.707	2.99	1883459	ORIENT	n/a	n/a	n/a	-999	14	n/a	n/a	pyFR	0	TJ071
1771.697	2.623	1886449	WORD	n/a	wordpools/wordpool_EN.txt	CLIFF	1	14	n/a	n/a	pyFR	0	TJ071
1774.32	2.722	1889072	WORD	n/a	wordpools/wordpool_EN.txt	QUEEN	2	14	n/a	n/a	pyFR	0	TJ071
1777.042	2.688	1891794	WORD	n/a	wordpools/wordpool_EN.txt	WOOD	3	14	n/a	n/a	pyFR	0	TJ071
1779.73	2.456	1894482	WORD	n/a	wordpools/wordpool_EN.txt	THUMB	4	14	n/a	n/a	pyFR	0	TJ071
1782.186	2.604	1896938	WORD	n/a	wordpools/wordpool_EN.txt	SEAL	5	14	n/a	n/a	pyFR	0	TJ071
1784.79	2.59	1899542	WORD	n/a	wordpools/wordpool_EN.txt	COW	6	14	n/a	n/a	pyFR	0	TJ071
1787.38	2.789	1902132	WORD	n/a	wordpools/wordpool_EN.txt	FUDGE	7	14	n/a	n/a	pyFR	0	TJ071
1790.169	2.738	1904921	WORD	n/a	wordpools/wordpool_EN.txt	SEED	8	14	n/a	n/a	pyFR	0	TJ071
1792.907	2.705	1907659	WORD	n/a	wordpools/wordpool_EN.txt	SHELL	9	14	n/a	n/a	pyFR	0	TJ071
1795.612	2.573	1910364	WORD	n/a	wordpools/wordpool_EN.txt	CARD	10	14	n/a	n/a	pyFR	0	TJ071
1798.185	2.638	1912936	WORD	n/a	wordpools/wordpool_EN.txt	CORN	11	14	n/a	n/a	pyFR	0	TJ071
1800.823	2.472	1915574	WORD	n/a	wordpools/wordpool_EN.txt	DAD	12	14	n/a	n/a	pyFR	0	TJ071
1803.295	2.571	1918046	WORD	n/a	wordpools/wordpool_EN.txt	SAIL	13	14	n/a	n/a	pyFR	0	TJ071
1805.866	2.539	1920617	WORD	n/a	wordpools/wordpool_EN.txt	MOUSE	14	14	n/a	n/a	pyFR	0	TJ071
1808.405	1.606	1923156	WORD	n/a	wordpools/wordpool_EN.txt	PIPE	15	14	n/a	n/a	pyFR	0	TJ071
1810.011	0.815	1924762	START	n/a	n/a	n/a	n/a	14	[-999 -999 -999]	-999	pyFR	0	TJ071
1810.826	13.495	1925577	PROB	n/a	n/a	n/a	n/a	14	[1 7 6]	14	pyFR	0	TJ071
1824.321	11.718	1939072	PROB	n/a	n/a	n/a	n/a	14	[4 5 6]	15	pyFR	0	TJ071
1836.039	1.126	1950790	STOP	n/a	n/a	n/a	n/a	14	[-999 -999 -999]	-999	pyFR	0	TJ071
1837.165	45.0	1951916	REC_START	n/a	n/a	n/a	-999	14	n/a	n/a	pyFR	0	TJ071
1882.165	4.233	1996915	REC_WORD_VV	4.233	n/a	<>	-999	14	n/a	n/a	pyFR	0	TJ071
1886.398	0.015	2001148	TRIAL	n/a	n/a	n/a	-999	15	n/a	n/a	pyFR	0	TJ071
1886.413	2.874	2001163	ORIENT	n/a	n/a	n/a	-999	15	n/a	n/a	pyFR	0	TJ071
1889.287	2.604	2004037	WORD	n/a	wordpools/wordpool_EN.txt	VASE	1	15	n/a	n/a	pyFR	0	TJ071
1891.891	2.723	2006641	WORD	n/a	wordpools/wordpool_EN.txt	SINK	2	15	n/a	n/a	pyFR	0	TJ071
1894.614	2.623	2009364	WORD	n/a	wordpools/wordpool_EN.txt	DOCK	3	15	n/a	n/a	pyFR	0	TJ071
1897.237	2.537	2011987	WORD	n/a	wordpools/wordpool_EN.txt	SKI	4	15	n/a	n/a	pyFR	0	TJ071
1899.774	2.672	2014524	WORD	n/a	wordpools/wordpool_EN.txt	TEETH	5	15	n/a	n/a	pyFR	0	TJ071
1902.446	2.472	2017196	WORD	n/a	wordpools/wordpool_EN.txt	STEM	6	15	n/a	n/a	pyFR	0	TJ071
1904.918	2.555	2019668	WORD	n/a	wordpools/wordpool_EN.txt	BOMB	7	15	n/a	n/a	pyFR	0	TJ071
1907.473	2.573	2022223	WORD	n/a	wordpools/wordpool_EN.txt	YARD	8	15	n/a	n/a	pyFR	0	TJ071
1910.046	2.654	2024796	WORD	n/a	wordpools/wordpool_EN.txt	TEA	9	15	n/a	n/a	pyFR	0	TJ071
1912.7	2.456	2027450	WORD	n/a	wordpools/wordpool_EN.txt	FRUIT	10	15	n/a	n/a	pyFR	0	TJ071
1915.156	2.454	2029906	WORD	n/a	wordpools/wordpool_EN.txt	TRASH	11	15	n/a	n/a	pyFR	0	TJ071
1917.61	2.757	2032360	WORD	n/a	wordpools/wordpool_EN.txt	TENT	12	15	n/a	n/a	pyFR	0	TJ071
1920.367	2.722	2035117	WORD	n/a	wordpools/wordpool_EN.txt	SHEEP	13	15	n/a	n/a	pyFR	0	TJ071
1923.089	2.571	2037839	WORD	n/a	wordpools/wordpool_EN.txt	CART	14	15	n/a	n/a	pyFR	0	TJ071
1925.66	1.606	2040410	WORD	n/a	wordpools/wordpool_EN.txt	SPONGE	15	15	n/a	n/a	pyFR	0	TJ071
1927.266	0.817	2042016	START	n/a	n/a	n/a	n/a	15	[-999 -999 -999]	-999	pyFR	0	TJ071
1928.083	7.164	2042833	PROB	n/a	n/a	n/a	n/a	15	[7 1 3]	11	pyFR	0	TJ071
1935.247	17.271	2049997	PROB	n/a	n/a	n/a	n/a	15	[7 9 6]	22	pyFR	0	TJ071
1952.518	1.066	2067268	STOP	n/a	n/a	n/a	n/a	15	[-999 -999 -999]	-999	pyFR	0	TJ071
1953.584	45.0	2068334	REC_START	n/a	n/a	n/a	-999	15	n/a	n/a	pyFR	0	TJ071
1998.584	6.623	2113333	REC_WORD_VV	6.623	n/a	<>	-999	15	n/a	n/a	pyFR	0	TJ071
2005.207	0.016	2119956	TRIAL	n/a	n/a	n/a	-999	16	n/a	n/a	pyFR	0	TJ071
2005.223	2.722	2119972	ORIENT	n/a	n/a	n/a	-999	16	n/a	n/a	pyFR	0	TJ071
2007.945	2.471	2122694	WORD	n/a	wordpools/wordpool_EN.txt	SIGN	1	16	n/a	n/a	pyFR	0	TJ071
2010.416	2.573	2125165	WORD	n/a	wordpools/wordpool_EN.txt	MUG	2	16	n/a	n/a	pyFR	0	TJ071
2012.989	2.571	2127738	WORD	n/a	wordpools/wordpool_EN.txt	MUD	3	16	n/a	n/a	pyFR	0	TJ071
2015.56	2.573	2130309	WORD	n/a	wordpools/wordpool_EN.txt	STONE	4	16	n/a	n/a	pyFR	0	TJ071
2018.133	2.604	2132882	WORD	n/a	wordpools/wordpool_EN.txt	SLUSH	5	16	n/a	n/a	pyFR	0	TJ071
2020.737	2.64	2135486	WORD	n/a	wordpools/wordpool_EN.txt	AXE	6	16	n/a	n/a	pyFR	0	TJ071
2023.377	2.487	2138126	WORD	n/a	wordpools/wordpool_EN.txt	TOE	7	16	n/a	n/a	pyFR	0	TJ071
2025.864	2.489	2140613	WORD	n/a	wordpools/wordpool_EN.txt	BRIDGE	8	16	n/a	n/a	pyFR	0	TJ071
2028.353	2.438	2143102	WORD	n/a	wordpools/wordpool_EN.txt	CHAIR	9	16	n/a	n/a	pyFR	0	TJ071
2030.791	2.789	2145540	WORD	n/a	wordpools/wordpool_EN.txt	FAN	10	16	n/a	n/a	pyFR	0	TJ071
2033.58	2.522	2148329	WORD	n/a	wordpools/wordpool_EN.txt	FOOT	11	16	n/a	n/a	pyFR	0	TJ071
2036.102	2.421	2150851	WORD	n/a	wordpools/wordpool_EN.txt	BENCH	12	16	n/a	n/a	pyFR	0	TJ071
2038.523	2.69	2153272	WORD	n/a	wordpools/wordpool_EN.txt	TRUCK	13	16	n/a	n/a	pyFR	0	TJ071
2041.213	2.471	2155962	WORD	n/a	wordpools/wordpool_EN.txt	BEAR	14	16	n/a	n/a	pyFR	0	TJ071
2043.684	1.605	2158433	WORD	n/a	wordpools/wordpool_EN.txt	BEACH	15	16	n/a	n/a	pyFR	0	TJ071
2045.289	0.984	2160038	START	n/a	n/a	n/a	n/a	16	[-999 -999 -999]	-999	pyFR	0	TJ071
2046.273	8.233	2161022	PROB	n/a	n/a	n/a	n/a	16	[8 4 1]	13	pyFR	0	TJ071
2054.506	16.188	2169254	PROB	n/a	n/a	n/a	n/a	16	[9 8 7]	24	pyFR	0	TJ071
2070.694	1.131	2185442	STOP	n/a	n/a	n/a	n/a	16	[-999 -999 -999]	-999	pyFR	0	TJ071
2071.825	12.362	2186573	REC_START	n/a	n/a	n/a	-999	16	n/a	n/a	pyFR	0	TJ071
2084.187	587.408	2198935	REC_WORD	587.408	n/a	SKI	-999	16	n/a	n/a	pyFR	0	TJ071
2671.595	0.093	2786336	SESS_END	n/a	n/a	n/a	-999	16	n/a	n/a	pyFR	0	TJ071
2671.688	0.0	2786429	E	n/a	n/a	n/a	-999	16	n/a	n/a	pyFR	0	TJ071
