onset	duration	sample	trial_type	response_time	stim_file	item_name	serialpos	list	test	answer	experiment	session	subject
0.0	0.0	70879	SESS_START	n/a	n/a	n/a	-999.0	-999	n/a	n/a	pyFR	1	UP045
0.0	110.029	70879	B	n/a	n/a	n/a	-999.0	-999	n/a	n/a	pyFR	1	UP045
110.029	0.021	125918	START	n/a	n/a	n/a	n/a	0	[-999 -999 -999]	-999.0	pyFR	1	UP045
110.05	39.666	125929	PROB	39.666	n/a	n/a	n/a	0	[7 1 2]	10.0	pyFR	1	UP045
149.716	26.255	145771	STOP	n/a	n/a	n/a	n/a	0	[-999 -999 -999]	-999.0	pyFR	1	UP045
175.971	0.017	158905	TRIAL	n/a	n/a	n/a	-999.0	1	n/a	n/a	pyFR	1	UP045
175.988	1.6	158913	ORIENT	n/a	n/a	n/a	-999.0	1	n/a	n/a	pyFR	1	UP045
178.905	1.6	160372	WORD	n/a	wordpools/wordpool_EN.txt	MUD	1.0	1	n/a	n/a	pyFR	1	UP045
181.588	1.6	161714	WORD	n/a	wordpools/wordpool_EN.txt	CARD	2.0	1	n/a	n/a	pyFR	1	UP045
184.303	1.6	163073	WORD	n/a	wordpools/wordpool_EN.txt	BOX	3.0	1	n/a	n/a	pyFR	1	UP045
186.935	1.6	164389	WORD	n/a	wordpools/wordpool_EN.txt	SLEEVE	4.0	1	n/a	n/a	pyFR	1	UP045
189.683	1.6	165764	WORD	n/a	wordpools/wordpool_EN.txt	MOON	5.0	1	n/a	n/a	pyFR	1	UP045
192.149	1.6	166997	WORD	n/a	wordpools/wordpool_EN.txt	SOUP	6.0	1	n/a	n/a	pyFR	1	UP045
194.781	1.6	168314	WORD	n/a	wordpools/wordpool_EN.txt	ROOF	7.0	1	n/a	n/a	pyFR	1	UP045
197.365	1.6	169607	WORD	n/a	wordpools/wordpool_EN.txt	NAIL	8.0	1	n/a	n/a	pyFR	1	UP045
199.929	1.6	170889	WORD	n/a	wordpools/wordpool_EN.txt	CAR	9.0	1	n/a	n/a	pyFR	1	UP045
202.462	1.6	172156	WORD	n/a	wordpools/wordpool_EN.txt	POOL	10.0	1	n/a	n/a	pyFR	1	UP045
204.91	1.6	173381	WORD	n/a	wordpools/wordpool_EN.txt	SHOE	11.0	1	n/a	n/a	pyFR	1	UP045
207.66	1.6	174756	WORD	n/a	wordpools/wordpool_EN.txt	FARM	12.0	1	n/a	n/a	pyFR	1	UP045
210.341	1.6	176098	WORD	n/a	wordpools/wordpool_EN.txt	SPEAR	13.0	1	n/a	n/a	pyFR	1	UP045
212.823	1.6	177339	WORD	n/a	wordpools/wordpool_EN.txt	CHIEF	14.0	1	n/a	n/a	pyFR	1	UP045
215.605	1.6	178731	WORD	n/a	wordpools/wordpool_EN.txt	BATH	15.0	1	n/a	n/a	pyFR	1	UP045
217.223	0.832	179540	START	n/a	n/a	n/a	n/a	1	[-999 -999 -999]	-999.0	pyFR	1	UP045
218.055	3.831	179956	PROB	3.801	n/a	n/a	n/a	1	[9 9 4]	23.0	pyFR	1	UP045
221.886	4.78	181873	PROB	4.745	n/a	n/a	n/a	1	[5 7 4]	16.0	pyFR	1	UP045
226.666	2.749	184264	PROB	2.715	n/a	n/a	n/a	1	[3 5 5]	13.0	pyFR	1	UP045
229.415	6.014	185639	PROB	5.98	n/a	n/a	n/a	1	[2 4 9]	15.0	pyFR	1	UP045
235.429	1.908	188647	PROB	1.908	n/a	n/a	n/a	1	[9 1 1]	11.0	pyFR	1	UP045
237.337	1.044	189602	STOP	n/a	n/a	n/a	n/a	1	[-999 -999 -999]	-999.0	pyFR	1	UP045
238.381	3.025	190124	REC_START	n/a	n/a	n/a	-999.0	1	n/a	n/a	pyFR	1	UP045
241.406	1.114	191637	REC_WORD	3.025	n/a	CARD	-999.0	1	n/a	n/a	pyFR	1	UP045
242.52	0.919	192194	REC_WORD	4.139	n/a	BOARD	-999.0	1	n/a	n/a	pyFR	1	UP045
243.439	4.005	192654	REC_WORD	5.058	n/a	ROOF	-999.0	1	n/a	n/a	pyFR	1	UP045
247.444	19.406	194658	REC_WORD	9.063	n/a	GAS	-999.0	1	n/a	n/a	pyFR	1	UP045
266.85	0.508	204365	REC_WORD	28.469	n/a	LAWN	-999.0	1	n/a	n/a	pyFR	1	UP045
267.358	8.31	204619	REC_WORD	28.977	n/a	RAIN	-999.0	1	n/a	n/a	pyFR	1	UP045
275.668	3.195	208776	REC_WORD	37.287	n/a	ROOF	-999.0	1	n/a	n/a	pyFR	1	UP045
278.863	3.399	210374	REC_WORD	40.482	n/a	HOUSE	-999.0	1	n/a	n/a	pyFR	1	UP045
282.262	6.579	212075	REC_WORD	43.881	n/a	SPEAR	-999.0	1	n/a	n/a	pyFR	1	UP045
288.841	0.016	215366	TRIAL	n/a	n/a	n/a	-999.0	2	n/a	n/a	pyFR	1	UP045
288.857	1.6	215374	ORIENT	n/a	n/a	n/a	-999.0	2	n/a	n/a	pyFR	1	UP045
291.607	1.6	216749	WORD	n/a	wordpools/wordpool_EN.txt	LOCK	1.0	2	n/a	n/a	pyFR	1	UP045
294.205	1.6	218049	WORD	n/a	wordpools/wordpool_EN.txt	BRANCH	2.0	2	n/a	n/a	pyFR	1	UP045
296.687	1.6	219290	WORD	n/a	wordpools/wordpool_EN.txt	PALM	3.0	2	n/a	n/a	pyFR	1	UP045
299.27	1.6	220583	WORD	n/a	wordpools/wordpool_EN.txt	PLANE	4.0	2	n/a	n/a	pyFR	1	UP045
302.035	1.6	221966	WORD	n/a	wordpools/wordpool_EN.txt	PLANT	5.0	2	n/a	n/a	pyFR	1	UP045
304.734	1.6	223316	WORD	n/a	wordpools/wordpool_EN.txt	PIG	6.0	2	n/a	n/a	pyFR	1	UP045
307.533	1.6	224716	WORD	n/a	wordpools/wordpool_EN.txt	CROW	7.0	2	n/a	n/a	pyFR	1	UP045
310.081	1.6	225991	WORD	n/a	wordpools/wordpool_EN.txt	ARK	8.0	2	n/a	n/a	pyFR	1	UP045
312.88	1.6	227391	WORD	n/a	wordpools/wordpool_EN.txt	MOTH	9.0	2	n/a	n/a	pyFR	1	UP045
315.679	1.6	228791	WORD	n/a	wordpools/wordpool_EN.txt	HOSE	10.0	2	n/a	n/a	pyFR	1	UP045
318.261	1.6	230082	WORD	n/a	wordpools/wordpool_EN.txt	WORM	11.0	2	n/a	n/a	pyFR	1	UP045
321.01	1.6	231458	WORD	n/a	wordpools/wordpool_EN.txt	WHEEL	12.0	2	n/a	n/a	pyFR	1	UP045
323.46	1.6	232683	WORD	n/a	wordpools/wordpool_EN.txt	CROWN	13.0	2	n/a	n/a	pyFR	1	UP045
326.175	1.6	234041	WORD	n/a	wordpools/wordpool_EN.txt	STONE	14.0	2	n/a	n/a	pyFR	1	UP045
328.907	1.6	235408	WORD	n/a	wordpools/wordpool_EN.txt	PEAR	15.0	2	n/a	n/a	pyFR	1	UP045
330.525	1.164	236217	START	n/a	n/a	n/a	n/a	2	[-999 -999 -999]	-999.0	pyFR	1	UP045
331.689	6.612	236799	PROB	6.589	n/a	n/a	n/a	2	[3 7 8]	18.0	pyFR	1	UP045
338.301	7.214	240107	PROB	7.19	n/a	n/a	n/a	2	[7 6 7]	30.0	pyFR	1	UP045
345.515	3.015	243716	PROB	2.983	n/a	n/a	n/a	2	[2 5 1]	8.0	pyFR	1	UP045
348.53	114.518	245224	PROB	114.518	n/a	n/a	n/a	2	[1 4 7]	12.0	pyFR	1	UP045
463.048	1.235	302509	STOP	n/a	n/a	n/a	n/a	2	[-999 -999 -999]	-999.0	pyFR	1	UP045
464.283	0.0	303127	REC_START	n/a	n/a	n/a	-999.0	2	n/a	n/a	pyFR	1	UP045
464.283	2.731	303127	REC_WORD_VV	0.0	n/a	<>	-999.0	2	n/a	n/a	pyFR	1	UP045
467.014	1.077	304493	REC_WORD	2.731	n/a	RAIL	-999.0	2	n/a	n/a	pyFR	1	UP045
468.091	1.373	305032	REC_WORD	3.808	n/a	RUSTY	-999.0	2	n/a	n/a	pyFR	1	UP045
469.464	3.267	305719	REC_WORD	5.181	n/a	PEN	-999.0	2	n/a	n/a	pyFR	1	UP045
472.731	5.761	307353	REC_WORD_VV	8.448	n/a	<>	-999.0	2	n/a	n/a	pyFR	1	UP045
478.492	3.664	310235	REC_WORD_VV	14.209	n/a	<>	-999.0	2	n/a	n/a	pyFR	1	UP045
482.156	3.803	312068	REC_WORD_VV	17.873	n/a	<>	-999.0	2	n/a	n/a	pyFR	1	UP045
485.959	3.476	313970	REC_WORD	21.676	n/a	MUD	-999.0	2	n/a	n/a	pyFR	1	UP045
489.435	7.109	315709	REC_WORD_VV	25.152	n/a	<>	-999.0	2	n/a	n/a	pyFR	1	UP045
496.544	16.383	319265	REC_WORD	32.261	n/a	CROWN	-999.0	2	n/a	n/a	pyFR	1	UP045
512.927	0.017	327460	TRIAL	n/a	n/a	n/a	-999.0	3	n/a	n/a	pyFR	1	UP045
512.944	1.6	327469	ORIENT	n/a	n/a	n/a	-999.0	3	n/a	n/a	pyFR	1	UP045
515.693	1.6	328844	WORD	n/a	wordpools/wordpool_EN.txt	POLE	1.0	3	n/a	n/a	pyFR	1	UP045
518.442	1.6	330219	WORD	n/a	wordpools/wordpool_EN.txt	FROG	2.0	3	n/a	n/a	pyFR	1	UP045
521.174	1.6	331586	WORD	n/a	wordpools/wordpool_EN.txt	MUG	3.0	3	n/a	n/a	pyFR	1	UP045
523.772	1.6	332885	WORD	n/a	wordpools/wordpool_EN.txt	COW	4.0	3	n/a	n/a	pyFR	1	UP045
526.522	1.6	334261	WORD	n/a	wordpools/wordpool_EN.txt	PANTS	5.0	3	n/a	n/a	pyFR	1	UP045
529.004	1.6	335502	WORD	n/a	wordpools/wordpool_EN.txt	FOG	6.0	3	n/a	n/a	pyFR	1	UP045
531.719	1.6	336861	WORD	n/a	wordpools/wordpool_EN.txt	PET	7.0	3	n/a	n/a	pyFR	1	UP045
534.385	1.6	338194	WORD	n/a	wordpools/wordpool_EN.txt	SKUNK	8.0	3	n/a	n/a	pyFR	1	UP045
536.95	1.6	339477	WORD	n/a	wordpools/wordpool_EN.txt	SCHOOL	9.0	3	n/a	n/a	pyFR	1	UP045
539.449	1.6	340727	WORD	n/a	wordpools/wordpool_EN.txt	SHARK	10.0	3	n/a	n/a	pyFR	1	UP045
541.915	1.6	341961	WORD	n/a	wordpools/wordpool_EN.txt	SPARK	11.0	3	n/a	n/a	pyFR	1	UP045
544.581	1.6	343295	WORD	n/a	wordpools/wordpool_EN.txt	HAT	12.0	3	n/a	n/a	pyFR	1	UP045
547.295	1.6	344652	WORD	n/a	wordpools/wordpool_EN.txt	WOOD	13.0	3	n/a	n/a	pyFR	1	UP045
550.045	1.6	346028	WORD	n/a	wordpools/wordpool_EN.txt	STRING	14.0	3	n/a	n/a	pyFR	1	UP045
552.677	1.6	347344	WORD	n/a	wordpools/wordpool_EN.txt	GRASS	15.0	3	n/a	n/a	pyFR	1	UP045
554.294	1.013	348153	START	n/a	n/a	n/a	n/a	3	[-999 -999 -999]	-999.0	pyFR	1	UP045
555.307	4.167	348660	PROB	4.133	n/a	n/a	n/a	3	[2 3 3]	8.0	pyFR	1	UP045
559.474	5.231	350744	PROB	5.195	n/a	n/a	n/a	3	[5 1 3]	9.0	pyFR	1	UP045
564.705	3.53	353361	PROB	3.506	n/a	n/a	n/a	3	[5 2 3]	10.0	pyFR	1	UP045
568.235	2.95	355127	PROB	2.926	n/a	n/a	n/a	3	[2 9 6]	17.0	pyFR	1	UP045
571.185	5.629	356603	PROB	5.629	n/a	n/a	n/a	3	[5 4 5]	14.0	pyFR	1	UP045
576.814	1.053	359418	STOP	n/a	n/a	n/a	n/a	3	[-999 -999 -999]	-999.0	pyFR	1	UP045
577.867	1.476	359945	REC_START	n/a	n/a	n/a	-999.0	3	n/a	n/a	pyFR	1	UP045
579.343	0.84	360684	REC_WORD	1.476	n/a	FROG	-999.0	3	n/a	n/a	pyFR	1	UP045
580.183	0.668	361104	REC_WORD	2.316	n/a	WOOD	-999.0	3	n/a	n/a	pyFR	1	UP045
580.851	2.696	361438	REC_WORD	2.984	n/a	SPARK	-999.0	3	n/a	n/a	pyFR	1	UP045
583.547	0.441	362787	REC_WORD	5.68	n/a	ROOF	-999.0	3	n/a	n/a	pyFR	1	UP045
583.988	13.746	363007	REC_WORD	6.121	n/a	CABIN	-999.0	3	n/a	n/a	pyFR	1	UP045
597.734	0.899	369883	REC_WORD	19.867	n/a	STRAW	-999.0	3	n/a	n/a	pyFR	1	UP045
598.633	1.858	370333	REC_WORD	20.766	n/a	HAT	-999.0	3	n/a	n/a	pyFR	1	UP045
600.491	10.949	371262	REC_WORD	22.624	n/a	GRASS	-999.0	3	n/a	n/a	pyFR	1	UP045
611.44	14.289	376739	REC_WORD	33.573	n/a	BEE	-999.0	3	n/a	n/a	pyFR	1	UP045
625.729	0.016	383887	TRIAL	n/a	n/a	n/a	-999.0	4	n/a	n/a	pyFR	1	UP045
625.745	1.6	383895	ORIENT	n/a	n/a	n/a	-999.0	4	n/a	n/a	pyFR	1	UP045
628.578	1.6	385312	WORD	n/a	wordpools/wordpool_EN.txt	HEART	1.0	4	n/a	n/a	pyFR	1	UP045
631.259	1.6	386654	WORD	n/a	wordpools/wordpool_EN.txt	JUDGE	2.0	4	n/a	n/a	pyFR	1	UP045
633.942	1.6	387996	WORD	n/a	wordpools/wordpool_EN.txt	SMOKE	3.0	4	n/a	n/a	pyFR	1	UP045
636.674	1.6	389362	WORD	n/a	wordpools/wordpool_EN.txt	TRAY	4.0	4	n/a	n/a	pyFR	1	UP045
639.44	1.6	390746	WORD	n/a	wordpools/wordpool_EN.txt	HAWK	5.0	4	n/a	n/a	pyFR	1	UP045
642.153	1.6	392103	WORD	n/a	wordpools/wordpool_EN.txt	BROOM	6.0	4	n/a	n/a	pyFR	1	UP045
644.621	1.6	393338	WORD	n/a	wordpools/wordpool_EN.txt	OAK	7.0	4	n/a	n/a	pyFR	1	UP045
647.236	1.6	394646	WORD	n/a	wordpools/wordpool_EN.txt	FLAG	8.0	4	n/a	n/a	pyFR	1	UP045
649.701	1.6	395879	WORD	n/a	wordpools/wordpool_EN.txt	GIRL	9.0	4	n/a	n/a	pyFR	1	UP045
652.15	1.6	397104	WORD	n/a	wordpools/wordpool_EN.txt	PASTE	10.0	4	n/a	n/a	pyFR	1	UP045
654.916	1.6	398487	WORD	n/a	wordpools/wordpool_EN.txt	PIE	11.0	4	n/a	n/a	pyFR	1	UP045
657.381	1.6	399721	WORD	n/a	wordpools/wordpool_EN.txt	HOOF	12.0	4	n/a	n/a	pyFR	1	UP045
660.014	1.6	401038	WORD	n/a	wordpools/wordpool_EN.txt	SEA	13.0	4	n/a	n/a	pyFR	1	UP045
662.679	1.6	402371	WORD	n/a	wordpools/wordpool_EN.txt	GATE	14.0	4	n/a	n/a	pyFR	1	UP045
665.195	1.6	403629	WORD	n/a	wordpools/wordpool_EN.txt	BLUSH	15.0	4	n/a	n/a	pyFR	1	UP045
666.812	0.847	404438	START	n/a	n/a	n/a	n/a	4	[-999 -999 -999]	-999.0	pyFR	1	UP045
667.659	3.117	404862	PROB	3.093	n/a	n/a	n/a	4	[6 4 1]	11.0	pyFR	1	UP045
670.776	4.579	406421	PROB	4.541	n/a	n/a	n/a	4	[8 9 8]	25.0	pyFR	1	UP045
675.355	3.201	408712	PROB	3.178	n/a	n/a	n/a	4	[4 3 1]	8.0	pyFR	1	UP045
678.556	6.745	410313	PROB	6.716	n/a	n/a	n/a	4	[2 5 6]	13.0	pyFR	1	UP045
685.301	2.466	413687	PROB	2.466	n/a	n/a	n/a	4	[1 7 7]	15.0	pyFR	1	UP045
687.767	1.102	414921	STOP	n/a	n/a	n/a	n/a	4	[-999 -999 -999]	-999.0	pyFR	1	UP045
688.869	2.985	415472	REC_START	n/a	n/a	n/a	-999.0	4	n/a	n/a	pyFR	1	UP045
691.854	2.259	416965	REC_WORD	2.985	n/a	GIRL	-999.0	4	n/a	n/a	pyFR	1	UP045
694.113	1.816	418095	REC_WORD_VV	5.244	n/a	<>	-999.0	4	n/a	n/a	pyFR	1	UP045
695.929	2.707	419003	REC_WORD	7.06	n/a	HOOF	-999.0	4	n/a	n/a	pyFR	1	UP045
698.636	3.151	420358	REC_WORD	9.767	n/a	PASTE	-999.0	4	n/a	n/a	pyFR	1	UP045
701.787	1.902	421934	REC_WORD	12.918	n/a	WATER	-999.0	4	n/a	n/a	pyFR	1	UP045
703.689	17.219	422885	REC_WORD	14.82	n/a	FLAG	-999.0	4	n/a	n/a	pyFR	1	UP045
720.908	2.473	431499	REC_WORD_VV	32.039	n/a	<>	-999.0	4	n/a	n/a	pyFR	1	UP045
723.381	1.0	432736	REC_WORD	34.512	n/a	HOOF	-999.0	4	n/a	n/a	pyFR	1	UP045
724.381	6.223	433236	REC_WORD_VV	35.512	n/a	<>	-999.0	4	n/a	n/a	pyFR	1	UP045
730.604	2.401	436349	REC_WORD	41.735	n/a	FENCE	-999.0	4	n/a	n/a	pyFR	1	UP045
733.005	7.857	437550	REC_WORD	44.136	n/a	WATER	-999.0	4	n/a	n/a	pyFR	1	UP045
740.862	0.017	441480	TRIAL	n/a	n/a	n/a	-999.0	5	n/a	n/a	pyFR	1	UP045
740.879	1.6	441489	ORIENT	n/a	n/a	n/a	-999.0	5	n/a	n/a	pyFR	1	UP045
743.728	1.6	442914	WORD	n/a	wordpools/wordpool_EN.txt	HOOK	1.0	5	n/a	n/a	pyFR	1	UP045
746.159	1.6	444130	WORD	n/a	wordpools/wordpool_EN.txt	ROOT	2.0	5	n/a	n/a	pyFR	1	UP045
748.709	1.6	445406	WORD	n/a	wordpools/wordpool_EN.txt	STAIR	3.0	5	n/a	n/a	pyFR	1	UP045
751.307	1.6	446705	WORD	n/a	wordpools/wordpool_EN.txt	ROCK	4.0	5	n/a	n/a	pyFR	1	UP045
753.806	1.6	447955	WORD	n/a	wordpools/wordpool_EN.txt	TANK	5.0	5	n/a	n/a	pyFR	1	UP045
756.606	1.6	449356	WORD	n/a	wordpools/wordpool_EN.txt	PEARL	6.0	5	n/a	n/a	pyFR	1	UP045
759.104	1.6	450606	WORD	n/a	wordpools/wordpool_EN.txt	RUG	7.0	5	n/a	n/a	pyFR	1	UP045
761.537	1.6	451823	WORD	n/a	wordpools/wordpool_EN.txt	SEED	8.0	5	n/a	n/a	pyFR	1	UP045
764.102	1.6	453106	WORD	n/a	wordpools/wordpool_EN.txt	ROSE	9.0	5	n/a	n/a	pyFR	1	UP045
766.867	1.6	454489	WORD	n/a	wordpools/wordpool_EN.txt	MULE	10.0	5	n/a	n/a	pyFR	1	UP045
769.683	1.6	455897	WORD	n/a	wordpools/wordpool_EN.txt	ELF	11.0	5	n/a	n/a	pyFR	1	UP045
772.215	1.6	457164	WORD	n/a	wordpools/wordpool_EN.txt	BOMB	12.0	5	n/a	n/a	pyFR	1	UP045
774.864	1.6	458489	WORD	n/a	wordpools/wordpool_EN.txt	CAGE	13.0	5	n/a	n/a	pyFR	1	UP045
777.53	1.6	459823	WORD	n/a	wordpools/wordpool_EN.txt	LEG	14.0	5	n/a	n/a	pyFR	1	UP045
780.228	1.6	461172	WORD	n/a	wordpools/wordpool_EN.txt	BEAN	15.0	5	n/a	n/a	pyFR	1	UP045
781.846	1.046	461982	START	n/a	n/a	n/a	n/a	5	[-999 -999 -999]	-999.0	pyFR	1	UP045
782.892	7.98	462505	PROB	7.952	n/a	n/a	n/a	5	[6 1 9]	16.0	pyFR	1	UP045
790.872	3.382	466497	PROB	3.354	n/a	n/a	n/a	5	[8 1 3]	12.0	pyFR	1	UP045
794.254	3.482	468189	PROB	3.45	n/a	n/a	n/a	5	[1 8 6]	15.0	pyFR	1	UP045
797.736	2.948	469930	PROB	2.912	n/a	n/a	n/a	5	[3 8 2]	13.0	pyFR	1	UP045
800.684	2.473	471405	PROB	2.473	n/a	n/a	n/a	5	[1 9 1]	11.0	pyFR	1	UP045
803.157	1.162	472642	STOP	n/a	n/a	n/a	n/a	5	[-999 -999 -999]	-999.0	pyFR	1	UP045
804.319	7.315	473223	REC_START	n/a	n/a	n/a	-999.0	5	n/a	n/a	pyFR	1	UP045
811.634	1.112	476883	REC_WORD	7.315	n/a	ELF	-999.0	5	n/a	n/a	pyFR	1	UP045
812.746	5.52	477439	REC_WORD	8.427	n/a	TANK	-999.0	5	n/a	n/a	pyFR	1	UP045
818.266	1.0	480200	REC_WORD_VV	13.947	n/a	<>	-999.0	5	n/a	n/a	pyFR	1	UP045
819.266	1.0	480700	REC_WORD_VV	14.947	n/a	<>	-999.0	5	n/a	n/a	pyFR	1	UP045
820.266	0.889	481201	REC_WORD_VV	15.947	n/a	<>	-999.0	5	n/a	n/a	pyFR	1	UP045
821.155	5.346	481645	REC_WORD	16.836	n/a	ROOT	-999.0	5	n/a	n/a	pyFR	1	UP045
826.501	4.513	484320	REC_WORD	22.182	n/a	TREE	-999.0	5	n/a	n/a	pyFR	1	UP045
831.014	3.149	486577	REC_WORD	26.695	n/a	ELF	-999.0	5	n/a	n/a	pyFR	1	UP045
834.163	4.303	488152	REC_WORD	29.844	n/a	TOOL	-999.0	5	n/a	n/a	pyFR	1	UP045
838.466	4.74	490305	REC_WORD_VV	34.147	n/a	<>	-999.0	5	n/a	n/a	pyFR	1	UP045
843.206	1.0	492676	REC_WORD_VV	38.887	n/a	<>	-999.0	5	n/a	n/a	pyFR	1	UP045
844.206	1.0	493176	REC_WORD_VV	39.887	n/a	<>	-999.0	5	n/a	n/a	pyFR	1	UP045
845.206	55.338	493676	REC_WORD_VV	40.887	n/a	<>	-999.0	5	n/a	n/a	pyFR	1	UP045
900.544	0.017	521358	TRIAL	n/a	n/a	n/a	-999.0	6	n/a	n/a	pyFR	1	UP045
900.561	1.6	521367	ORIENT	n/a	n/a	n/a	-999.0	6	n/a	n/a	pyFR	1	UP045
903.393	1.6	522783	WORD	n/a	wordpools/wordpool_EN.txt	INK	1.0	6	n/a	n/a	pyFR	1	UP045
905.991	1.6	524083	WORD	n/a	wordpools/wordpool_EN.txt	BELL	2.0	6	n/a	n/a	pyFR	1	UP045
908.673	1.6	525424	WORD	n/a	wordpools/wordpool_EN.txt	GLOVE	3.0	6	n/a	n/a	pyFR	1	UP045
911.172	1.6	526675	WORD	n/a	wordpools/wordpool_EN.txt	SPONGE	4.0	6	n/a	n/a	pyFR	1	UP045
913.921	1.6	528050	WORD	n/a	wordpools/wordpool_EN.txt	SAIL	5.0	6	n/a	n/a	pyFR	1	UP045
916.42	1.6	529300	WORD	n/a	wordpools/wordpool_EN.txt	CLIFF	6.0	6	n/a	n/a	pyFR	1	UP045
919.101	1.6	530641	WORD	n/a	wordpools/wordpool_EN.txt	TRAIN	7.0	6	n/a	n/a	pyFR	1	UP045
921.635	1.6	531908	WORD	n/a	wordpools/wordpool_EN.txt	FLEA	8.0	6	n/a	n/a	pyFR	1	UP045
924.384	1.6	533284	WORD	n/a	wordpools/wordpool_EN.txt	PIPE	9.0	6	n/a	n/a	pyFR	1	UP045
926.832	1.6	534508	WORD	n/a	wordpools/wordpool_EN.txt	SUIT	10.0	6	n/a	n/a	pyFR	1	UP045
929.631	1.6	535908	WORD	n/a	wordpools/wordpool_EN.txt	BOY	11.0	6	n/a	n/a	pyFR	1	UP045
932.246	1.6	537216	WORD	n/a	wordpools/wordpool_EN.txt	CHIN	12.0	6	n/a	n/a	pyFR	1	UP045
935.061	1.6	538625	WORD	n/a	wordpools/wordpool_EN.txt	NOSE	13.0	6	n/a	n/a	pyFR	1	UP045
937.528	1.6	539859	WORD	n/a	wordpools/wordpool_EN.txt	MAP	14.0	6	n/a	n/a	pyFR	1	UP045
940.326	1.6	541258	WORD	n/a	wordpools/wordpool_EN.txt	ROPE	15.0	6	n/a	n/a	pyFR	1	UP045
941.944	0.946	542068	START	n/a	n/a	n/a	n/a	6	[-999 -999 -999]	-999.0	pyFR	1	UP045
942.89	8.396	542541	PROB	8.361	n/a	n/a	n/a	6	[9 4 6]	19.0	pyFR	1	UP045
951.286	3.083	546741	PROB	3.06	n/a	n/a	n/a	6	[2 7 7]	16.0	pyFR	1	UP045
954.369	5.515	548283	PROB	5.486	n/a	n/a	n/a	6	[5 8 3]	16.0	pyFR	1	UP045
959.884	2.258	551042	PROB	2.258	n/a	n/a	n/a	6	[4 6 2]	12.0	pyFR	1	UP045
962.142	1.176	552171	STOP	n/a	n/a	n/a	n/a	6	[-999 -999 -999]	-999.0	pyFR	1	UP045
963.318	1.875	552760	REC_START	n/a	n/a	n/a	-999.0	6	n/a	n/a	pyFR	1	UP045
965.193	0.514	553698	REC_WORD	1.875	n/a	BOY	-999.0	6	n/a	n/a	pyFR	1	UP045
965.707	1.014	553955	REC_WORD	2.389	n/a	CHIN	-999.0	6	n/a	n/a	pyFR	1	UP045
966.721	0.592	554462	REC_WORD_VV	3.403	n/a	<>	-999.0	6	n/a	n/a	pyFR	1	UP045
967.313	2.245	554758	REC_WORD	3.995	n/a	FACE	-999.0	6	n/a	n/a	pyFR	1	UP045
969.558	7.666	555881	REC_WORD_VV	6.24	n/a	<>	-999.0	6	n/a	n/a	pyFR	1	UP045
977.224	12.053	559716	REC_WORD	13.906	n/a	SPONGE	-999.0	6	n/a	n/a	pyFR	1	UP045
989.277	9.124	565745	REC_WORD	25.959	n/a	SILK	-999.0	6	n/a	n/a	pyFR	1	UP045
998.401	12.295	570309	REC_WORD	35.083	n/a	FIND	-999.0	6	n/a	n/a	pyFR	1	UP045
1010.696	0.016	576459	TRIAL	n/a	n/a	n/a	-999.0	7	n/a	n/a	pyFR	1	UP045
1010.712	1.6	576467	ORIENT	n/a	n/a	n/a	-999.0	7	n/a	n/a	pyFR	1	UP045
1013.711	1.6	577968	WORD	n/a	wordpools/wordpool_EN.txt	SHIRT	1.0	7	n/a	n/a	pyFR	1	UP045
1016.36	1.6	579293	WORD	n/a	wordpools/wordpool_EN.txt	FOAM	2.0	7	n/a	n/a	pyFR	1	UP045
1018.909	1.6	580568	WORD	n/a	wordpools/wordpool_EN.txt	SEAT	3.0	7	n/a	n/a	pyFR	1	UP045
1021.358	1.6	581793	WORD	n/a	wordpools/wordpool_EN.txt	MOUSE	4.0	7	n/a	n/a	pyFR	1	UP045
1024.189	1.6	583209	WORD	n/a	wordpools/wordpool_EN.txt	PRINCE	5.0	7	n/a	n/a	pyFR	1	UP045
1026.789	1.6	584510	WORD	n/a	wordpools/wordpool_EN.txt	ARM	6.0	7	n/a	n/a	pyFR	1	UP045
1029.271	1.6	585751	WORD	n/a	wordpools/wordpool_EN.txt	KING	7.0	7	n/a	n/a	pyFR	1	UP045
1031.803	1.6	587018	WORD	n/a	wordpools/wordpool_EN.txt	BAND	8.0	7	n/a	n/a	pyFR	1	UP045
1034.586	1.6	588410	WORD	n/a	wordpools/wordpool_EN.txt	FAN	9.0	7	n/a	n/a	pyFR	1	UP045
1037.084	1.6	589660	WORD	n/a	wordpools/wordpool_EN.txt	LAMP	10.0	7	n/a	n/a	pyFR	1	UP045
1039.85	1.6	591043	WORD	n/a	wordpools/wordpool_EN.txt	POND	11.0	7	n/a	n/a	pyFR	1	UP045
1042.549	1.6	592393	WORD	n/a	wordpools/wordpool_EN.txt	JAIL	12.0	7	n/a	n/a	pyFR	1	UP045
1045.247	1.6	593743	WORD	n/a	wordpools/wordpool_EN.txt	STOOL	13.0	7	n/a	n/a	pyFR	1	UP045
1047.913	1.6	595077	WORD	n/a	wordpools/wordpool_EN.txt	CRANE	14.0	7	n/a	n/a	pyFR	1	UP045
1050.693	1.6	596467	WORD	n/a	wordpools/wordpool_EN.txt	TAPE	15.0	7	n/a	n/a	pyFR	1	UP045
1052.312	1.131	597277	START	n/a	n/a	n/a	n/a	7	[-999 -999 -999]	-999.0	pyFR	1	UP045
1053.443	3.647	597843	PROB	3.611	n/a	n/a	n/a	7	[4 7 1]	12.0	pyFR	1	UP045
1057.09	4.167	599667	PROB	4.13	n/a	n/a	n/a	7	[9 3 8]	21.0	pyFR	1	UP045
1061.257	3.48	601752	PROB	3.457	n/a	n/a	n/a	7	[8 3 6]	17.0	pyFR	1	UP045
1064.737	6.464	603492	PROB	6.438	n/a	n/a	n/a	7	[3 4 3]	10.0	pyFR	1	UP045
1071.201	4.516	606726	PROB	4.516	n/a	n/a	n/a	7	[9 9 8]	26.0	pyFR	1	UP045
1075.717	1.151	608985	STOP	n/a	n/a	n/a	n/a	7	[-999 -999 -999]	-999.0	pyFR	1	UP045
1076.868	2.143	609561	REC_START	n/a	n/a	n/a	-999.0	7	n/a	n/a	pyFR	1	UP045
1079.011	1.01	610633	REC_WORD	2.143	n/a	PRINCE	-999.0	7	n/a	n/a	pyFR	1	UP045
1080.021	2.449	611138	REC_WORD	3.153	n/a	KING	-999.0	7	n/a	n/a	pyFR	1	UP045
1082.47	6.483	612363	REC_WORD	5.602	n/a	JAIL	-999.0	7	n/a	n/a	pyFR	1	UP045
1088.953	9.44	615606	REC_WORD	12.085	n/a	CROWN	-999.0	7	n/a	n/a	pyFR	1	UP045
1098.393	2.812	620328	REC_WORD	21.525	n/a	STOOL	-999.0	7	n/a	n/a	pyFR	1	UP045
1101.205	8.145	621735	REC_WORD	24.337	n/a	SWAMP	-999.0	7	n/a	n/a	pyFR	1	UP045
1109.35	4.671	625809	REC_WORD	32.482	n/a	HAT	-999.0	7	n/a	n/a	pyFR	1	UP045
1114.021	10.042	628146	REC_WORD	37.153	n/a	CROWN	-999.0	7	n/a	n/a	pyFR	1	UP045
1124.063	0.017	633169	TRIAL	n/a	n/a	n/a	-999.0	8	n/a	n/a	pyFR	1	UP045
1124.08	1.6	633178	ORIENT	n/a	n/a	n/a	-999.0	8	n/a	n/a	pyFR	1	UP045
1127.012	1.6	634644	WORD	n/a	wordpools/wordpool_EN.txt	BEAR	1.0	8	n/a	n/a	pyFR	1	UP045
1129.744	1.6	636011	WORD	n/a	wordpools/wordpool_EN.txt	DUCK	2.0	8	n/a	n/a	pyFR	1	UP045
1132.293	1.6	637286	WORD	n/a	wordpools/wordpool_EN.txt	BREAD	3.0	8	n/a	n/a	pyFR	1	UP045
1135.041	1.6	638661	WORD	n/a	wordpools/wordpool_EN.txt	PEA	4.0	8	n/a	n/a	pyFR	1	UP045
1137.791	1.6	640036	WORD	n/a	wordpools/wordpool_EN.txt	SNAIL	5.0	8	n/a	n/a	pyFR	1	UP045
1140.39	1.6	641336	WORD	n/a	wordpools/wordpool_EN.txt	GLASS	6.0	8	n/a	n/a	pyFR	1	UP045
1143.188	1.6	642736	WORD	n/a	wordpools/wordpool_EN.txt	CANE	7.0	8	n/a	n/a	pyFR	1	UP045
1145.655	1.6	643970	WORD	n/a	wordpools/wordpool_EN.txt	QUEEN	8.0	8	n/a	n/a	pyFR	1	UP045
1148.319	1.6	645303	WORD	n/a	wordpools/wordpool_EN.txt	FACE	9.0	8	n/a	n/a	pyFR	1	UP045
1150.952	1.6	646620	WORD	n/a	wordpools/wordpool_EN.txt	PIN	10.0	8	n/a	n/a	pyFR	1	UP045
1153.485	1.6	647887	WORD	n/a	wordpools/wordpool_EN.txt	CAT	11.0	8	n/a	n/a	pyFR	1	UP045
1155.982	1.6	649136	WORD	n/a	wordpools/wordpool_EN.txt	BADGE	12.0	8	n/a	n/a	pyFR	1	UP045
1158.666	1.6	650479	WORD	n/a	wordpools/wordpool_EN.txt	BENCH	13.0	8	n/a	n/a	pyFR	1	UP045
1161.197	1.6	651745	WORD	n/a	wordpools/wordpool_EN.txt	MAZE	14.0	8	n/a	n/a	pyFR	1	UP045
1163.63	1.6	652962	WORD	n/a	wordpools/wordpool_EN.txt	CART	15.0	8	n/a	n/a	pyFR	1	UP045
1165.247	1.079	653771	START	n/a	n/a	n/a	n/a	8	[-999 -999 -999]	-999.0	pyFR	1	UP045
1166.326	6.149	654310	PROB	6.111	n/a	n/a	n/a	8	[3 5 7]	15.0	pyFR	1	UP045
1172.475	4.88	657386	PROB	4.856	n/a	n/a	n/a	8	[8 7 2]	17.0	pyFR	1	UP045
1177.355	2.799	659827	PROB	2.774	n/a	n/a	n/a	8	[5 9 9]	14.0	pyFR	1	UP045
1180.154	5.357	661228	PROB	5.357	n/a	n/a	n/a	8	[4 9 7]	20.0	pyFR	1	UP045
1185.511	1.193	663907	STOP	n/a	n/a	n/a	n/a	8	[-999 -999 -999]	-999.0	pyFR	1	UP045
1186.704	1.936	664504	REC_START	n/a	n/a	n/a	-999.0	8	n/a	n/a	pyFR	1	UP045
1188.64	1.36	665473	REC_WORD	1.936	n/a	QUEEN	-999.0	8	n/a	n/a	pyFR	1	UP045
1190.0	2.236	666153	REC_WORD	3.296	n/a	CAT	-999.0	8	n/a	n/a	pyFR	1	UP045
1192.236	2.466	667271	REC_WORD	5.532	n/a	ROPE	-999.0	8	n/a	n/a	pyFR	1	UP045
1194.702	11.389	668505	REC_WORD	7.998	n/a	SWEAT	-999.0	8	n/a	n/a	pyFR	1	UP045
1206.091	11.441	674202	REC_WORD	19.387	n/a	MUG	-999.0	8	n/a	n/a	pyFR	1	UP045
1217.532	6.404	679925	REC_WORD	30.828	n/a	MAZE	-999.0	8	n/a	n/a	pyFR	1	UP045
1223.936	1.768	683129	REC_WORD	37.232	n/a	BOOKS	-999.0	8	n/a	n/a	pyFR	1	UP045
1225.704	8.278	684013	REC_WORD	39.0	n/a	BOOK	-999.0	8	n/a	n/a	pyFR	1	UP045
1233.982	0.017	688154	TRIAL	n/a	n/a	n/a	-999.0	9	n/a	n/a	pyFR	1	UP045
1233.999	1.6	688162	ORIENT	n/a	n/a	n/a	-999.0	9	n/a	n/a	pyFR	1	UP045
1237.014	1.6	689671	WORD	n/a	wordpools/wordpool_EN.txt	MILK	1.0	9	n/a	n/a	pyFR	1	UP045
1239.647	1.6	690988	WORD	n/a	wordpools/wordpool_EN.txt	DOCK	2.0	9	n/a	n/a	pyFR	1	UP045
1242.43	1.6	692380	WORD	n/a	wordpools/wordpool_EN.txt	JET	3.0	9	n/a	n/a	pyFR	1	UP045
1245.061	1.6	693696	WORD	n/a	wordpools/wordpool_EN.txt	CUP	4.0	9	n/a	n/a	pyFR	1	UP045
1247.627	1.6	694980	WORD	n/a	wordpools/wordpool_EN.txt	WHALE	5.0	9	n/a	n/a	pyFR	1	UP045
1250.36	1.6	696347	WORD	n/a	wordpools/wordpool_EN.txt	VAN	6.0	9	n/a	n/a	pyFR	1	UP045
1253.09	1.6	697712	WORD	n/a	wordpools/wordpool_EN.txt	DRUM	7.0	9	n/a	n/a	pyFR	1	UP045
1255.607	1.6	698971	WORD	n/a	wordpools/wordpool_EN.txt	CORD	8.0	9	n/a	n/a	pyFR	1	UP045
1258.406	1.6	700372	WORD	n/a	wordpools/wordpool_EN.txt	VEST	9.0	9	n/a	n/a	pyFR	1	UP045
1260.904	1.6	701621	WORD	n/a	wordpools/wordpool_EN.txt	NEST	10.0	9	n/a	n/a	pyFR	1	UP045
1263.371	1.6	702855	WORD	n/a	wordpools/wordpool_EN.txt	SHEEP	11.0	9	n/a	n/a	pyFR	1	UP045
1266.168	1.6	704254	WORD	n/a	wordpools/wordpool_EN.txt	SHELL	12.0	9	n/a	n/a	pyFR	1	UP045
1268.834	1.6	705588	WORD	n/a	wordpools/wordpool_EN.txt	CLAY	13.0	9	n/a	n/a	pyFR	1	UP045
1271.467	1.6	706905	WORD	n/a	wordpools/wordpool_EN.txt	STICK	14.0	9	n/a	n/a	pyFR	1	UP045
1274.198	1.6	708271	WORD	n/a	wordpools/wordpool_EN.txt	PEN	15.0	9	n/a	n/a	pyFR	1	UP045
1275.816	1.179	709081	START	n/a	n/a	n/a	n/a	9	[-999 -999 -999]	-999.0	pyFR	1	UP045
1276.995	6.197	709670	PROB	6.17	n/a	n/a	n/a	9	[4 9 7]	20.0	pyFR	1	UP045
1283.192	4.067	712770	PROB	4.035	n/a	n/a	n/a	9	[2 4 7]	15.0	pyFR	1	UP045
1287.259	2.566	714805	PROB	2.535	n/a	n/a	n/a	9	[6 1 7]	14.0	pyFR	1	UP045
1289.825	2.38	716088	PROB	2.343	n/a	n/a	n/a	9	[1 4 2]	7.0	pyFR	1	UP045
1292.205	4.777	717279	PROB	4.777	n/a	n/a	n/a	9	[2 2 5]	9.0	pyFR	1	UP045
1296.982	1.09	719668	STOP	n/a	n/a	n/a	n/a	9	[-999 -999 -999]	-999.0	pyFR	1	UP045
1298.072	24.426	720214	REC_START	n/a	n/a	n/a	-999.0	9	n/a	n/a	pyFR	1	UP045
1322.498	1.0	732432	REC_WORD_VV	24.426	n/a	<>	-999.0	9	n/a	n/a	pyFR	1	UP045
1323.498	1.188	732933	REC_WORD_VV	25.426	n/a	<>	-999.0	9	n/a	n/a	pyFR	1	UP045
1324.686	1.0	733527	REC_WORD_VV	26.614	n/a	<>	-999.0	9	n/a	n/a	pyFR	1	UP045
1325.686	1.0	734027	REC_WORD_VV	27.614	n/a	<>	-999.0	9	n/a	n/a	pyFR	1	UP045
1326.686	1.898	734527	REC_WORD_VV	28.614	n/a	<>	-999.0	9	n/a	n/a	pyFR	1	UP045
1328.584	5.446	735477	REC_WORD_VV	30.512	n/a	<>	-999.0	9	n/a	n/a	pyFR	1	UP045
1334.03	0.869	738201	REC_WORD_VV	35.958	n/a	<>	-999.0	9	n/a	n/a	pyFR	1	UP045
1334.899	2.176	738636	REC_WORD_VV	36.827	n/a	<>	-999.0	9	n/a	n/a	pyFR	1	UP045
1337.075	1.251	739724	REC_WORD_VV	39.003	n/a	<>	-999.0	9	n/a	n/a	pyFR	1	UP045
1338.326	2.312	740350	REC_WORD_VV	40.254	n/a	<>	-999.0	9	n/a	n/a	pyFR	1	UP045
1340.638	0.932	741507	REC_WORD_VV	42.566	n/a	<>	-999.0	9	n/a	n/a	pyFR	1	UP045
1341.57	0.844	741973	REC_WORD_VV	43.498	n/a	<>	-999.0	9	n/a	n/a	pyFR	1	UP045
1342.414	11.951	742395	REC_WORD_VV	44.342	n/a	<>	-999.0	9	n/a	n/a	pyFR	1	UP045
1354.365	0.016	748373	TRIAL	n/a	n/a	n/a	-999.0	10	n/a	n/a	pyFR	1	UP045
1354.381	1.6	748381	ORIENT	n/a	n/a	n/a	-999.0	10	n/a	n/a	pyFR	1	UP045
1357.079	1.6	749731	WORD	n/a	wordpools/wordpool_EN.txt	PURSE	1.0	10	n/a	n/a	pyFR	1	UP045
1359.678	1.6	751031	WORD	n/a	wordpools/wordpool_EN.txt	DESK	2.0	10	n/a	n/a	pyFR	1	UP045
1362.343	1.6	752364	WORD	n/a	wordpools/wordpool_EN.txt	SQUARE	3.0	10	n/a	n/a	pyFR	1	UP045
1364.776	1.6	753581	WORD	n/a	wordpools/wordpool_EN.txt	PEACH	4.0	10	n/a	n/a	pyFR	1	UP045
1367.392	1.6	754890	WORD	n/a	wordpools/wordpool_EN.txt	TOOTH	5.0	10	n/a	n/a	pyFR	1	UP045
1369.99	1.6	756189	WORD	n/a	wordpools/wordpool_EN.txt	DIME	6.0	10	n/a	n/a	pyFR	1	UP045
1372.672	1.6	757531	WORD	n/a	wordpools/wordpool_EN.txt	SINK	7.0	10	n/a	n/a	pyFR	1	UP045
1375.138	1.6	758764	WORD	n/a	wordpools/wordpool_EN.txt	WORLD	8.0	10	n/a	n/a	pyFR	1	UP045
1377.588	1.6	759990	WORD	n/a	wordpools/wordpool_EN.txt	SHIELD	9.0	10	n/a	n/a	pyFR	1	UP045
1380.252	1.6	761323	WORD	n/a	wordpools/wordpool_EN.txt	STRAW	10.0	10	n/a	n/a	pyFR	1	UP045
1383.068	1.6	762731	WORD	n/a	wordpools/wordpool_EN.txt	COAT	11.0	10	n/a	n/a	pyFR	1	UP045
1385.7	1.6	764048	WORD	n/a	wordpools/wordpool_EN.txt	DITCH	12.0	10	n/a	n/a	pyFR	1	UP045
1388.4	1.6	765399	WORD	n/a	wordpools/wordpool_EN.txt	BEAK	13.0	10	n/a	n/a	pyFR	1	UP045
1390.831	1.6	766615	WORD	n/a	wordpools/wordpool_EN.txt	PIT	14.0	10	n/a	n/a	pyFR	1	UP045
1393.347	1.6	767873	WORD	n/a	wordpools/wordpool_EN.txt	LAMB	15.0	10	n/a	n/a	pyFR	1	UP045
1394.964	1.146	768682	START	n/a	n/a	n/a	n/a	10	[-999 -999 -999]	-999.0	pyFR	1	UP045
1396.11	6.315	769255	PROB	6.293	n/a	n/a	n/a	10	[8 9 2]	19.0	pyFR	1	UP045
1402.425	2.465	772414	PROB	2.431	n/a	n/a	n/a	10	[5 4 4]	13.0	pyFR	1	UP045
1404.89	4.898	773647	PROB	4.876	n/a	n/a	n/a	10	[7 9 7]	23.0	pyFR	1	UP045
1409.788	3.065	776097	PROB	3.04	n/a	n/a	n/a	10	[8 7 6]	21.0	pyFR	1	UP045
1412.853	2.791	777631	PROB	2.791	n/a	n/a	n/a	10	[1 2 3]	6.0	pyFR	1	UP045
1415.644	1.227	779027	STOP	n/a	n/a	n/a	n/a	10	[-999 -999 -999]	-999.0	pyFR	1	UP045
1416.871	3.881	779641	REC_START	n/a	n/a	n/a	-999.0	10	n/a	n/a	pyFR	1	UP045
1420.752	1.273	781582	REC_WORD_VV	3.881	n/a	<>	-999.0	10	n/a	n/a	pyFR	1	UP045
1422.025	0.574	782219	REC_WORD	5.154	n/a	LAMP	-999.0	10	n/a	n/a	pyFR	1	UP045
1422.599	10.797	782506	REC_WORD	5.728	n/a	DOG	-999.0	10	n/a	n/a	pyFR	1	UP045
1433.396	1.638	787907	REC_WORD_VV	16.525	n/a	<>	-999.0	10	n/a	n/a	pyFR	1	UP045
1435.034	1403.59	788726	REC_WORD_VV	18.163	n/a	<>	-999.0	10	n/a	n/a	pyFR	1	UP045
2838.624	0.016	1490845	TRIAL	n/a	n/a	n/a	-999.0	11	n/a	n/a	pyFR	1	UP045
2838.64	1.6	1490853	ORIENT	n/a	n/a	n/a	-999.0	11	n/a	n/a	pyFR	1	UP045
2841.606	1.6	1492336	WORD	n/a	wordpools/wordpool_EN.txt	FLUTE	1.0	11	n/a	n/a	pyFR	1	UP045
2844.203	1.6	1493636	WORD	n/a	wordpools/wordpool_EN.txt	RIB	2.0	11	n/a	n/a	pyFR	1	UP045
2846.769	1.6	1494919	WORD	n/a	wordpools/wordpool_EN.txt	HOUSE	3.0	11	n/a	n/a	pyFR	1	UP045
2849.452	1.6	1496261	WORD	n/a	wordpools/wordpool_EN.txt	GUARD	4.0	11	n/a	n/a	pyFR	1	UP045
2851.917	1.6	1497494	WORD	n/a	wordpools/wordpool_EN.txt	RAIN	5.0	11	n/a	n/a	pyFR	1	UP045
2854.533	1.6	1498803	WORD	n/a	wordpools/wordpool_EN.txt	CALF	6.0	11	n/a	n/a	pyFR	1	UP045
2857.281	1.6	1500178	WORD	n/a	wordpools/wordpool_EN.txt	HILL	7.0	11	n/a	n/a	pyFR	1	UP045
2859.847	1.6	1501461	WORD	n/a	wordpools/wordpool_EN.txt	YARD	8.0	11	n/a	n/a	pyFR	1	UP045
2862.48	1.6	1502778	WORD	n/a	wordpools/wordpool_EN.txt	KEY	9.0	11	n/a	n/a	pyFR	1	UP045
2865.244	1.6	1504161	WORD	n/a	wordpools/wordpool_EN.txt	FUDGE	10.0	11	n/a	n/a	pyFR	1	UP045
2867.927	1.6	1505503	WORD	n/a	wordpools/wordpool_EN.txt	FENCE	11.0	11	n/a	n/a	pyFR	1	UP045
2870.376	1.6	1506728	WORD	n/a	wordpools/wordpool_EN.txt	CLOCK	12.0	11	n/a	n/a	pyFR	1	UP045
2872.908	1.6	1507995	WORD	n/a	wordpools/wordpool_EN.txt	BARN	13.0	11	n/a	n/a	pyFR	1	UP045
2875.657	1.6	1509370	WORD	n/a	wordpools/wordpool_EN.txt	SOAP	14.0	11	n/a	n/a	pyFR	1	UP045
2878.439	1.6	1510761	WORD	n/a	wordpools/wordpool_EN.txt	SWAMP	15.0	11	n/a	n/a	pyFR	1	UP045
2880.056	0.88	1511570	START	n/a	n/a	n/a	n/a	11	[-999 -999 -999]	-999.0	pyFR	1	UP045
2880.936	4.316	1512011	PROB	4.283	n/a	n/a	n/a	11	[3 5 1]	9.0	pyFR	1	UP045
2885.252	5.463	1514170	PROB	5.437	n/a	n/a	n/a	11	[4 9 3]	16.0	pyFR	1	UP045
2890.715	2.683	1516902	PROB	2.654	n/a	n/a	n/a	11	[3 7 5]	15.0	pyFR	1	UP045
2893.398	3.447	1518244	PROB	3.424	n/a	n/a	n/a	11	[6 3 1]	10.0	pyFR	1	UP045
2896.845	3.56	1519969	PROB	3.56	n/a	n/a	n/a	11	[3 9 9]	22.0	pyFR	1	UP045
2900.405	1.226	1521750	STOP	n/a	n/a	n/a	n/a	11	[-999 -999 -999]	-999.0	pyFR	1	UP045
2901.631	2.466	1522363	REC_START	n/a	n/a	n/a	-999.0	11	n/a	n/a	pyFR	1	UP045
2904.097	1.838	1523596	REC_WORD	2.466	n/a	FENCE	-999.0	11	n/a	n/a	pyFR	1	UP045
2905.935	4.857	1524516	REC_WORD	4.304	n/a	HOUSE	-999.0	11	n/a	n/a	pyFR	1	UP045
2910.792	3.938	1526945	REC_WORD	9.161	n/a	FUDGE	-999.0	11	n/a	n/a	pyFR	1	UP045
2914.73	0.618	1528915	REC_WORD	13.099	n/a	CAR	-999.0	11	n/a	n/a	pyFR	1	UP045
2915.348	2.311	1529224	REC_WORD	13.717	n/a	DRIVEWAY	-999.0	11	n/a	n/a	pyFR	1	UP045
2917.659	3.71	1530380	REC_WORD_VV	16.028	n/a	<>	-999.0	11	n/a	n/a	pyFR	1	UP045
2921.369	13.339	1532236	REC_WORD_VV	19.738	n/a	<>	-999.0	11	n/a	n/a	pyFR	1	UP045
2934.708	1.003	1538909	REC_WORD_VV	33.077	n/a	<>	-999.0	11	n/a	n/a	pyFR	1	UP045
2935.711	7.787	1539411	REC_WORD_VV	34.08	n/a	<>	-999.0	11	n/a	n/a	pyFR	1	UP045
2943.498	618.595	1543306	REC_WORD_VV	41.867	n/a	<>	-999.0	11	n/a	n/a	pyFR	1	UP045
3562.093	0.017	1852746	TRIAL	n/a	n/a	n/a	-999.0	12	n/a	n/a	pyFR	1	UP045
3562.11	1.6	1852755	ORIENT	n/a	n/a	n/a	-999.0	12	n/a	n/a	pyFR	1	UP045
3565.092	1.6	1854246	WORD	n/a	wordpools/wordpool_EN.txt	OWL	1.0	12	n/a	n/a	pyFR	1	UP045
3567.874	1.6	1855638	WORD	n/a	wordpools/wordpool_EN.txt	BALL	2.0	12	n/a	n/a	pyFR	1	UP045
3570.374	1.6	1856888	WORD	n/a	wordpools/wordpool_EN.txt	MOLE	3.0	12	n/a	n/a	pyFR	1	UP045
3572.822	1.6	1858113	WORD	n/a	wordpools/wordpool_EN.txt	VINE	4.0	12	n/a	n/a	pyFR	1	UP045
3575.522	1.6	1859464	WORD	n/a	wordpools/wordpool_EN.txt	CONE	5.0	12	n/a	n/a	pyFR	1	UP045
3577.986	1.6	1860696	WORD	n/a	wordpools/wordpool_EN.txt	SHEET	6.0	12	n/a	n/a	pyFR	1	UP045
3580.752	1.6	1862080	WORD	n/a	wordpools/wordpool_EN.txt	TOAST	7.0	12	n/a	n/a	pyFR	1	UP045
3583.368	1.6	1863388	WORD	n/a	wordpools/wordpool_EN.txt	CAPE	8.0	12	n/a	n/a	pyFR	1	UP045
3585.816	1.6	1864613	WORD	n/a	wordpools/wordpool_EN.txt	DOLL	9.0	12	n/a	n/a	pyFR	1	UP045
3588.516	1.6	1865964	WORD	n/a	wordpools/wordpool_EN.txt	LAND	10.0	12	n/a	n/a	pyFR	1	UP045
3591.281	1.6	1867347	WORD	n/a	wordpools/wordpool_EN.txt	WAVE	11.0	12	n/a	n/a	pyFR	1	UP045
3594.079	1.6	1868746	WORD	n/a	wordpools/wordpool_EN.txt	OAR	12.0	12	n/a	n/a	pyFR	1	UP045
3596.778	1.6	1870097	WORD	n/a	wordpools/wordpool_EN.txt	BAG	13.0	12	n/a	n/a	pyFR	1	UP045
3599.461	1.6	1871439	WORD	n/a	wordpools/wordpool_EN.txt	TEA	14.0	12	n/a	n/a	pyFR	1	UP045
3602.274	1.6	1872846	WORD	n/a	wordpools/wordpool_EN.txt	PHONE	15.0	12	n/a	n/a	pyFR	1	UP045
3603.893	1.015	1873656	START	n/a	n/a	n/a	n/a	12	[-999 -999 -999]	-999.0	pyFR	1	UP045
3604.908	13.111	1874163	PROB	13.073	n/a	n/a	n/a	12	[4 8 9]	31.0	pyFR	1	UP045
3618.019	4.996	1880722	PROB	4.96	n/a	n/a	n/a	12	[2 8 9]	19.0	pyFR	1	UP045
3623.015	3.794	1883221	PROB	3.794	n/a	n/a	n/a	12	[2 4 5]	11.0	pyFR	1	UP045
3626.809	1.14	1885119	STOP	n/a	n/a	n/a	n/a	12	[-999 -999 -999]	-999.0	pyFR	1	UP045
3627.949	2.348	1885689	REC_START	n/a	n/a	n/a	-999.0	12	n/a	n/a	pyFR	1	UP045
3630.297	1.922	1886864	REC_WORD	2.348	n/a	CAPE	-999.0	12	n/a	n/a	pyFR	1	UP045
3632.219	3.152	1887825	REC_WORD	4.27	n/a	MOLE	-999.0	12	n/a	n/a	pyFR	1	UP045
3635.371	2.04	1889402	REC_WORD	7.422	n/a	OWL	-999.0	12	n/a	n/a	pyFR	1	UP045
3637.411	6.324	1890422	REC_WORD_VV	9.462	n/a	<>	-999.0	12	n/a	n/a	pyFR	1	UP045
3643.735	8.088	1893586	REC_WORD_VV	15.786	n/a	<>	-999.0	12	n/a	n/a	pyFR	1	UP045
3651.823	0.934	1897632	REC_WORD	23.874	n/a	WAVE	-999.0	12	n/a	n/a	pyFR	1	UP045
3652.757	1.777	1898099	REC_WORD	24.808	n/a	TIE	-999.0	12	n/a	n/a	pyFR	1	UP045
3654.534	23.609	1898988	REC_WORD	26.585	n/a	SANDS	-999.0	12	n/a	n/a	pyFR	1	UP045
3678.143	0.017	1910798	TRIAL	n/a	n/a	n/a	-999.0	13	n/a	n/a	pyFR	1	UP045
3678.16	1.6	1910806	ORIENT	n/a	n/a	n/a	-999.0	13	n/a	n/a	pyFR	1	UP045
3681.025	1.6	1912239	WORD	n/a	wordpools/wordpool_EN.txt	BUSH	1.0	13	n/a	n/a	pyFR	1	UP045
3683.523	1.6	1913489	WORD	n/a	wordpools/wordpool_EN.txt	BOWL	2.0	13	n/a	n/a	pyFR	1	UP045
3686.206	1.6	1914831	WORD	n/a	wordpools/wordpool_EN.txt	JAR	3.0	13	n/a	n/a	pyFR	1	UP045
3689.022	1.6	1916240	WORD	n/a	wordpools/wordpool_EN.txt	RAT	4.0	13	n/a	n/a	pyFR	1	UP045
3691.835	1.6	1917647	WORD	n/a	wordpools/wordpool_EN.txt	TOAD	5.0	13	n/a	n/a	pyFR	1	UP045
3694.47	1.6	1918965	WORD	n/a	wordpools/wordpool_EN.txt	SNOW	6.0	13	n/a	n/a	pyFR	1	UP045
3697.135	1.6	1920298	WORD	n/a	wordpools/wordpool_EN.txt	FOOT	7.0	13	n/a	n/a	pyFR	1	UP045
3699.767	1.6	1921615	WORD	n/a	wordpools/wordpool_EN.txt	STREET	8.0	13	n/a	n/a	pyFR	1	UP045
3702.434	1.6	1922949	WORD	n/a	wordpools/wordpool_EN.txt	MOUTH	9.0	13	n/a	n/a	pyFR	1	UP045
3704.931	1.6	1924198	WORD	n/a	wordpools/wordpool_EN.txt	HORSE	10.0	13	n/a	n/a	pyFR	1	UP045
3707.648	1.6	1925557	WORD	n/a	wordpools/wordpool_EN.txt	CHAIR	11.0	13	n/a	n/a	pyFR	1	UP045
3710.329	1.6	1926898	WORD	n/a	wordpools/wordpool_EN.txt	BOOT	12.0	13	n/a	n/a	pyFR	1	UP045
3712.961	1.6	1928215	WORD	n/a	wordpools/wordpool_EN.txt	ROAD	13.0	13	n/a	n/a	pyFR	1	UP045
3715.511	1.6	1929490	WORD	n/a	wordpools/wordpool_EN.txt	DAD	14.0	13	n/a	n/a	pyFR	1	UP045
3717.992	1.6	1930731	WORD	n/a	wordpools/wordpool_EN.txt	SNAKE	15.0	13	n/a	n/a	pyFR	1	UP045
3719.611	1.03	1931541	START	n/a	n/a	n/a	n/a	13	[-999 -999 -999]	-999.0	pyFR	1	UP045
3720.641	5.048	1932057	PROB	5.015	n/a	n/a	n/a	13	[3 9 5]	17.0	pyFR	1	UP045
3725.689	3.097	1934582	PROB	3.068	n/a	n/a	n/a	13	[6 6 2]	14.0	pyFR	1	UP045
3728.786	4.649	1936131	PROB	4.627	n/a	n/a	n/a	13	[9 6 7]	22.0	pyFR	1	UP045
3733.435	4.132	1938457	PROB	4.096	n/a	n/a	n/a	13	[5 7 2]	14.0	pyFR	1	UP045
3737.567	3.384	1940523	PROB	3.384	n/a	n/a	n/a	13	[9 4 6]	19.0	pyFR	1	UP045
3740.951	1.199	1942216	STOP	n/a	n/a	n/a	n/a	13	[-999 -999 -999]	-999.0	pyFR	1	UP045
3742.15	1.686	1942816	REC_START	n/a	n/a	n/a	-999.0	13	n/a	n/a	pyFR	1	UP045
3743.836	1.437	1943659	REC_WORD	1.686	n/a	BUSH	-999.0	13	n/a	n/a	pyFR	1	UP045
3745.273	3.012	1944378	REC_WORD	3.123	n/a	DAD	-999.0	13	n/a	n/a	pyFR	1	UP045
3748.285	3.144	1945885	REC_WORD_VV	6.135	n/a	<>	-999.0	13	n/a	n/a	pyFR	1	UP045
3751.429	4.085	1947458	REC_WORD	9.279	n/a	CHILD	-999.0	13	n/a	n/a	pyFR	1	UP045
3755.514	28.383	1949501	REC_WORD	13.364	n/a	DANCE	-999.0	13	n/a	n/a	pyFR	1	UP045
3783.897	1.0	1963699	REC_WORD_VV	41.747	n/a	<>	-999.0	13	n/a	n/a	pyFR	1	UP045
3784.897	4.998	1964199	REC_WORD_VV	42.747	n/a	<>	-999.0	13	n/a	n/a	pyFR	1	UP045
3789.895	0.016	1966700	TRIAL	n/a	n/a	n/a	-999.0	14	n/a	n/a	pyFR	1	UP045
3789.911	1.6	1966708	ORIENT	n/a	n/a	n/a	-999.0	14	n/a	n/a	pyFR	1	UP045
3792.611	1.6	1968058	WORD	n/a	wordpools/wordpool_EN.txt	SKY	1.0	14	n/a	n/a	pyFR	1	UP045
3795.377	1.6	1969442	WORD	n/a	wordpools/wordpool_EN.txt	ZOO	2.0	14	n/a	n/a	pyFR	1	UP045
3797.808	1.6	1970658	WORD	n/a	wordpools/wordpool_EN.txt	CAKE	3.0	14	n/a	n/a	pyFR	1	UP045
3800.408	1.6	1971958	WORD	n/a	wordpools/wordpool_EN.txt	STORM	4.0	14	n/a	n/a	pyFR	1	UP045
3803.089	1.6	1973300	WORD	n/a	wordpools/wordpool_EN.txt	DOOR	5.0	14	n/a	n/a	pyFR	1	UP045
3805.888	1.6	1974700	WORD	n/a	wordpools/wordpool_EN.txt	MAT	6.0	14	n/a	n/a	pyFR	1	UP045
3808.505	1.6	1976009	WORD	n/a	wordpools/wordpool_EN.txt	JEEP	7.0	14	n/a	n/a	pyFR	1	UP045
3811.252	1.6	1977383	WORD	n/a	wordpools/wordpool_EN.txt	LIP	8.0	14	n/a	n/a	pyFR	1	UP045
3813.718	1.6	1978617	WORD	n/a	wordpools/wordpool_EN.txt	COUCH	9.0	14	n/a	n/a	pyFR	1	UP045
3816.2	1.6	1979858	WORD	n/a	wordpools/wordpool_EN.txt	CAVE	10.0	14	n/a	n/a	pyFR	1	UP045
3818.915	1.6	1981216	WORD	n/a	wordpools/wordpool_EN.txt	CLOUD	11.0	14	n/a	n/a	pyFR	1	UP045
3821.632	1.6	1982575	WORD	n/a	wordpools/wordpool_EN.txt	BRICK	12.0	14	n/a	n/a	pyFR	1	UP045
3824.112	1.6	1983816	WORD	n/a	wordpools/wordpool_EN.txt	APE	13.0	14	n/a	n/a	pyFR	1	UP045
3826.795	1.6	1985158	WORD	n/a	wordpools/wordpool_EN.txt	WING	14.0	14	n/a	n/a	pyFR	1	UP045
3829.496	1.6	1986509	WORD	n/a	wordpools/wordpool_EN.txt	WEED	15.0	14	n/a	n/a	pyFR	1	UP045
3831.112	1.079	1987318	START	n/a	n/a	n/a	n/a	14	[-999 -999 -999]	-999.0	pyFR	1	UP045
3832.191	5.382	1987857	PROB	5.345	n/a	n/a	n/a	14	[2 7 5]	14.0	pyFR	1	UP045
3837.573	5.065	1990550	PROB	5.033	n/a	n/a	n/a	14	[2 6 2]	10.0	pyFR	1	UP045
3842.638	5.766	1993083	PROB	5.741	n/a	n/a	n/a	14	[8 1 2]	11.0	pyFR	1	UP045
3848.404	2.893	1995968	PROB	2.893	n/a	n/a	n/a	14	[9 2 9]	21.0	pyFR	1	UP045
3851.297	1.123	1997415	STOP	n/a	n/a	n/a	n/a	14	[-999 -999 -999]	-999.0	pyFR	1	UP045
3852.42	1.193	1997976	REC_START	n/a	n/a	n/a	-999.0	14	n/a	n/a	pyFR	1	UP045
3853.613	3.563	1998573	REC_WORD	1.193	n/a	MAT	-999.0	14	n/a	n/a	pyFR	1	UP045
3857.176	1.636	2000356	REC_WORD	4.756	n/a	CAPE	-999.0	14	n/a	n/a	pyFR	1	UP045
3858.812	1.007	2001174	REC_WORD_VV	6.392	n/a	<>	-999.0	14	n/a	n/a	pyFR	1	UP045
3859.819	3.897	2001678	REC_WORD	7.399	n/a	CAPE	-999.0	14	n/a	n/a	pyFR	1	UP045
3863.716	4.422	2003627	REC_WORD	11.296	n/a	STONE	-999.0	14	n/a	n/a	pyFR	1	UP045
3868.138	7.834	2005839	REC_WORD	15.718	n/a	ART	-999.0	14	n/a	n/a	pyFR	1	UP045
3875.972	10.947	2009758	REC_WORD	23.552	n/a	WEALTH	-999.0	14	n/a	n/a	pyFR	1	UP045
3886.919	15.144	2015234	REC_WORD	34.499	n/a	SOFT	-999.0	14	n/a	n/a	pyFR	1	UP045
3902.063	0.017	2022809	TRIAL	n/a	n/a	n/a	-999.0	15	n/a	n/a	pyFR	1	UP045
3902.08	1.6	2022818	ORIENT	n/a	n/a	n/a	-999.0	15	n/a	n/a	pyFR	1	UP045
3904.812	1.6	2024185	WORD	n/a	wordpools/wordpool_EN.txt	ICE	1.0	15	n/a	n/a	pyFR	1	UP045
3907.412	1.6	2025485	WORD	n/a	wordpools/wordpool_EN.txt	FORK	2.0	15	n/a	n/a	pyFR	1	UP045
3910.06	1.6	2026810	WORD	n/a	wordpools/wordpool_EN.txt	FOOD	3.0	15	n/a	n/a	pyFR	1	UP045
3912.692	1.6	2028126	WORD	n/a	wordpools/wordpool_EN.txt	DOG	4.0	15	n/a	n/a	pyFR	1	UP045
3915.207	1.6	2029384	WORD	n/a	wordpools/wordpool_EN.txt	BIRD	5.0	15	n/a	n/a	pyFR	1	UP045
3917.873	1.6	2030718	WORD	n/a	wordpools/wordpool_EN.txt	BEACH	6.0	15	n/a	n/a	pyFR	1	UP045
3920.473	1.6	2032019	WORD	n/a	wordpools/wordpool_EN.txt	CASH	7.0	15	n/a	n/a	pyFR	1	UP045
3923.271	1.6	2033418	WORD	n/a	wordpools/wordpool_EN.txt	MAIL	8.0	15	n/a	n/a	pyFR	1	UP045
3925.986	1.6	2034776	WORD	n/a	wordpools/wordpool_EN.txt	WAND	9.0	15	n/a	n/a	pyFR	1	UP045
3928.469	1.6	2036018	WORD	n/a	wordpools/wordpool_EN.txt	SPRING	10.0	15	n/a	n/a	pyFR	1	UP045
3931.167	1.6	2037368	WORD	n/a	wordpools/wordpool_EN.txt	FORT	11.0	15	n/a	n/a	pyFR	1	UP045
3933.667	1.6	2038619	WORD	n/a	wordpools/wordpool_EN.txt	TIE	12.0	15	n/a	n/a	pyFR	1	UP045
3936.416	1.6	2039994	WORD	n/a	wordpools/wordpool_EN.txt	SOCK	13.0	15	n/a	n/a	pyFR	1	UP045
3938.864	1.6	2041218	WORD	n/a	wordpools/wordpool_EN.txt	EAR	14.0	15	n/a	n/a	pyFR	1	UP045
3941.663	1.6	2042618	WORD	n/a	wordpools/wordpool_EN.txt	BOAT	15.0	15	n/a	n/a	pyFR	1	UP045
3943.28	0.946	2043427	START	n/a	n/a	n/a	n/a	15	[-999 -999 -999]	-999.0	pyFR	1	UP045
3944.226	4.831	2043901	PROB	4.806	n/a	n/a	n/a	15	[5 7 8]	20.0	pyFR	1	UP045
3949.057	8.197	2046317	PROB	8.163	n/a	n/a	n/a	15	[2 4 7]	13.0	pyFR	1	UP045
3957.254	3.152	2050418	PROB	3.125	n/a	n/a	n/a	15	[4 9 1]	14.0	pyFR	1	UP045
3960.406	4.865	2051994	PROB	4.865	n/a	n/a	n/a	15	[4 8 9]	21.0	pyFR	1	UP045
3965.271	1.25	2054428	STOP	n/a	n/a	n/a	n/a	15	[-999 -999 -999]	-999.0	pyFR	1	UP045
3966.521	3.798	2055053	REC_START	n/a	n/a	n/a	-999.0	15	n/a	n/a	pyFR	1	UP045
3970.319	5.256	2056953	REC_WORD	3.798	n/a	SPRING	-999.0	15	n/a	n/a	pyFR	1	UP045
3975.575	4.022	2059582	REC_WORD	9.054	n/a	TIME	-999.0	15	n/a	n/a	pyFR	1	UP045
3979.597	3.83	2061594	REC_WORD	13.076	n/a	SPONGE	-999.0	15	n/a	n/a	pyFR	1	UP045
3983.427	3.829	2063510	REC_WORD	16.906	n/a	FORT	-999.0	15	n/a	n/a	pyFR	1	UP045
3987.256	8.294	2065426	REC_WORD	20.735	n/a	HOUSE	-999.0	15	n/a	n/a	pyFR	1	UP045
3995.55	2.548	2069574	REC_WORD	29.029	n/a	TIRE	-999.0	15	n/a	n/a	pyFR	1	UP045
3998.098	15.084	2070849	REC_WORD	31.577	n/a	TIE	-999.0	15	n/a	n/a	pyFR	1	UP045
4013.182	0.016	2078394	TRIAL	n/a	n/a	n/a	-999.0	16	n/a	n/a	pyFR	1	UP045
4013.198	1.6	2078402	ORIENT	n/a	n/a	n/a	-999.0	16	n/a	n/a	pyFR	1	UP045
4016.13	1.6	2079869	WORD	n/a	wordpools/wordpool_EN.txt	STEAK	1.0	16	n/a	n/a	pyFR	1	UP045
4018.862	1.6	2081236	WORD	n/a	wordpools/wordpool_EN.txt	VASE	2.0	16	n/a	n/a	pyFR	1	UP045
4021.595	1.6	2082603	WORD	n/a	wordpools/wordpool_EN.txt	AXE	3.0	16	n/a	n/a	pyFR	1	UP045
4024.144	1.6	2083878	WORD	n/a	wordpools/wordpool_EN.txt	HAND	4.0	16	n/a	n/a	pyFR	1	UP045
4026.66	1.6	2085137	WORD	n/a	wordpools/wordpool_EN.txt	LAWN	5.0	16	n/a	n/a	pyFR	1	UP045
4029.125	1.6	2086370	WORD	n/a	wordpools/wordpool_EN.txt	WOLF	6.0	16	n/a	n/a	pyFR	1	UP045
4031.723	1.6	2087669	WORD	n/a	wordpools/wordpool_EN.txt	STORE	7.0	16	n/a	n/a	pyFR	1	UP045
4034.39	1.6	2089003	WORD	n/a	wordpools/wordpool_EN.txt	SEAL	8.0	16	n/a	n/a	pyFR	1	UP045
4036.871	1.6	2090244	WORD	n/a	wordpools/wordpool_EN.txt	WALL	9.0	16	n/a	n/a	pyFR	1	UP045
4039.471	1.6	2091545	WORD	n/a	wordpools/wordpool_EN.txt	BRIDGE	10.0	16	n/a	n/a	pyFR	1	UP045
4042.119	1.6	2092870	WORD	n/a	wordpools/wordpool_EN.txt	TOE	11.0	16	n/a	n/a	pyFR	1	UP045
4044.868	1.6	2094245	WORD	n/a	wordpools/wordpool_EN.txt	TEETH	12.0	16	n/a	n/a	pyFR	1	UP045
4047.601	1.6	2095612	WORD	n/a	wordpools/wordpool_EN.txt	COIN	13.0	16	n/a	n/a	pyFR	1	UP045
4050.049	1.6	2096836	WORD	n/a	wordpools/wordpool_EN.txt	TAIL	14.0	16	n/a	n/a	pyFR	1	UP045
4052.848	1.6	2098237	WORD	n/a	wordpools/wordpool_EN.txt	THUMB	15.0	16	n/a	n/a	pyFR	1	UP045
4054.467	0.981	2099046	START	n/a	n/a	n/a	n/a	16	[-999 -999 -999]	-999.0	pyFR	1	UP045
4055.448	3.612	2099537	PROB	3.576	n/a	n/a	n/a	16	[4 5 9]	18.0	pyFR	1	UP045
4059.06	8.213	2101344	PROB	8.185	n/a	n/a	n/a	16	[7 5 6]	18.0	pyFR	1	UP045
4067.273	7.831	2105452	PROB	7.831	n/a	n/a	n/a	16	[8 9 6]	25.0	pyFR	1	UP045
4075.104	1.118	2109370	STOP	n/a	n/a	n/a	n/a	16	[-999 -999 -999]	-999.0	pyFR	1	UP045
4076.222	1.772	2109929	REC_START	n/a	n/a	n/a	-999.0	16	n/a	n/a	pyFR	1	UP045
4077.994	1.148	2110815	REC_WORD	1.772	n/a	BRIDGE	-999.0	16	n/a	n/a	pyFR	1	UP045
4079.142	1.02	2111390	REC_WORD	2.92	n/a	WALK	-999.0	16	n/a	n/a	pyFR	1	UP045
4080.162	2.726	2111900	REC_WORD	3.94	n/a	TOE	-999.0	16	n/a	n/a	pyFR	1	UP045
4082.888	3.213	2113264	REC_WORD	6.666	n/a	TEETH	-999.0	16	n/a	n/a	pyFR	1	UP045
4086.101	3.296	2114871	REC_WORD	9.879	n/a	WALL	-999.0	16	n/a	n/a	pyFR	1	UP045
4089.397	9.833	2116520	REC_WORD	13.175	n/a	TIME	-999.0	16	n/a	n/a	pyFR	1	UP045
4099.23	2.089	2121438	REC_WORD	23.008	n/a	FACE	-999.0	16	n/a	n/a	pyFR	1	UP045
4101.319	9.523	2122483	REC_WORD	25.097	n/a	NOSE	-999.0	16	n/a	n/a	pyFR	1	UP045
4110.842	2.18	2127247	REC_WORD_VV	34.62	n/a	<>	-999.0	16	n/a	n/a	pyFR	1	UP045
4113.022	529.205	2128337	REC_WORD_VV	36.8	n/a	<>	-999.0	16	n/a	n/a	pyFR	1	UP045
4642.227	0.099	2393062	SESS_END	n/a	n/a	n/a	-999.0	16	n/a	n/a	pyFR	1	UP045
4642.326	0.0	2393111	E	n/a	n/a	n/a	-999.0	16	n/a	n/a	pyFR	1	UP045
